time,seconds_elapsed,z,y,x
1663862554499061500,0.1940615234375,9.366012573242188,-0.33648681640625,-3.932769775390625
1663862554508949200,0.20394921875,10.94378662109375,-1.330078125,-2.886505126953125
1663862554518837000,0.2138369140625,11.554306030273438,-1.313323974609375,-2.2544403076171875
1663862554528724500,0.223724365234375,11.762603759765625,-0.7099761962890625,-1.88812255859375
1663862554538612200,0.2336123046875,12.605361938476562,0.30755615234375,-1.100433349609375
1663862554548469500,0.243469482421875,12.48565673828125,1.59564208984375,0.0224456787109375
1663862554558326500,0.253326416015625,11.192779541015625,3.1159515380859375,0.3743896484375
1663862554568183800,0.263183837890625,10.139328002929688,3.652252197265625,0.08709716796875
1663862554578071600,0.273071533203125,9.406707763671875,2.7185211181640625,-0.044586181640625
1663862554587959300,0.282959228515625,9.744293212890625,1.760833740234375,0.01287841796875
1663862554597846800,0.2928466796875,10.445785522460938,1.50225830078125,-0.1331787109375
1663862554607734500,0.302734619140625,10.381149291992188,1.5453643798828125,-0.741302490234375
1663862554617622300,0.312622314453125,9.684432983398438,1.6938018798828125,-1.4571685791015625
1663862554627510000,0.322510009765625,8.743515014648438,1.70098876953125,-2.970306396484375
1663862554637397800,0.332397705078125,8.077926635742188,1.5094451904296875,-4.471466064453125
1663862554647285200,0.34228515625,8.762664794921875,1.030609130859375,-3.446746826171875
1663862554657112000,0.352112060546875,10.079483032226562,0.872589111328125,-1.2393035888671875
1663862554666969000,0.361968994140625,11.2071533203125,1.2724151611328125,-0.255279541015625
1663862554676887300,0.37188720703125,11.307708740234375,1.9691314697265625,-0.137969970703125
1663862554686775000,0.381775146484375,10.223129272460938,2.74725341796875,-0.0158538818359375
1663862554696662800,0.391662841796875,9.150527954101562,3.3817138671875,0.3504486083984375
1663862554706550500,0.401550537109375,8.611831665039062,3.57086181640625,0.4174957275390625
1663862554716407800,0.41140771484375,8.401138305664062,3.0680694580078125,-0.2265472412109375
1663862554726295300,0.42129541015625,8.808151245117188,2.0696868896484375,-1.270416259765625
1663862554736152600,0.431152587890625,9.67724609375,1.3179168701171875,-2.137115478515625
1663862554746070800,0.44107080078125,9.976531982421875,1.1766510009765625,-2.5824432373046875
1663862554755958500,0.45095849609375,9.7706298828125,1.6459197998046875,-2.2113494873046875
1663862554765846300,0.46084619140625,9.38037109375,2.4072723388671875,-1.3661956787109375
1663862554775703300,0.470703369140625,8.370010375976562,3.1422882080078125,-0.47314453125
1663862554785560600,0.480560546875,7.917510986328125,3.65704345703125,-0.2624664306640625
1663862554795448300,0.4904482421875,7.7523193359375,3.9132232666015625,0.04638671875
1663862554805335800,0.500335693359375,7.8552703857421875,3.5900115966796875,-0.1307830810546875
1663862554815193000,0.510193115234375,8.077926635742188,2.6083831787109375,-0.9615631103515625
1663862554825111300,0.520111328125,8.405929565429688,1.708160400390625,-1.7109527587890625
1663862554834999000,0.5299990234375,8.913497924804688,1.5094451904296875,-2.3238677978515625
1663862554844886800,0.53988671875,9.14813232421875,1.9332275390625,-1.924041748046875
1663862554854774300,0.549774169921875,8.626190185546875,2.9890594482421875,-0.9759368896484375
1663862554864662000,0.559662109375,7.94384765625,3.599578857421875,-0.1834564208984375
1663862554874549800,0.5695498046875,8.24072265625,3.420013427734375,-0.7748260498046875
1663862554884437500,0.5794375,9.11700439453125,3.1207427978515625,-1.23211669921875
1663862554894294500,0.58929443359375,9.428253173828125,2.1654510498046875,-1.1339569091796875
1663862554904182300,0.599182373046875,9.904693603515625,1.5525360107421875,-1.38055419921875
1663862554914039600,0.60903955078125,10.280593872070312,1.7895660400390625,-1.39013671875
1663862554923927300,0.61892724609375,10.433822631835938,2.0816650390625,-0.3414764404296875
1663862554933814800,0.628814697265625,10.199188232421875,1.7776031494140625,-0.2361297607421875
1663862554943702500,0.63870263671875,9.44500732421875,1.686614990234375,-1.402099609375
1663862554953590300,0.64859033203125,8.623809814453125,2.1965789794921875,-2.1179656982421875
1663862554963447600,0.658447509765625,8.104263305664062,3.048919677734375,-1.8593902587890625
1663862554973335300,0.668335205078125,7.287841796875,3.6163482666015625,-0.8179168701171875
1663862554983222800,0.678222900390625,7.5081024169921875,3.5301513671875,0.008087158203125
1663862554993080000,0.688080078125,9.097854614257812,2.93878173828125,0.9442138671875
1663862555002998300,0.697998291015625,10.8480224609375,2.36895751953125,1.265045166015625
1663862555012886000,0.707885986328125,11.436996459960938,2.1103973388671875,0.3959503173828125
1663862555022773800,0.717773681640625,10.196792602539062,1.88055419921875,-0.8274993896484375
1663862555032661200,0.7276611328125,8.434661865234375,1.8709716796875,-1.34942626953125
1663862555042549000,0.737549072265625,8.520858764648438,2.2540435791015625,-0.4204864501953125
1663862555052436700,0.747436767578125,9.488113403320312,2.5652923583984375,-0.149932861328125
1663862555062324500,0.757324462890625,10.297348022460938,2.404876708984375,0.2690582275390625
1663862555072181500,0.767181396484375,10.4888916015625,1.961944580078125,-0.1954193115234375
1663862555082038800,0.777038818359375,9.468948364257812,1.6147918701171875,-0.832275390625
1663862555091926500,0.786926513671875,8.985321044921875,1.686614990234375,-1.0022735595703125
1663862555101814300,0.796814208984375,9.342056274414062,2.182220458984375,0.0703277587890625
1663862555111671300,0.80667138671875,8.858428955078125,2.7616119384765625,0.93463134765625
1663862555121589500,0.816589599609375,9.28460693359375,3.50860595703125,1.372772216796875
1663862555131477200,0.826477294921875,8.951812744140625,3.5110015869140625,1.11181640625
1663862555141365000,0.836364990234375,8.212005615234375,2.5030364990234375,-0.0709228515625
1663862555151252700,0.846252685546875,9.140945434570312,2.1654510498046875,-0.465972900390625
1663862555161140200,0.85614013671875,9.988494873046875,2.2420654296875,0.0224456787109375
1663862555171028000,0.866028076171875,10.07708740234375,2.172637939453125,0.7454986572265625
1663862555180885200,0.87588525390625,9.483322143554688,1.770416259765625,0.695220947265625
1663862555190773000,0.88577294921875,8.994903564453125,1.62677001953125,0.589874267578125
1663862555200660700,0.89566064453125,8.568740844726562,1.782379150390625,0.6162109375
1663862555210548200,0.90554833984375,8.063552856445312,2.9148406982421875,1.267425537109375
1663862555220436000,0.91543603515625,6.6102752685546875,2.9555511474609375,0.257080078125
1663862555230283800,0.92528369140625,5.5903472900390625,1.9835052490234375,0.292999267578125
1663862555240171500,0.935171630859375,4.9510955810546875,1.3346710205078125,0.8292999267578125
1663862555250059000,0.94505908203125,3.8425750732421875,0.8438568115234375,0.6090240478515625
1663862555259946800,0.95494677734375,2.602386474609375,0.7480926513671875,0.769439697265625
1663862555269834500,0.96483447265625,2.032562255859375,0.903717041015625,1.7821807861328125
1663862555279691800,0.97469189453125,2.0445404052734375,0.7480926513671875,2.6752166748046875
1663862555289548800,0.984548828125,2.0684814453125,-0.0731201171875,2.58184814453125
1663862555299436500,0.9944365234375,2.1307220458984375,-0.827301025390625,1.846832275390625
1663862555309324300,1.00432421875,1.946380615234375,-0.860809326171875,0.7502899169921875
1663862555319212000,1.0142119140625,1.9296112060546875,-1.114593505859375,-0.434844970703125
1663862555329099800,1.024099853515625,3.3182525634765625,-2.2303009033203125,-1.756439208984375
1663862555338987300,1.0339873046875,3.06207275390625,-3.41302490234375,-2.6710357666015625
1663862555348875000,1.043875,3.639068603515625,-4.6125335693359375,-3.56646728515625
1663862555358762800,1.0537626953125,5.1953125,-5.9724273681640625,-3.9447479248046875
1663862555368650500,1.063650390625,4.6542205810546875,-7.0498199462890625,-2.5249786376953125
1663862555378538200,1.073538330078125,2.83941650390625,-7.6675262451171875,0.3648223876953125
1663862555388395300,1.083395263671875,0.9408111572265625,-7.7082366943359375,2.8212738037109375
1663862555398283000,1.093282958984375,-1.1038360595703125,-7.4137420654296875,5.196319580078125
1663862555408140300,1.103140380859375,-7.48199462890625,-6.1903076171875,8.615234375
1663862555418027800,1.11302783203125,-7.414947509765625,-5.7114715576171875,11.533767700195312
1663862555427915500,1.12291552734375,2.5951995849609375,-7.6771087646484375,9.436447143554688
1663862555437803300,1.13280322265625,9.318115234375,-9.374588012695312,6.5945281982421875
1663862555447660500,1.14266064453125,8.540008544921875,-9.17108154296875,8.514678955078125
1663862555457517600,1.152517578125,3.2607879638671875,-6.71942138671875,12.647079467773438
1663862555467435800,1.162435791015625,-1.063140869140625,-4.643646240234375,14.897628784179688
1663862555477293000,1.17229296875,1.2568511962890625,-4.959686279296875,15.278305053710938
1663862555487211300,1.182211181640625,6.2703094482421875,-5.8982086181640625,14.761154174804688
1663862555497068300,1.192068359375,7.66851806640625,-5.8072357177734375,15.769119262695312
1663862555506925600,1.201925537109375,6.5312652587890625,-4.7657623291015625,18.141769409179688
1663862555516843800,1.21184375,5.6382293701171875,-3.9756622314453125,19.6549072265625
1663862555526731500,1.2217314453125,6.986175537109375,-2.8288421630859375,21.3260498046875
1663862555536619300,1.231619384765625,8.784210205078125,-1.176849365234375,23.86151123046875
1663862555546506800,1.2415068359375,7.5607757568359375,0.7744293212890625,24.898208618164062
1663862555556394500,1.25139453125,4.738006591796875,1.9427947998046875,24.311630249023438
1663862555566282200,1.2612822265625,2.7484283447265625,1.9787139892578125,21.998825073242188
1663862555576139500,1.271139404296875,1.8984832763671875,2.088836669921875,18.73553466796875
1663862555586027300,1.28102734375,1.3645782470703125,2.479095458984375,16.54962158203125
1663862555595884300,1.29088427734375,0.7373046875,3.2165069580078125,16.513702392578125
1663862555605772000,1.30077197265625,0.6726531982421875,4.624298095703125,18.395553588867188
1663862555615659800,1.31065966796875,-0.1940460205078125,5.9698486328125,19.262252807617188
1663862555625547500,1.320547607421875,-1.190032958984375,6.4127655029296875,18.77862548828125
1663862555635435000,1.33043505859375,-1.6784515380859375,5.8142242431640625,17.133804321289062
1663862555645322800,1.34032275390625,-2.18841552734375,4.401641845703125,14.227249145507812
1663862555655180000,1.350179931640625,-3.37353515625,3.1590576171875,11.675033569335938
1663862555665067800,1.36006787109375,-4.6424713134765625,1.8997039794921875,10.216964721679688
1663862555674924800,1.3699248046875,-4.7526092529296875,-0.69561767578125,7.753326416015625
1663862555684812500,1.3798125,-5.078216552734375,-3.343597412109375,5.57220458984375
1663862555694700300,1.3897001953125,-4.17559814453125,-4.368316650390625,6.21624755859375
1663862555704618500,1.399618408203125,-1.702392578125,-5.82159423828125,7.47320556640625
1663862555714506200,1.40950634765625,-2.00885009765625,-7.0689849853515625,6.663970947265625
1663862555724393700,1.419393798828125,-2.056732177734375,-5.5749969482421875,6.46044921875
1663862555734251000,1.4292509765625,-1.855621337890625,-4.74420166015625,6.158782958984375
1663862555744108300,1.4391083984375,-3.9122314453125,-2.0794677734375,6.3574981689453125
1663862555753995800,1.448995849609375,-6.5171356201171875,3.060882568359375,6.9105682373046875
1663862555763883500,1.458883544921875,-3.1676483154296875,4.0616607666015625,6.2138519287109375
1663862555773771300,1.468771240234375,12.394668579101562,-4.9716644287109375,9.855438232421875
1663862555783659000,1.478658935546875,20.709732055664062,-7.17431640625,17.339706420898438
1663862555793546800,1.488546630859375,15.79443359375,-3.0347442626953125,22.405838012695312
1663862555803434200,1.498434326171875,2.9351806640625,-2.5439300537109375,16.482589721679688
1663862555813322000,1.508322021484375,-4.8699188232421875,-0.2718353271484375,14.519332885742188
1663862555823209700,1.518209716796875,-5.5307159423828125,-1.4162750244140625,16.417938232421875
1663862555833097500,1.528097412109375,-0.1150360107421875,-3.4776763916015625,18.170501708984375
1663862555842985200,1.537985107421875,2.8849029541015625,-4.9309539794921875,16.841720581054688
1663862555852873000,1.547873046875,3.3757171630859375,-5.668365478515625,13.4012451171875
1663862555862760400,1.557760498046875,-0.387969970703125,-8.838287353515625,-0.0302276611328125
1663862555872617700,1.56761767578125,1.2520599365234375,-12.130325317382812,-14.632461547851562
1663862555882505500,1.57750537109375,-2.078277587890625,-5.9125823974609375,-7.777862548828125
1663862555892393200,1.587393310546875,-3.732666015625,0.123199462890625,1.28179931640625
1663862555902280700,1.59728076171875,-2.3129119873046875,-0.247894287109375,1.2626495361328125
1663862555912168400,1.60716845703125,-3.8930816650390625,-1.7179412841796875,-1.6726531982421875
1663862555922025700,1.617025634765625,-7.4101715087890625,-2.4266204833984375,-5.4411163330078125
1663862555931913500,1.62691357421875,-8.640792846679688,-4.87109375,-9.456192016601562
1663862555941801000,1.636801025390625,-1.6425323486328125,-9.209396362304688,-8.589492797851562
1663862555951658200,1.646658203125,1.2041778564453125,-11.905258178710938,-0.0086822509765625
1663862555961546000,1.6565458984375,7.96539306640625,-10.650711059570312,9.457992553710938
1663862555971433700,1.666433837890625,14.554244995117188,-9.465576171875,13.039718627929688
1663862555981321200,1.6763212890625,7.453033447265625,-10.272415161132812,21.330841064453125
1663862555991178500,1.686178466796875,-3.6033782958984375,-10.753662109375,25.776870727539062
1663862556001066200,1.696066162109375,-8.643173217773438,-12.894073486328125,20.57427978515625
1663862556010954000,1.7059541015625,-9.239334106445312,-14.72802734375,12.836212158203125
1663862556020841500,1.715841552734375,-3.8619537353515625,-11.9794921875,12.350189208984375
1663862556030729200,1.725729248046875,-2.542755126953125,-9.362625122070312,13.973464965820312
1663862556040617000,1.735616943359375,-2.6744384765625,-8.455215454101562,12.161056518554688
1663862556050504700,1.745504638671875,-0.3712158203125,-7.3036041259765625,9.673477172851562
1663862556060392400,1.755392333984375,3.955108642578125,-12.939559936523438,0.7670440673828125
1663862556070280200,1.7652802734375,0.1004486083984375,-12.235671997070312,-1.270416259765625
1663862556080137200,1.77513720703125,-3.5028228759765625,-7.7561187744140625,4.932952880859375
1663862556090025000,1.78502490234375,-1.7742156982421875,-6.7313995361328125,6.2713165283203125
1663862556099912700,1.79491259765625,-0.3855743408203125,-6.7481536865234375,5.639251708984375
1663862556109800400,1.804800537109375,-1.3504486083984375,-7.083343505859375,5.09576416015625
1663862556119688000,1.81468798828125,-1.654510498046875,-7.3874053955078125,4.360748291015625
1663862556129575700,1.82457568359375,-1.422271728515625,-8.316360473632812,3.5945892333984375
1663862556139433000,1.834432861328125,-0.8907623291015625,-9.4224853515625,3.9345703125
1663862556149320700,1.84432080078125,-0.40234375,-9.4967041015625,4.6767730712890625
1663862556159208200,1.854208251953125,0.5888671875,-10.052154541015625,4.5642547607421875
1663862556169096000,1.864095947265625,-0.636962890625,-10.9451904296875,3.0391387939453125
1663862556178983700,1.873983642578125,-1.6999969482421875,-10.5740966796875,2.3137054443359375
1663862556188841000,1.883841064453125,-0.282623291015625,-8.960403442382812,3.58502197265625
1663862556198728400,1.893728515625,0.1794586181640625,-7.90216064453125,5.1244964599609375
1663862556208616200,1.9036162109375,-0.3113555908203125,-5.7665252685546875,7.7461395263671875
1663862556218504000,1.91350390625,-0.3903656005859375,-6.2046661376953125,7.626434326171875
1663862556228391700,1.9233916015625,-0.5866851806640625,-8.486343383789062,4.995208740234375
1663862556238248700,1.933248779296875,-1.338470458984375,-9.465576171875,2.7470550537109375
1663862556248136400,1.943136474609375,-0.483734130859375,-8.81195068359375,0.7981719970703125
1663862556258024200,1.953024169921875,-1.000885009765625,-6.6236572265625,-0.233734130859375
1663862556267912000,1.962911865234375,-1.5994415283203125,-4.6149139404296875,1.298553466796875
1663862556277799700,1.972799560546875,-0.5076904296875,-2.8168792724609375,2.5531158447265625
1663862556287687200,1.982687255859375,-2.2530517578125,-2.7689971923828125,3.125335693359375
1663862556297544400,1.99254443359375,-3.9337921142578125,-3.6787872314453125,2.7159271240234375
1663862556307432200,2.00243212890625,-3.27777099609375,-4.33001708984375,3.7861328125
1663862556317320000,2.01231982421875,-5.92816162109375,-5.235015869140625,2.8380279541015625
1663862556327207700,2.022207763671875,-7.4101715087890625,-7.4927520751953125,3.2498321533203125
1663862556337095200,2.03209521484375,6.9095611572265625,-13.540512084960938,2.057525634765625
1663862556346952400,2.041952392578125,4.25677490234375,-13.779922485351562,-0.47076416015625
1663862556356840200,2.051840087890625,-3.9888458251953125,-14.512557983398438,1.7486724853515625
1663862556366728000,2.06172802734375,-7.8171844482421875,-11.845413208007812,2.4836883544921875
1663862556376615400,2.071615478515625,-3.759002685546875,-9.017852783203125,4.30328369140625
1663862556386503200,2.081503173828125,-0.4861297607421875,-5.2110748291015625,4.382293701171875
1663862556396391000,2.091390869140625,-1.54437255859375,-1.4473876953125,4.293701171875
1663862556406248200,2.101248291015625,0.3278961181640625,-1.7179412841796875,2.99365234375
1663862556416135700,2.1111357421875,2.4252166748046875,-2.699554443359375,1.751068115234375
1663862556426023400,2.1210234375,0.675048828125,-0.882354736328125,1.0615386962890625
1663862556435911200,2.1309111328125,1.0533294677734375,2.0122222900390625,1.17645263671875
1663862556445799000,2.140798828125,0.6128082275390625,0.934844970703125,0.462982177734375
1663862556455656000,2.150656005859375,-0.20361328125,-5.974822998046875,-2.03656005859375
1663862556465513200,2.16051318359375,-3.4118499755859375,-34.032470703125,-10.808914184570312
1663862556475370500,2.17037060546875,-2.248260498046875,-55.496490478515625,-11.251846313476562
1663862556485258000,2.180258056640625,-2.3344573974609375,-26.639175415039062,10.937606811523438
1663862556495145700,2.190145751953125,-1.82928466796875,-6.8319549560546875,20.76580810546875
1663862556505064000,2.20006396484375,-0.589080810546875,-12.094406127929688,7.942474365234375
1663862556514951700,2.20995166015625,-1.71435546875,-18.357635498046875,-1.49786376953125
1663862556524809000,2.21980908203125,-1.8939208984375,-16.219619750976562,-2.7715911865234375
1663862556534666000,2.229666015625,-1.391143798828125,-10.973922729492188,-2.769195556640625
1663862556544553700,2.2395537109375,-1.5778961181640625,-5.9365234375,-3.6382904052734375
1663862556554441500,2.24944140625,-1.6377410888671875,-8.064971923828125,-6.3652801513671875
1663862556564298800,2.259298828125,-2.37994384765625,-12.52056884765625,-5.146636962890625
1663862556574217000,2.269217041015625,-1.094268798828125,-12.024978637695312,-1.31829833984375
1663862556584104400,2.2791044921875,-0.3688201904296875,-12.264389038085938,0.0894927978515625
1663862556593961700,2.288961669921875,-0.5938720703125,-13.645843505859375,0.0176544189453125
1663862556603849500,2.298849365234375,-1.0176544189453125,-13.705703735351562,-0.26007080078125
1663862556613737200,2.3087373046875,-1.1134185791015625,-12.764785766601562,-0.4109039306640625
1663862556623624700,2.318624755859375,-0.7854156494140625,-11.86456298828125,-0.65032958984375
1663862556633512400,2.328512451171875,-0.6585235595703125,-11.165451049804688,-1.09564208984375
1663862556643369700,2.33836962890625,-0.450225830078125,-10.246078491210938,-1.988677978515625
1663862556653288000,2.348287841796875,3.45233154296875,-7.3347320556640625,-2.769195556640625
1663862556663175700,2.35817578125,0.9408111572265625,-3.422607421875,-1.1890106201171875
1663862556673063200,2.368063232421875,-2.9042816162109375,-5.1201019287109375,-0.762847900390625
1663862556682951000,2.377950927734375,-2.7510528564453125,-8.562957763671875,-0.339080810546875
1663862556692838700,2.387838623046875,-1.5635223388671875,-9.597259521484375,0.0583648681640625
1663862556702726400,2.397726318359375,-0.948211669921875,-9.693023681640625,0.63775634765625
1663862556712614100,2.4076142578125,-0.8500518798828125,-9.851043701171875,0.5850830078125
1663862556722471200,2.41747119140625,-1.075103759765625,-10.686614990234375,0.0583648681640625
1663862556732359000,2.42735888671875,-1.632965087890625,-10.557327270507812,1.3057403564453125
1663862556742246700,2.43724658203125,-1.79815673828125,-10.17425537109375,2.016815185546875
1663862556752134400,2.447134521484375,-1.7957611083984375,-10.05694580078125,1.8851318359375
1663862556762022000,2.45702197265625,-1.5323944091796875,-10.188629150390625,1.5020599365234375
1663862556771879200,2.466879150390625,-1.3624114990234375,-10.238906860351562,0.9729461669921875
1663862556781767000,2.476766845703125,-0.862030029296875,-10.212570190429688,0.405517578125
1663862556791624200,2.486624267578125,-0.78302001953125,-9.87738037109375,0.199615478515625
1663862556801511700,2.49651171875,-1.0032806396484375,-9.870193481445312,-0.7748260498046875
1663862556811399400,2.5063994140625,-1.5108489990234375,-10.05694580078125,-1.49786376953125
1663862556821287200,2.516287109375,-1.434234619140625,-10.305938720703125,-1.651092529296875
1663862556831175000,2.5261748046875,-1.096649169921875,-10.382553100585938,-1.217742919921875
1663862556841062700,2.536062744140625,-1.0822906494140625,-10.463958740234375,-0.6407470703125
1663862556850950100,2.5459501953125,-1.158905029296875,-9.97314453125,0.0847015380859375
1663862556860838000,2.555837890625,-1.33367919921875,-10.013839721679688,0.2427215576171875
1663862556870725600,2.5657255859375,-1.56591796875,-9.716964721679688,0.5707244873046875
1663862556880583000,2.5755830078125,-1.64971923828125,-9.513458251953125,0.6832427978515625
1663862556890470400,2.585470458984375,-1.8580169677734375,-9.269256591796875,0.6712799072265625
1663862556900358100,2.595358154296875,-2.3703765869140625,-9.240524291992188,0.4653778076171875
1663862556910246000,2.605245849609375,-2.6720428466796875,-9.30755615234375,0.2283477783203125
1663862556920133600,2.615133544921875,-2.45416259765625,-9.331497192382812,0.0799102783203125
1663862556930021400,2.625021484375,-2.446990966796875,-9.379379272460938,-0.12359619140625
1663862556939878400,2.63487841796875,-2.80133056640625,-9.386566162109375,-0.3007659912109375
1663862556949766100,2.64476611328125,-3.0886383056640625,-9.183059692382812,-0.312744140625
1663862556959654000,2.65465380859375,-3.3208770751953125,-8.847869873046875,-0.36541748046875
1663862556969541600,2.664541748046875,-3.1796112060546875,-8.476776123046875,-0.47314453125
1663862556979429000,2.67442919921875,-2.99285888671875,-8.249313354492188,-0.535400390625
1663862556989286400,2.684286376953125,-3.0479278564453125,-8.05059814453125,-0.6646881103515625
1663862556999174100,2.694174072265625,-2.6887969970703125,-7.76568603515625,-0.7436981201171875
1663862557009062000,2.704061767578125,-2.1812286376953125,-7.253326416015625,-0.52581787109375
1663862557018949400,2.713949462890625,-2.109405517578125,-6.9109649658203125,-0.518646240234375
1663862557028837000,2.723837158203125,-2.3440399169921875,-6.8750457763671875,-0.741302490234375
1663862557038694400,2.7336943359375,-2.0327911376953125,-7.0713653564453125,-0.7436981201171875
1663862557048582100,2.74358203125,-1.929840087890625,-7.1432037353515625,-0.3678131103515625
1663862557058470000,2.753469970703125,-2.0974273681640625,-7.162353515625,0.292999267578125
1663862557068357400,2.763357421875,-1.3839569091796875,-7.126434326171875,1.1788482666015625
1663862557078245000,2.7732451171875,-0.8763885498046875,-7.126434326171875,1.8276824951171875
1663862557088132900,2.7831328125,-1.2522735595703125,-7.1503753662109375,2.004852294921875
1663862557097990100,2.792990234375,-2.45416259765625,-7.33233642578125,1.7127532958984375
1663862557107877600,2.802877685546875,-3.6273345947265625,-7.5933074951171875,1.272216796875
1663862557117765400,2.812765380859375,-2.648101806640625,-8.005111694335938,1.1692657470703125
1663862557127653000,2.822653076171875,-1.2307281494140625,-8.428878784179688,1.3440399169921875
1663862557137540900,2.832540771484375,-0.7423095703125,-8.474380493164062,1.5427703857421875
1663862557147398000,2.84239794921875,-1.4581756591796875,-8.222976684570312,1.5164337158203125
1663862557157285600,2.85228564453125,-2.4493865966796875,-7.966796875,1.33447265625
1663862557167173400,2.86217333984375,-3.1628570556640625,-7.758514404296875,0.958587646484375
1663862557177061000,2.87206103515625,-3.471710205078125,-7.5621795654296875,0.4701690673828125
1663862557186948900,2.881948974609375,-2.98089599609375,-7.2653045654296875,0.32171630859375
1663862557196836400,2.89183642578125,-3.3591766357421875,-7.298828125,0.3552398681640625
1663862557206693600,2.901693603515625,-3.7709808349609375,-7.7130126953125,0.3935546875
1663862557216581400,2.911581298828125,-5.4134063720703125,-8.448043823242188,0.400726318359375
1663862557226438400,2.9214384765625,-8.097305297851562,-9.865402221679688,0.4869232177734375
1663862557236326100,2.931326171875,-11.26483154296875,-12.352981567382812,0.4773406982421875
1663862557246214000,2.9412138671875,-13.369338989257812,-15.53009033203125,0.6904296875
1663862557256101600,2.9511015625,-12.37335205078125,-18.35284423828125,1.298553466796875
1663862557265989400,2.9609892578125,-10.70458984375,-19.775009155273438,2.0766754150390625
1663862557275846400,2.970846435546875,-9.952804565429688,-19.6624755859375,2.481292724609375
1663862557285734100,2.980734130859375,-9.04541015625,-19.43023681640625,1.8731689453125
1663862557295622000,2.990621826171875,-7.5370635986328125,-19.4398193359375,0.81732177734375
1663862557305509600,3.000509521484375,-6.177154541015625,-19.458969116210938,-0.425262451171875
1663862557315397400,3.0103974609375,-5.1596221923828125,-18.671279907226562,-1.4571685791015625
1663862557325284900,3.020284912109375,-4.7789459228515625,-17.117446899414062,-1.543365478515625
1663862557335172600,3.030172607421875,-4.5754241943359375,-14.747177124023438,-1.327880859375
1663862557345060400,3.040060302734375,-3.9744873046875,-12.024978637695312,-1.1147918701171875
1663862557354948000,3.049947998046875,-3.452545166015625,-10.011459350585938,-1.0980377197265625
1663862557364805000,3.05980517578125,-4.21868896484375,-9.15911865234375,-2.4076690673828125
1663862557374662400,3.069662353515625,-6.2896728515625,-9.29559326171875,-5.084381103515625
1663862557384550100,3.079550048828125,-7.0294952392578125,-9.95159912109375,-7.25592041015625
1663862557394407200,3.0894072265625,-5.4181976318359375,-9.90850830078125,-6.6238555908203125
1663862557404325400,3.099325439453125,-3.2897491455078125,-8.603668212890625,-4.682159423828125
1663862557414182700,3.1091826171875,-2.121368408203125,-6.81280517578125,-3.805877685546875
1663862557424070400,3.1190703125,-1.635345458984375,-5.41937255859375,-3.8968658447265625
1663862557433958100,3.128958251953125,-1.549163818359375,-4.557464599609375,-4.069244384765625
1663862557443845600,3.138845703125,-1.3767852783203125,-3.89666748046875,-3.74603271484375
1663862557453703000,3.148702880859375,-1.1517181396484375,-3.5255584716796875,-3.075653076171875
1663862557463590700,3.158590576171875,-0.969757080078125,-3.5471038818359375,-2.484283447265625
1663862557473478400,3.168478515625,-1.000885009765625,-3.616546630859375,-1.9647369384765625
1663862557483335400,3.17833544921875,-1.273834228515625,-3.4537353515625,-1.5744781494140625
1663862557493223200,3.18822314453125,-1.61859130859375,-3.195159912109375,-1.471527099609375
1663862557503111000,3.19811083984375,-1.8843536376953125,-2.9030609130859375,-2.0174102783203125
1663862557512998700,3.20799853515625,-1.960968017578125,-2.62054443359375,-2.9511566162109375
1663862557522886100,3.21788623046875,-2.004058837890625,-2.476898193359375,-3.9399566650390625
1663862557532774000,3.22777392578125,-1.9633636474609375,-2.5008392333984375,-4.6438446044921875
1663862557542661600,3.23766162109375,-1.5060577392578125,-2.646881103515625,-4.545684814453125
1663862557552549400,3.24754931640625,-1.010467529296875,-3.0084075927734375,-3.6813812255859375
1663862557562437000,3.25743701171875,-1.3863525390625,-3.659637451171875,-2.5824432373046875
1663862557572294100,3.267294189453125,-2.911468505859375,-4.842376708984375,-1.629547119140625
1663862557582182000,3.277181884765625,-4.2522125244140625,-6.745758056640625,-0.9711456298828125
1663862557592069600,3.287069580078125,-4.6113433837890625,-9.020248413085938,-0.0613555908203125
1663862557601927000,3.296927001953125,-3.96490478515625,-11.148696899414062,1.6433258056640625
1663862557611814400,3.306814453125,-3.102996826171875,-13.353759765625,3.496429443359375
1663862557621702100,3.3167021484375,-3.1317291259765625,-15.199691772460938,4.4445343017578125
1663862557631590000,3.32658984375,-3.0311737060546875,-15.111099243164062,4.1692047119140625
1663862557641477600,3.3364775390625,-3.3543853759765625,-13.1861572265625,2.71832275390625
1663862557651334700,3.346334716796875,-2.880340576171875,-10.305938720703125,0.611419677734375
1663862557661222400,3.356222412109375,-1.982513427734375,-8.325927734375,-1.42364501953125
1663862557671110100,3.366110107421875,-1.7478790283203125,-7.8087921142578125,-2.8721466064453125
1663862557680998000,3.375997802734375,-2.6002197265625,-7.875823974609375,-3.657440185546875
1663862557690885600,3.3858857421875,-4.1851806640625,-7.9979248046875,-3.6502532958984375
1663862557700773000,3.395773193359375,-5.9066009521484375,-8.285232543945312,-2.9367828369140625
1663862557710630400,3.40563037109375,-7.034271240234375,-8.797592163085938,-2.06768798828125
1663862557720518100,3.41551806640625,-6.7182464599609375,-9.302764892578125,-1.550537109375
1663862557730406000,3.425406005859375,-5.7006988525390625,-9.226150512695312,-1.09564208984375
1663862557740293400,3.43529345703125,-4.8603363037109375,-8.66351318359375,-0.535400390625
1663862557750150700,3.445150634765625,-4.228271484375,-8.258895874023438,-0.29119873046875
1663862557760038400,3.455038330078125,-3.510009765625,-8.122421264648438,-0.461181640625
1663862557769926100,3.464926025390625,-2.3344573974609375,-8.249313354492188,-0.963958740234375
1663862557779814000,3.47481396484375,-1.422271728515625,-8.390579223632812,-1.1674652099609375
1663862557789701400,3.484701416015625,-1.168487548828125,-8.622817993164062,-1.0238189697265625
1663862557799589000,3.494589111328125,-1.2570648193359375,-8.8837890625,-0.5018768310546875
1663862557809476900,3.504476806640625,-1.4198760986328125,-9.187850952148438,0.357635498046875
1663862557819364600,3.514364501953125,-1.9753265380859375,-9.6571044921875,1.023223876953125
1663862557829252400,3.52425244140625,-3.2274932861328125,-10.684219360351562,1.360809326171875
1663862557839139800,3.534139892578125,-5.664794921875,-12.606765747070312,1.5499420166015625
1663862557849027600,3.544027587890625,-8.884994506835938,-14.514938354492188,1.4422149658203125
1663862557858884900,3.553884765625,-11.362991333007812,-15.85809326171875,0.8987274169921875
1663862557868742000,3.563741943359375,-11.0325927734375,-17.059982299804688,0.917877197265625
1663862557878629600,3.573629638671875,-9.090896606445312,-17.395172119140625,2.4884796142578125
1663862557888517400,3.583517333984375,-6.1747589111328125,-16.403976440429688,4.9042205810546875
1663862557898405000,3.593405029296875,-2.911468505859375,-14.953079223632812,5.3950347900390625
1663862557908262100,3.60326220703125,-0.636962890625,-13.401641845703125,1.286590576171875
1663862557918150000,3.61314990234375,-1.2618560791015625,-11.349807739257812,-2.939178466796875
1663862557928037600,3.62303759765625,-1.9705352783203125,-10.08807373046875,-3.868133544921875
1663862557937925400,3.63292529296875,-2.12615966796875,-12.568466186523438,-3.224090576171875
1663862557947813000,3.642813232421875,-6.61529541015625,-18.664093017578125,-1.4619598388671875
1663862557957670100,3.652670166015625,-11.801132202148438,-22.839584350585938,2.1700439453125
1663862557967558000,3.662557861328125,-4.86273193359375,-19.516433715820312,6.379058837890625
1663862557977415200,3.672415283203125,6.1194610595703125,-11.531768798828125,6.2569427490234375
1663862557987302700,3.682302734375,3.6821746826171875,-9.673873901367188,0.6593017578125
1663862557997190400,3.6921904296875,-0.67767333984375,-10.794357299804688,-1.0405731201171875
1663862558007078100,3.702078125,2.422821044921875,-11.519805908203125,0.822113037109375
1663862558016966000,3.7119658203125,3.797088623046875,-11.249252319335938,2.871551513671875
1663862558026853600,3.721853515625,1.4364013671875,-11.088836669921875,3.3863067626953125
1663862558036741400,3.731741455078125,0.172271728515625,-11.574859619140625,2.905059814453125
1663862558046628900,3.74162890625,0.1531219482421875,-12.120742797851562,2.4046783447265625
1663862558056486100,3.751486083984375,-0.1485595703125,-12.182998657226562,1.82049560546875
1663862558066374000,3.761373779296875,-0.3544464111328125,-11.617965698242188,0.812530517578125
1663862558076261600,3.77126171875,-0.8117523193359375,-10.86138916015625,-0.61920166015625
1663862558086118700,3.78111865234375,-1.6257781982421875,-10.31072998046875,-2.1706390380859375
1663862558096036900,3.791036865234375,-2.5044403076171875,-9.999481201171875,-3.12353515625
1663862558105924600,3.800924560546875,-3.17242431640625,-9.7816162109375,-3.592803955078125
1663862558115812400,3.810812255859375,-3.4381866455078125,-9.300369262695312,-3.5975799560546875
1663862558125700000,3.8207001953125,-3.387908935546875,-8.658721923828125,-3.38690185546875
1663862558135557000,3.83055712890625,-3.5554962158203125,-8.026657104492188,-2.9200286865234375
1663862558145444900,3.84044482421875,-3.811676025390625,-7.634002685546875,-2.3190765380859375
1663862558155363000,3.850363037109375,-3.694366455078125,-7.3658599853515625,-1.5816650390625
1663862558165250800,3.860250732421875,-3.684783935546875,-7.14080810546875,-0.54498291015625
1663862558175138600,3.870138671875,-4.254608154296875,-7.0067291259765625,0.685638427734375
1663862558185026000,3.880026123046875,-5.121307373046875,-7.1192626953125,1.7438812255859375
1663862558194913800,3.889913818359375,-5.8204193115234375,-7.3921966552734375,2.723114013671875
1663862558204771000,3.89977099609375,-6.009552001953125,-7.705841064453125,3.695159912109375
1663862558214628000,3.909628173828125,-5.3655242919921875,-8.024261474609375,4.3367919921875
1663862558224515800,3.919515869140625,-4.5419158935546875,-8.182281494140625,4.2122955322265625
1663862558234373000,3.929373046875,-4.0080108642578125,-7.8878021240234375,3.4605255126953125
1663862558244291300,3.939291259765625,-3.715911865234375,-7.114471435546875,2.2155303955078125
1663862558254148400,3.9491484375,-2.54754638671875,-6.0346832275390625,1.054351806640625
1663862558264066800,3.95906689453125,-0.969757080078125,-5.0147552490234375,0.367218017578125
1663862558273923800,3.968923828125,-1.4246673583984375,-4.23663330078125,-0.1427459716796875
1663862558283781000,3.978781005859375,-2.099822998046875,-3.8631439208984375,-0.535400390625
1663862558293668900,3.9886689453125,-0.70880126953125,-3.8583526611328125,-0.518646240234375
1663862558303556400,3.998556396484375,2.054107666015625,-4.136077880859375,-0.1451416015625
1663862558313444000,4.008444091796875,1.9822845458984375,-4.8088531494140625,-0.0781097412109375
1663862558323331800,4.018331787109375,-0.4693756103515625,-5.7401885986328125,-0.2073974609375
1663862558333219600,4.028219482421875,-2.0854644775390625,-6.93011474609375,-0.339080810546875
1663862558343076600,4.03807666015625,-2.174041748046875,-8.256500244140625,-0.37738037109375
1663862558352994800,4.047994873046875,-2.2961578369140625,-9.494308471679688,-0.212188720703125
1663862558362882600,4.057882568359375,-3.435791015625,-10.770416259765625,0.0894927978515625
1663862558372770300,4.067770263671875,-4.771759033203125,-11.823867797851562,0.45819091796875
1663862558382658000,4.077657958984375,-5.14764404296875,-12.331436157226562,0.4869232177734375
1663862558392515000,4.08751513671875,-5.8946380615234375,-12.04412841796875,-0.11163330078125
1663862558402402800,4.09740283203125,-8.75091552734375,-11.086441040039062,-0.9759368896484375
1663862558412260000,4.107260009765625,-10.532211303710938,-10.66986083984375,-2.2185211181640625
1663862558422178300,4.11717822265625,-11.731704711914062,-11.766403198242188,-4.0931854248046875
1663862558432066000,4.127066162109375,-12.160263061523438,-13.832595825195312,-5.833770751953125
1663862558441953500,4.13695361328125,-11.300750732421875,-15.659378051757812,-5.8313751220703125
1663862558451841300,4.14684130859375,-11.137939453125,-17.292221069335938,-3.5712432861328125
1663862558461698600,4.156698486328125,-9.790008544921875,-19.82049560546875,-1.8953094482421875
1663862558471555600,4.1665556640625,-8.23138427734375,-21.757400512695312,-1.2249298095703125
1663862558481443300,4.176443359375,-7.4891815185546875,-22.34637451171875,-1.105224609375
1663862558491331000,4.1863310546875,-7.70465087890625,-21.379119873046875,-1.4787139892578125
1663862558501218800,4.19621875,-7.9129486083984375,-19.224334716796875,-0.4539947509765625
1663862558511106600,4.2061064453125,-6.6440277099609375,-16.253143310546875,1.1620941162109375
1663862558520994300,4.215994384765625,-4.8004913330078125,-12.673797607421875,2.0838623046875
1663862558530851300,4.225851318359375,-3.979278564453125,-8.91729736328125,1.150115966796875
1663862558540739000,4.235739013671875,-4.5754241943359375,-5.6587982177734375,-0.6287689208984375
1663862558550626800,4.245626708984375,-5.7629547119140625,-4.25579833984375,-2.6590576171875
1663862558560514600,4.2555146484375,-5.8563232421875,-4.6244964599609375,-4.0189666748046875
1663862558570371600,4.26537158203125,-4.6113433837890625,-5.31402587890625,-4.58160400390625
1663862558580259300,4.27525927734375,-3.684783935546875,-5.3236083984375,-4.3996429443359375
1663862558590147000,4.28514697265625,-3.138916015625,-4.7561798095703125,-4.069244384765625
1663862558600034800,4.295034912109375,-2.521209716796875,-4.1432647705078125,-3.719696044921875
1663862558609922300,4.30492236328125,-1.9633636474609375,-3.755401611328125,-3.118743896484375
1663862558619810000,4.31481005859375,-1.5347900390625,-3.53753662109375,-2.2400665283203125
1663862558629667300,4.324667236328125,-1.355224609375,-3.3507843017578125,-1.2728118896484375
1663862558639555000,4.33455517578125,-1.5467681884765625,-3.2238922119140625,-0.456390380859375
1663862558649442600,4.344442626953125,-1.79815673828125,-2.9126434326171875,0.2259521484375
1663862558659330300,4.354330322265625,-1.960968017578125,-2.53436279296875,0.62579345703125
1663862558669187600,4.3641875,-1.9585723876953125,-2.3164825439453125,0.56353759765625
1663862558679075300,4.374075439453125,-1.8005523681640625,-2.1536865234375,-0.04937744140625
1663862558688962800,4.383962890625,-1.422271728515625,-2.043548583984375,-0.82989501953125
1663862558698850600,4.3938505859375,-1.2379150390625,-2.1728363037109375,-1.5673065185546875
1663862558708707800,4.403707763671875,-1.3719940185546875,-2.53436279296875,-2.09881591796875
1663862558718626000,4.4136259765625,-1.479736328125,-3.0634765625,-2.2568359375
1663862558728483000,4.423483154296875,-2.1788330078125,-3.829620361328125,-1.9336090087890625
1663862558738370800,4.433370849609375,-3.3208770751953125,-5.1129150390625,-1.385345458984375
1663862558748289000,4.4432890625,-4.2833404541015625,-6.8487091064453125,-0.66229248046875
1663862558758146300,4.453146240234375,-4.8747100830078125,-8.878997802734375,-0.106842041015625
1663862558768003600,4.463003662109375,-5.0135650634765625,-10.789566040039062,0.30975341796875
1663862558777891000,4.47289111328125,-5.169189453125,-12.027374267578125,0.621002197265625
1663862558787809300,4.482809326171875,-5.025543212890625,-12.376922607421875,1.0040740966796875
1663862558797697000,4.492697021484375,-4.7669677734375,-12.089614868164062,1.5260009765625
1663862558807584800,4.502584716796875,-4.678375244140625,-11.165451049804688,1.6026153564453125
1663862558817472500,4.512472412109375,-4.6376800537109375,-9.640350341796875,1.3153228759765625
1663862558827360300,4.5223603515625,-4.376708984375,-8.057785034179688,0.2451019287109375
1663862558837247700,4.532247802734375,-3.60577392578125,-6.96124267578125,-1.512237548828125
1663862558847105000,4.54210498046875,-3.282562255859375,-6.34832763671875,-2.536956787109375
1663862558856962300,4.55196240234375,-3.6488800048828125,-6.163970947265625,-2.960723876953125
1663862558866819300,4.5618193359375,-4.5371246337890625,-6.31719970703125,-2.8817138671875
1663862558876737500,4.571737548828125,-5.521148681640625,-6.7385711669921875,-2.4459686279296875
1663862558886625300,4.581625244140625,-6.234619140625,-7.30120849609375,-1.9695281982421875
1663862558896513000,4.591512939453125,-6.29925537109375,-7.8423004150390625,-1.9862823486328125
1663862558906400800,4.60140087890625,-5.5307159423828125,-8.167922973632812,-2.5225830078125
1663862558916288300,4.611288330078125,-4.2713623046875,-8.206222534179688,-2.912841796875
1663862558926176000,4.621176025390625,-3.5866241455078125,-8.258895874023438,-3.42041015625
1663862558936063700,4.631063720703125,-3.943359375,-8.433670043945312,-3.8106689453125
1663862558945951500,4.640951416015625,-4.3336181640625,-9.542190551757812,-3.9926300048828125
1663862558955839200,4.650839111328125,-5.8994293212890625,-12.70013427734375,-3.647857666015625
1663862558965696300,4.6606962890625,-9.222579956054688,-16.557205200195312,-2.2496490478515625
1663862558975584000,4.670583984375,-11.362991333007812,-19.731918334960938,-0.16668701171875
1663862558985471700,4.6804716796875,-8.140396118164062,-21.4581298828125,1.990478515625
1663862558995359500,4.690359375,-4.2689666748046875,-20.91943359375,3.146881103515625
1663862559005247200,4.700247314453125,-3.0000457763671875,-18.831695556640625,4.4373626708984375
1663862559015104300,4.710104248046875,-2.4038848876953125,-17.18927001953125,4.35595703125
1663862559024992000,4.719991943359375,-4.4198150634765625,-17.00970458984375,0.6976165771484375
1663862559034879700,4.729879638671875,-10.094070434570312,-17.687255859375,-3.8441925048828125
1663862559044767500,4.739767578125,-12.449966430664062,-17.483749389648438,-4.41400146484375
1663862559054655000,4.749655029296875,-2.193206787109375,-14.203704833984375,-0.3941497802734375
1663862559064512300,4.75951220703125,7.27825927734375,-10.600418090820312,1.298553466796875
1663862559074400000,4.76939990234375,2.2767791748046875,-8.53662109375,0.5755157470703125
1663862559084257000,4.779257080078125,-2.2339019775390625,-9.0322265625,-0.9065093994140625
1663862559094144800,4.789144775390625,0.9575653076171875,-12.020187377929688,-0.679046630859375
1663862559104002000,4.799001953125,1.2472686767578125,-14.73760986328125,1.308135986328125
1663862559113920300,4.808920166015625,-1.0391998291015625,-15.606704711914062,2.5219879150390625
1663862559123808000,4.81880810546875,-2.3033294677734375,-15.087158203125,2.47650146484375
1663862559133665000,4.8286650390625,-3.63690185546875,-13.775131225585938,2.069488525390625
1663862559143552800,4.838552734375,-4.9776611328125,-12.472686767578125,2.8116912841796875
1663862559153440500,4.8484404296875,-5.7725372314453125,-12.2332763671875,3.570648193359375
1663862559163328300,4.858328369140625,-4.872314453125,-12.312286376953125,3.6209259033203125
1663862559173185300,4.868185302734375,-3.720703125,-12.230880737304688,2.8332366943359375
1663862559183073000,4.878072998046875,-4.465301513671875,-11.79034423828125,1.0088653564453125
1663862559192960800,4.887960693359375,-5.6193084716796875,-10.60760498046875,-0.6431427001953125
1663862559202848500,4.8978486328125,-4.972869873046875,-9.175872802734375,-1.6367340087890625
1663862559212736000,4.907736083984375,-3.737457275390625,-7.950042724609375,-2.0317840576171875
1663862559222623700,4.917623779296875,-3.16046142578125,-7.009124755859375,-1.9958648681640625
1663862559232511500,4.927511474609375,-2.997650146484375,-6.693084716796875,-2.156280517578125
1663862559242399200,4.937399169921875,-3.462127685546875,-6.8846282958984375,-2.5872344970703125
1663862559252256500,4.947256591796875,-3.8882904052734375,-7.241363525390625,-2.716522216796875
1663862559262113500,4.957113525390625,-4.10137939453125,-7.696258544921875,-2.2664031982421875
1663862559272031700,4.96703173828125,-4.3838958740234375,-8.213409423828125,-1.3949127197265625
1663862559281919500,4.97691943359375,-4.613739013671875,-8.603668212890625,-0.51385498046875
1663862559291776800,4.98677685546875,-5.01116943359375,-8.68505859375,0.1014556884765625
1663862559301664300,4.996664306640625,-5.7366180419921875,-8.373825073242188,0.3336944580078125
1663862559311552000,5.006552001953125,-5.765350341796875,-7.8878021240234375,0.2379302978515625
1663862559321439700,5.016439697265625,-5.4038238525390625,-7.51190185546875,-0.075714111328125
1663862559331327500,5.026327392578125,-5.542694091796875,-7.14080810546875,-0.319915771484375
1663862559341215200,5.03621533203125,-4.929779052734375,-6.81280517578125,-0.276824951171875
1663862559351102700,5.046102783203125,-4.1732025146484375,-6.5518341064453125,-0.013458251953125
1663862559360990500,5.055990478515625,-4.05828857421875,-6.417755126953125,0.1277923583984375
1663862559370878200,5.065878173828125,-3.96490478515625,-6.3100128173828125,0.4557952880859375
1663862559380766000,5.075765869140625,-3.177215576171875,-6.1136932373046875,1.193206787109375
1663862559390653700,5.08565380859375,-2.0926513671875,-6.0035552978515625,1.7989501953125
1663862559400510700,5.0955107421875,-2.1956024169921875,-6.1567840576171875,1.9617462158203125
1663862559410368000,5.105367919921875,-3.1532745361328125,-6.575775146484375,1.8971099853515625
1663862559420255700,5.115255859375,-3.45733642578125,-7.14080810546875,1.973724365234375
1663862559430112800,5.12511279296875,-3.524383544921875,-7.748931884765625,2.0455474853515625
1663862559440000500,5.13500048828125,-3.5028228759765625,-8.342697143554688,2.04315185546875
1663862559449888300,5.14488818359375,-3.2562255859375,-8.744918823242188,1.815704345703125
1663862559459776000,5.15477587890625,-3.028778076171875,-8.708999633789062,1.33447265625
1663862559469663500,5.16466357421875,-2.700775146484375,-8.160736083984375,0.87957763671875
1663862559479551200,5.17455126953125,-2.3081207275390625,-7.25811767578125,0.527618408203125
1663862559489439000,5.18443896484375,-2.997650146484375,-6.544647216796875,0.12060546875
1663862559499296300,5.194296142578125,-4.5275421142578125,-6.365081787109375,-0.403717041015625
1663862559509184000,5.20418408203125,-5.7270355224609375,-6.60211181640625,-0.7149658203125
1663862559519071500,5.214071533203125,-6.0861663818359375,-7.2174224853515625,-0.762847900390625
1663862559528959200,5.223959228515625,-5.887451171875,-8.024261474609375,-0.803558349609375
1663862559538847000,5.233846923828125,-5.664794921875,-8.582107543945312,-0.8801727294921875
1663862559548704300,5.243704345703125,-6.4812164306640625,-8.84307861328125,-0.803558349609375
1663862559558591700,5.253591796875,-7.2904510498046875,-9.309951782226562,-0.683837890625
1663862559568479500,5.2634794921875,-8.703033447265625,-10.246078491210938,-0.5760955810546875
1663862559578367200,5.2733671875,-11.461151123046875,-11.792739868164062,-0.2959747314453125
1663862559588224500,5.283224609375,-13.101181030273438,-14.036102294921875,-0.1571197509765625
1663862559598112000,5.293112060546875,-12.337432861328125,-16.676910400390625,-0.614410400390625
1663862559607999700,5.302999755859375,-10.860214233398438,-18.695220947265625,-1.038177490234375
1663862559617857000,5.31285693359375,-9.25848388671875,-19.372787475585938,-0.88494873046875
1663862559627744800,5.322744873046875,-7.740570068359375,-19.470947265625,-1.205780029296875
1663862559637632300,5.33263232421875,-5.882659912109375,-19.413482666015625,-2.5201873779296875
1663862559647520000,5.34252001953125,-3.7135162353515625,-18.846054077148438,-3.7651824951171875
1663862559657407700,5.35240771484375,-2.2027740478515625,-17.524459838867188,-3.8513641357421875
1663862559667295500,5.36229541015625,-1.51324462890625,-15.384033203125,-3.3629608154296875
1663862559677183200,5.372183349609375,-3.229888916015625,-12.187774658203125,-3.17620849609375
1663862559687040300,5.382040283203125,-6.2657318115234375,-8.754501342773438,-2.9152374267578125
1663862559696958500,5.39195849609375,-6.5721893310546875,-7.1024932861328125,-2.57525634765625
1663862559706815700,5.401815673828125,-5.8323822021484375,-6.9540557861328125,-1.6846160888671875
1663862559716734000,5.41173388671875,-5.8323822021484375,-6.9899749755859375,-1.629547119140625
1663862559726591200,5.42159130859375,-5.628875732421875,-6.693084716796875,-2.304718017578125
1663862559736478700,5.431478759765625,-4.7071075439453125,-5.874267578125,-2.8529815673828125
1663862559746366500,5.441366455078125,-3.747039794921875,-4.9932098388671875,-3.106781005859375
1663862559756223700,5.4512236328125,-3.3687591552734375,-4.2821197509765625,-2.93438720703125
1663862559766142000,5.461141845703125,-3.514801025390625,-3.7530059814453125,-2.781158447265625
1663862559776029700,5.47102978515625,-3.6823883056640625,-3.41302490234375,-2.7979278564453125
1663862559785917200,5.480917236328125,-3.347198486328125,-3.1376953125,-2.570465087890625
1663862559795805000,5.490804931640625,-2.700775146484375,-2.898284912109375,-2.0652923583984375
1663862559805692700,5.500692626953125,-2.1237640380859375,-2.393096923828125,-1.5673065185546875
1663862559815580400,5.510580322265625,-1.8053436279296875,-1.6700592041015625,-1.3733673095703125
1663862559825437400,5.5204375,-1.8651885986328125,-0.891937255859375,-1.4404144287109375
1663862559835294700,5.530294677734375,-1.8651885986328125,-0.3340911865234375,-1.68701171875
1663862559845152000,5.540152099609375,-1.6377410888671875,-0.214385986328125,-2.2664031982421875
1663862559855039500,5.55003955078125,-1.850830078125,-0.73870849609375,-2.9846649169921875
1663862559864957700,5.559957763671875,-2.5044403076171875,-1.5838623046875,-3.1642303466796875
1663862559874845400,5.569845458984375,-3.20355224609375,-2.6588592529296875,-2.570465087890625
1663862559884702700,5.57970263671875,-3.9146270751953125,-3.90863037109375,-1.744476318359375
1663862559894559700,5.589559814453125,-4.170806884765625,-5.5007781982421875,-1.100433349609375
1663862559904478000,5.59947802734375,-4.1157379150390625,-7.231781005859375,-0.137969970703125
1663862559914335200,5.609335205078125,-3.9768829345703125,-8.75927734375,0.834075927734375
1663862559924253400,5.61925341796875,-3.7350616455078125,-9.88934326171875,1.5547332763671875
1663862559934141200,5.62914111328125,-3.59381103515625,-10.7225341796875,1.794158935546875
1663862559944029000,5.63902880859375,-3.6967620849609375,-11.390518188476562,1.6696624755859375
1663862559953886000,5.648885986328125,-3.6153564453125,-11.7376708984375,1.317718505859375
1663862559963773700,5.658773681640625,-3.028778076171875,-11.787948608398438,0.8388671875
1663862559973661400,5.668661376953125,-2.45416259765625,-11.412063598632812,0.0655364990234375
1663862559983518700,5.678518798828125,-2.1788330078125,-10.519027709960938,-0.7532806396484375
1663862559993375700,5.688375732421875,-2.490081787109375,-9.3602294921875,-1.6439208984375
1663862560003294000,5.6982939453125,-3.2705841064453125,-8.36663818359375,-2.3023223876953125
1663862560013151200,5.708151123046875,-4.1229248046875,-7.8830108642578125,-2.8458099365234375
1663862560023069400,5.7180693359375,-4.8866729736328125,-7.780059814453125,-3.3150634765625
1663862560032926500,5.727926513671875,-5.521148681640625,-8.031448364257812,-3.6765899658203125
1663862560042814200,5.737814208984375,-5.966461181640625,-8.342697143554688,-3.657440185546875
1663862560052702000,5.747701904296875,-5.739013671875,-8.862228393554688,-3.6598358154296875
1663862560062589700,5.757589599609375,-5.056671142578125,-9.192642211914062,-3.5257568359375
1663862560072446700,5.76744677734375,-4.36474609375,-9.192642211914062,-3.11395263671875
1663862560082365000,5.777364990234375,-4.1947479248046875,-9.209396362304688,-2.8817138671875
1663862560092222200,5.78722216796875,-4.079833984375,-9.11602783203125,-2.6925811767578125
1663862560102110000,5.79710986328125,-3.3855133056640625,-8.670700073242188,-2.2879638671875
1663862560111997700,5.806997802734375,-2.5714874267578125,-8.457611083984375,-1.756439208984375
1663862560121885200,5.81688525390625,-1.328887939453125,-8.653945922851562,-1.165069580078125
1663862560131773000,5.82677294921875,-1.1636962890625,-9.678665161132812,-0.561737060546875
1663862560141660700,5.83666064453125,-4.233062744140625,-12.082443237304688,-0.592864990234375
1663862560151548400,5.84654833984375,-9.552978515625,-14.921966552734375,-0.8801727294921875
1663862560161436200,5.856436279296875,-13.627914428710938,-18.084701538085938,-2.23529052734375
1663862560171323600,5.86632373046875,-12.378128051757812,-20.275390625,-2.2257080078125
1663862560181211400,5.87621142578125,-8.061386108398438,-20.634521484375,-0.4013214111328125
1663862560191068700,5.886068603515625,-3.905059814453125,-19.372787475585938,2.4836883544921875
1663862560200956400,5.895956298828125,-4.1420745849609375,-18.1708984375,3.9345703125
1663862560210844200,5.90584423828125,-8.171524047851562,-17.8548583984375,0.7550811767578125
1663862560220731600,5.915731689453125,-8.595291137695312,-17.342498779296875,-5.0963592529296875
1663862560230619400,5.925619384765625,-6.8978118896484375,-14.1031494140625,-5.9534759521484375
1663862560240507100,5.935507080078125,-0.5795135498046875,-9.848648071289062,-1.8809356689453125
1663862560250364400,5.945364501953125,5.054046630859375,-7.1862945556640625,1.858795166015625
1663862560260252000,5.955251953125,2.2911376953125,-6.290863037109375,3.1540679931640625
1663862560270139600,5.9651396484375,-2.245880126953125,-7.665130615234375,2.691986083984375
1663862560280027400,5.97502734375,-1.6784515380859375,-11.131942749023438,2.577056884765625
1663862560289884700,5.984884765625,-0.9458160400390625,-14.01934814453125,4.193145751953125
1663862560299772200,5.994772216796875,-2.4445953369140625,-15.00335693359375,5.3782806396484375
1663862560309660000,6.004659912109375,-3.84759521484375,-15.67852783203125,4.456512451171875
1663862560319547600,6.014547607421875,-4.29052734375,-15.475021362304688,3.0798492431640625
1663862560329435400,6.024435302734375,-4.3000946044921875,-13.562057495117188,3.4820709228515625
1663862560339323100,6.0343232421875,-3.572265625,-11.541351318359375,3.443756103515625
1663862560349210600,6.044210693359375,-3.4286041259765625,-10.5740966796875,1.5499420166015625
1663862560359098400,6.054098388671875,-4.043914794921875,-9.704986572265625,-0.2480926513671875
1663862560368955600,6.06395556640625,-3.5746612548828125,-8.670700073242188,-0.9352264404296875
1663862560378843400,6.073843505859375,-2.9904632568359375,-7.9476470947265625,-1.3829498291015625
1663862560388731000,6.08373095703125,-2.7606201171875,-7.6196441650390625,-1.897705078125
1663862560398618600,6.09361865234375,-2.9162445068359375,-7.4400787353515625,-2.3932952880859375
1663862560408476000,6.103475830078125,-3.4788818359375,-7.3706512451171875,-2.716522216796875
1663862560418363600,6.11336376953125,-4.075042724609375,-7.346710205078125,-2.6973724365234375
1663862560428251100,6.123251220703125,-3.7709808349609375,-7.4281158447265625,-2.4292144775390625
1663862560438139000,6.133138916015625,-2.806121826171875,-7.4831695556640625,-2.2376708984375
1663862560448026600,6.143026611328125,-3.8380126953125,-7.3921966552734375,-1.830657958984375
1663862560457914400,6.152914306640625,-5.449310302734375,-7.5813446044921875,-1.4332275390625
1663862560467771600,6.162771728515625,-5.3918609619140625,-7.7297821044921875,-1.078887939453125
1663862560477628700,6.172628662109375,-4.604156494140625,-7.4664154052734375,-0.477935791015625
1663862560487486000,6.18248583984375,-3.715911865234375,-7.0809478759765625,0.0966644287109375
1663862560497404200,6.192404052734375,-3.38311767578125,-6.67633056640625,0.546783447265625
1663862560507261200,6.20226123046875,-3.0359649658203125,-6.333953857421875,0.834075927734375
1663862560517179400,6.212179443359375,-2.77020263671875,-6.1160888671875,0.9298553466796875
1663862560527036700,6.22203662109375,-3.4597320556640625,-5.941314697265625,0.405517578125
1663862560536924400,6.23192431640625,-3.931396484375,-5.9077911376953125,-0.1259918212890625
1663862560546812200,6.241812255859375,-2.774993896484375,-6.2310028076171875,0.06793212890625
1663862560556699600,6.25169970703125,-1.453399658203125,-6.58056640625,0.5850830078125
1663862560566557000,6.261556884765625,-1.4366302490234375,-6.8175811767578125,0.8771820068359375
1663862560576444700,6.271444580078125,-2.2554473876953125,-6.8965911865234375,0.779022216796875
1663862560586301700,6.2813017578125,-2.63372802734375,-6.839141845703125,0.484527587890625
1663862560596220000,6.291219970703125,-3.335235595703125,-7.030670166015625,-0.0517730712890625
1663862560606107600,6.301107666015625,-4.9441375732421875,-7.7297821044921875,-0.7029876708984375
1663862560615995400,6.310995361328125,-5.269744873046875,-8.584503173828125,-1.0070648193359375
1663862560625883100,6.320883056640625,-4.02716064453125,-9.374588012695312,-1.057342529296875
1663862560635771000,6.33077099609375,-4.5562744140625,-9.8677978515625,-0.91607666015625
1663862560645658400,6.340658447265625,-5.5977630615234375,-10.107223510742188,-0.7006072998046875
1663862560655546000,6.350546142578125,-7.393402099609375,-10.461563110351562,-0.688629150390625
1663862560665433900,6.360433837890625,-10.386154174804688,-11.096023559570312,-0.351043701171875
1663862560675321600,6.370321533203125,-12.80670166015625,-12.46551513671875,-0.276824951171875
1663862560685178600,6.3801787109375,-13.022171020507812,-14.888442993164062,-0.94720458984375
1663862560695066400,6.39006640625,-11.619171142578125,-17.543609619140625,-1.4835052490234375
1663862560704954000,6.3999541015625,-10.23052978515625,-19.123779296875,-1.004669189453125
1663862560714841900,6.409841796875,-8.734161376953125,-19.262649536132812,-0.0733184814453125
1663862560724729600,6.4197294921875,-6.7733154296875,-18.913101196289062,0.0583648681640625
1663862560734586600,6.429586669921875,-4.824432373046875,-18.632965087890625,-1.0190277099609375
1663862560744474400,6.439474365234375,-3.41424560546875,-18.048782348632812,-2.3980865478515625
1663862560754362000,6.449362060546875,-2.6097869873046875,-16.698455810546875,-3.18817138671875
1663862560764249900,6.459249755859375,-1.9849090576171875,-14.045684814453125,-2.9894561767578125
1663862560774137600,6.4691376953125,-2.499664306640625,-10.32269287109375,-2.2328948974609375
1663862560784025000,6.479025146484375,-4.369537353515625,-6.37945556640625,-1.2153472900390625
1663862560793882400,6.48888232421875,-5.54986572265625,-4.124114990234375,-1.1674652099609375
1663862560803739600,6.49873974609375,-5.3080596923828125,-4.5143585205078125,-1.8378448486328125
1663862560813627100,6.508627197265625,-3.69915771484375,-5.402618408203125,-2.0748748779296875
1663862560823515000,6.518514892578125,-3.4286041259765625,-5.8503265380859375,-2.7452545166015625
1663862560833402600,6.528402587890625,-4.3838958740234375,-6.0993194580078125,-3.9399566650390625
1663862560843290400,6.538290283203125,-4.41741943359375,-5.699493408203125,-4.133880615234375
1663862560853147400,6.5481474609375,-3.557891845703125,-4.981231689453125,-3.403656005859375
1663862560863035100,6.55803515625,-3.1197509765625,-4.3539581298828125,-2.8194732666015625
1663862560872923000,6.5679228515625,-2.9952545166015625,-3.764984130859375,-2.3861236572265625
1663862560882810600,6.577810546875,-2.9162445068359375,-3.32684326171875,-1.902496337890625
1663862560892667600,6.587667724609375,-2.69598388671875,-3.0491180419921875,-1.34942626953125
1663862560902555400,6.597555419921875,-2.643310546875,-2.857574462890625,-0.8227081298828125
1663862560912443100,6.607443115234375,-2.7725982666015625,-2.6851959228515625,-0.456390380859375
1663862560922300400,6.617300537109375,-2.679229736328125,-2.46014404296875,-0.403717041015625
1663862560932188000,6.62718798828125,-2.279388427734375,-2.359588623046875,-0.8610076904296875
1663862560942106400,6.6371064453125,-2.21954345703125,-2.603790283203125,-1.6678619384765625
1663862560951963400,6.64696337890625,-2.6313323974609375,-3.099395751953125,-2.611175537109375
1663862560961820700,6.656820556640625,-2.573883056640625,-3.585418701171875,-3.5712432861328125
1663862560971739000,6.66673876953125,-2.5451507568359375,-4.0379180908203125,-3.827423095703125
1663862560981626600,6.676626708984375,-3.45733642578125,-4.897430419921875,-3.0038299560546875
1663862560991514000,6.68651416015625,-4.5443115234375,-6.269317626953125,-1.9695281982421875
1663862561001401900,6.69640185546875,-4.9752655029296875,-7.9237060546875,-1.1818389892578125
1663862561011259100,6.706259033203125,-4.92498779296875,-9.72894287109375,-0.149932861328125
1663862561021147000,6.71614697265625,-5.1237030029296875,-11.668243408203125,1.4398193359375
1663862561031034400,6.726034423828125,-5.1715850830078125,-13.741622924804688,3.0870208740234375
1663862561040922000,6.735922119140625,-4.4940338134765625,-14.309051513671875,4.0806121826171875
1663862561050809900,6.745809814453125,-4.338409423828125,-12.865341186523438,3.6735992431640625
1663862561060697600,6.755697509765625,-4.96807861328125,-10.641128540039062,1.667266845703125
1663862561070585300,6.76558544921875,-4.24981689453125,-9.175872802734375,-1.0453643798828125
1663862561080472800,6.775472900390625,-3.2562255859375,-8.160736083984375,-2.6997528076171875
1663862561090360600,6.785360595703125,-3.177215576171875,-7.3562774658203125,-3.456329345703125
1663862561100248300,6.795248291015625,-3.2562255859375,-6.7577362060546875,-3.858551025390625
1663862561110105600,6.805105712890625,-3.2634124755859375,-6.6954803466796875,-3.80108642578125
1663862561119993000,6.8149931640625,-3.387908935546875,-7.28924560546875,-3.3366241455078125
1663862561129880800,6.824880859375,-4.091796875,-8.18707275390625,-2.78594970703125
1663862561139768600,6.8347685546875,-5.734222412109375,-9.027435302734375,-2.558502197265625
1663862561149656300,6.84465625,-7.0773773193359375,-9.439239501953125,-2.484283447265625
1663862561159544000,6.8545439453125,-6.907379150390625,-9.355438232421875,-2.335845947265625
1663862561169401000,6.864401123046875,-5.6528167724609375,-9.017852783203125,-2.2113494873046875
1663862561179288800,6.874288818359375,-4.2426300048828125,-8.914901733398438,-2.1826171875
1663862561189176600,6.884176513671875,-3.1436920166015625,-9.714569091796875,-2.0389556884765625
1663862561199064300,6.894064208984375,-1.8484344482421875,-11.86456298828125,-1.5840606689453125
1663862561208921300,6.90392138671875,-1.5778961181640625,-14.783096313476562,-0.9184722900390625
1663862561218778600,6.913778564453125,-4.434173583984375,-17.172515869140625,-0.930450439453125
1663862561228666400,6.923666259765625,-9.047805786132812,-18.95379638671875,-2.3549957275390625
1663862561238554000,6.93355419921875,-16.551223754882812,-20.79254150390625,-3.03973388671875
1663862561248441600,6.943441650390625,-17.082748413085938,-22.552276611328125,-0.9256591796875
1663862561258299000,6.953298828125,-3.514801025390625,-22.765365600585938,1.245880126953125
1663862561268186600,6.9631865234375,-1.295379638671875,-20.620162963867188,0.24749755859375
1663862561278074400,6.973074462890625,-6.251373291015625,-15.587554931640625,-2.273590087890625
1663862561287961900,6.9829619140625,-0.86920166015625,-9.989898681640625,-3.3150634765625
1663862561297849600,6.992849609375,4.6709747314453125,-6.1160888671875,-1.5697021484375
1663862561307707000,7.002706787109375,1.0653076171875,-4.389862060546875,1.382354736328125
1663862561317594600,7.0125947265625,-2.073486328125,-5.71624755859375,2.94097900390625
1663862561327482000,7.022482177734375,0.289581298828125,-9.35064697265625,4.1045684814453125
1663862561337339400,7.03233935546875,1.22332763671875,-12.376922607421875,6.7836761474609375
1663862561347227100,7.04222705078125,-0.55078125,-14.586776733398438,8.703826904296875
1663862561357115000,7.052114990234375,-4.1684112548828125,-16.717605590820312,6.750152587890625
1663862561367002400,7.06200244140625,-6.24658203125,-17.016891479492188,4.52593994140625
1663862561376890000,7.07189013671875,-5.1117401123046875,-14.965057373046875,3.83880615234375
1663862561386777900,7.08177783203125,-4.6592254638671875,-12.58282470703125,1.75823974609375
1663862561396665600,7.09166552734375,-4.9656829833984375,-11.124755859375,-1.617584228515625
1663862561406522600,7.101522705078125,-3.74224853515625,-9.611618041992188,-3.2839508056640625
1663862561416410400,7.111410400390625,-2.214752197265625,-8.23974609375,-3.42041015625
1663862561426298000,7.121298095703125,-2.2698211669921875,-7.4017791748046875,-3.468292236328125
1663862561436185900,7.131185791015625,-2.437408447265625,-6.9373016357421875,-3.4108428955078125
1663862561446043100,7.141043212890625,-2.3655853271484375,-6.776885986328125,-3.1738128662109375
1663862561455930600,7.1509306640625,-2.5307769775390625,-6.9899749755859375,-3.022979736328125
1663862561465818400,7.160818359375,-3.0455322265625,-7.10009765625,-2.6183624267578125
1663862561475706000,7.1707060546875,-2.8108978271484375,-7.298828125,-2.3286590576171875
1663862561485593900,7.18059375,-2.480499267578125,-7.3658599853515625,-1.9168548583984375
1663862561495451000,7.190450927734375,-4.1875762939453125,-7.442474365234375,-1.416473388671875
1663862561505369000,7.200369140625,-4.9489288330078125,-7.8040008544921875,-0.82989501953125
1663862561515256800,7.2102568359375,-4.7669677734375,-8.211013793945312,-0.1092376708984375
1663862561525144600,7.22014453125,-3.883514404296875,-8.510284423828125,0.60662841796875
1663862561535032300,7.2300322265625,-3.3855133056640625,-8.608444213867188,0.958587646484375
1663862561544920000,7.239920166015625,-3.399871826171875,-8.041030883789062,0.553955078125
1663862561554807600,7.2498076171875,-3.84759521484375,-6.829559326171875,-0.0350189208984375
1663862561564695300,7.2596953125,-3.768585205078125,-5.8599090576171875,-0.6742706298828125
1663862561574583000,7.2695830078125,-3.251434326171875,-5.436126708984375,-1.1770477294921875
1663862561584470800,7.279470703125,-2.8827362060546875,-5.4576873779296875,-1.3590087890625
1663862561594327800,7.289327880859375,-2.2123565673828125,-5.7808990478515625,-1.026214599609375
1663862561604215600,7.299215576171875,-2.2339019775390625,-6.386627197265625,-0.6598968505859375
1663862561614103300,7.309103271484375,-2.300933837890625,-6.934906005859375,-0.444427490234375
1663862561623960600,7.318960693359375,-2.08306884765625,-7.36346435546875,-0.461181640625
1663862561633817600,7.328817626953125,-2.59063720703125,-7.578948974609375,-0.609619140625
1663862561643705300,7.338705322265625,-4.180389404296875,-7.75372314453125,-0.9184722900390625
1663862561653593000,7.348593017578125,-5.056671142578125,-8.055389404296875,-1.2728118896484375
1663862561663480800,7.358480712890625,-4.2665863037109375,-8.47198486328125,-1.1985931396484375
1663862561673368600,7.36836865234375,-4.1612396240234375,-9.046585083007812,-0.6646881103515625
1663862561683256000,7.378256103515625,-7.0821533203125,-9.980331420898438,-0.351043701171875
1663862561693143800,7.388143798828125,-10.096466064453125,-11.1558837890625,-0.2361297607421875
1663862561703031600,7.398031494140625,-10.912887573242188,-12.3194580078125,-0.3678131103515625
1663862561712919300,7.407919189453125,-9.665496826171875,-13.360946655273438,-1.3997039794921875
1663862561722807000,7.41780712890625,-9.818740844726562,-14.184539794921875,-2.3765411376953125
1663862561732694500,7.427694580078125,-10.00787353515625,-14.680145263671875,-2.347808837890625
1663862561742582300,7.437582275390625,-8.446853637695312,-15.163772583007812,-1.4356231689453125
1663862561752439600,7.447439453125,-6.8092193603515625,-15.917953491210938,0.3336944580078125
1663862561762327300,7.457327392578125,-5.31524658203125,-16.775070190429688,1.5762786865234375
1663862561772184300,7.467184326171875,-4.85076904296875,-17.450241088867188,1.3847503662109375
1663862561782041600,7.47704150390625,-4.0941925048828125,-17.44305419921875,-0.106842041015625
1663862561791929300,7.486929443359375,-3.1269378662109375,-16.032867431640625,-1.9048919677734375
1663862561801847600,7.49684765625,-2.8516082763671875,-13.188552856445312,-2.4364013671875
1663862561811704600,7.50670458984375,-3.16046142578125,-9.87738037109375,-2.541748046875
1663862561821592300,7.51659228515625,-4.23785400390625,-6.808013916015625,-3.1043853759765625
1663862561831480000,7.52647998046875,-4.9010467529296875,-4.76336669921875,-3.561676025390625
1663862561841337000,7.536337158203125,-4.6927490234375,-4.1959381103515625,-3.8824920654296875
1663862561851224800,7.546224853515625,-4.0367431640625,-4.796875,-4.07403564453125
1663862561861143000,7.55614306640625,-3.873931884765625,-5.3379669189453125,-4.0836029052734375
1663862561871030800,7.56603076171875,-3.8715362548828125,-5.191925048828125,-3.69573974609375
1663862561880888000,7.57588818359375,-3.536346435546875,-4.76336669921875,-3.2432403564453125
1663862561890745000,7.5857451171875,-3.0958099365234375,-4.389862060546875,-2.927215576171875
1663862561900663300,7.595663330078125,-2.717529296875,-4.0810089111328125,-2.5848388671875
1663862561910520600,7.6055205078125,-2.585845947265625,-3.77215576171875,-2.0533294677734375
1663862561920408300,7.615408203125,-2.569091796875,-3.492034912109375,-1.512237548828125
1663862561930296000,7.625296142578125,-2.5092315673828125,-3.3771209716796875,-1.49786376953125
1663862561940153000,7.635153076171875,-2.90667724609375,-3.3292388916015625,-2.156280517578125
1663862561950040800,7.645040771484375,-3.7566070556640625,-3.26458740234375,-3.1522674560546875
1663862561959928600,7.654928466796875,-4.6640167236328125,-3.2933197021484375,-4.016571044921875
1663862561969816300,7.66481640625,-5.269744873046875,-3.566253662109375,-4.2775421142578125
1663862561979673300,7.67467333984375,-5.2865142822265625,-4.47845458984375,-3.858551025390625
1663862561989591600,7.684591552734375,-5.0854034423828125,-6.1711578369140625,-3.066070556640625
1663862561999479300,7.694479248046875,-5.32720947265625,-8.136795043945312,-2.0533294677734375
1663862562009376800,7.704376708984375,-5.37030029296875,-10.097640991210938,-0.8705902099609375
1663862562019264500,7.714264404296875,-4.9537200927734375,-11.835830688476562,0.4917144775390625
1663862562029152000,7.724152099609375,-4.0774383544921875,-12.750411987304688,2.22271728515625
1663862562039039700,7.734039794921875,-3.0694732666015625,-12.659439086914062,4.341583251953125
1663862562048927500,7.743927490234375,-2.15728759765625,-11.467132568359375,6.2186431884765625
1663862562058815200,7.753815185546875,-0.9194793701171875,-9.66668701171875,6.295257568359375
1663862562068672300,7.76367236328125,0.193817138671875,-8.2086181640625,4.1380767822265625
1663862562078560000,7.77356005859375,0.36859130859375,-7.1192626953125,1.46136474609375
1663862562088447700,7.78344775390625,-0.313751220703125,-6.4871826171875,-0.719757080078125
1663862562098335500,7.79333544921875,-1.5563507080078125,-6.4632415771484375,-2.620758056640625
1663862562108192500,7.803192626953125,-3.3495941162109375,-6.7481536865234375,-3.86334228515625
1663862562118049800,7.8130498046875,-5.2146759033203125,-7.3131866455078125,-4.3900604248046875
1663862562127937500,7.8229375,-6.6511993408203125,-8.189468383789062,-4.4954071044921875
1663862562137825300,7.8328251953125,-7.5011444091796875,-9.156723022460938,-4.493011474609375
1663862562147682300,7.842682373046875,-7.5418548583984375,-9.894134521484375,-4.6965179443359375
1663862562157600500,7.8526005859375,-6.833160400390625,-10.064117431640625,-5.1346588134765625
1663862562167457800,7.862457763671875,-5.6001434326171875,-9.542190551757812,-5.517730712890625
1663862562177376000,7.8723759765625,-4.369537353515625,-9.06573486328125,-5.49139404296875
1663862562187233000,7.88223291015625,-2.7630157470703125,-8.960403442382812,-5.1107177734375
1663862562197090300,7.89209033203125,-0.7399139404296875,-9.113632202148438,-3.9184112548828125
1663862562207008500,7.902008544921875,0.490692138671875,-9.827102661132812,-2.1586761474609375
1663862562216865800,7.91186572265625,1.0724945068359375,-11.43121337890625,-1.0118408203125
1663862562226784000,7.921783935546875,-0.8285064697265625,-13.490234375,-0.1786651611328125
1663862562236641000,7.93164111328125,-6.8618927001953125,-15.27630615234375,-0.45159912109375
1663862562246528800,7.94152880859375,-12.086044311523438,-16.983367919921875,-2.4076690673828125
1663862562256416500,7.95141650390625,-11.839447021484375,-17.9290771484375,-2.484283447265625
1663862562266273800,7.961273681640625,-7.3574981689453125,-17.692047119140625,-0.2361297607421875
1663862562276192000,7.97119189453125,-0.809356689453125,-16.889999389648438,1.31292724609375
1663862562286079500,7.98107958984375,-0.3113555908203125,-16.657760620117188,1.561920166015625
1663862562295967200,7.99096728515625,-6.15081787109375,-17.67529296875,0.2762298583984375
1663862562305855000,8.00085498046875,-10.079696655273438,-19.351226806640625,-1.363800048828125
1663862562315742700,8.01074267578125,-8.8778076171875,-17.962600708007812,0.252288818359375
1663862562325599700,8.020599853515625,-0.5340118408203125,-12.704925537109375,3.9417572021484375
1663862562335487500,8.030487548828125,4.4291534423828125,-9.432052612304688,3.4868621826171875
1663862562345375200,8.040375244140625,-0.6968231201171875,-7.72259521484375,2.1987762451171875
1663862562355263000,8.050262939453125,-3.672821044921875,-7.758514404296875,1.3368682861328125
1663862562365120000,8.0601201171875,-1.8220977783203125,-9.386566162109375,2.3089141845703125
1663862562374977300,8.069977294921875,-0.1317901611328125,-10.720138549804688,5.0837860107421875
1663862562384895500,8.0798955078125,-1.47015380859375,-11.910049438476562,5.9864044189453125
1663862562394783200,8.089783203125,-2.7366790771484375,-12.934768676757812,4.5187530517578125
1663862562404640300,8.09964013671875,-3.12933349609375,-13.29150390625,2.555511474609375
1663862562414497500,8.10949755859375,-3.5028228759765625,-13.265167236328125,0.9873046875
1663862562424385300,8.11938525390625,-2.9473724365234375,-12.788726806640625,-0.0613555908203125
1663862562434303500,8.129303466796875,-2.2769927978515625,-11.838226318359375,-1.1866302490234375
1663862562444160500,8.139160400390624,-2.341644287109375,-10.866180419921875,-2.3286590576171875
1663862562454048300,8.14904833984375,-2.1118011474609375,-9.98272705078125,-2.738067626953125
1663862562463905500,8.158905517578125,-1.465362548828125,-9.108840942382812,-2.6279296875
1663862562473793300,8.168793212890625,-0.917083740234375,-8.163131713867188,-2.5225830078125
1663862562483681000,8.178680908203125,-1.0080718994140625,-7.42572021484375,-2.7404632568359375
1663862562493568500,8.188568603515625,-1.54437255859375,-6.8846282958984375,-3.1953582763671875
1663862562503486700,8.19848681640625,-2.372772216796875,-6.408172607421875,-3.530548095703125
1663862562513374500,8.20837451171875,-3.51959228515625,-6.1567840576171875,-3.6861724853515625
1663862562523262200,8.21826220703125,-3.8404083251953125,-6.2310028076171875,-3.573638916015625
1663862562533150000,8.22814990234375,-3.67999267578125,-6.4680328369140625,-3.1043853759765625
1663862562543037700,8.23803759765625,-3.6225433349609375,-6.819976806640625,-2.541748046875
1663862562552925200,8.24792529296875,-3.99603271484375,-7.1120758056640625,-2.1323394775390625
1663862562562782500,8.257782470703125,-4.297698974609375,-7.1168670654296875,-1.6989898681640625
1663862562572670200,8.267670166015625,-3.505218505859375,-6.872650146484375,-1.184234619140625
1663862562582527200,8.27752734375,-3.1676483154296875,-6.5159149169921875,-0.6862335205078125
1663862562592384500,8.287384521484375,-3.4046630859375,-6.2932586669921875,-0.2624664306640625
1663862562602272300,8.297272216796875,-3.62493896484375,-6.0825653076171875,0.2977752685546875
1663862562612160000,8.307159912109375,-3.483673095703125,-5.9604644775390625,0.752685546875
1663862562622017000,8.31701708984375,-3.584228515625,-5.984405517578125,1.0567474365234375
1663862562631904800,8.32690478515625,-3.7183074951171875,-6.080169677734375,1.2746124267578125
1663862562641792500,8.33679248046875,-3.536346435546875,-6.2238311767578125,1.3775634765625
1663862562651680300,8.34668017578125,-3.6704254150390625,-6.4560699462890625,1.509246826171875
1663862562661567700,8.356567626953124,-3.830841064453125,-6.968414306640625,1.5427703857421875
1663862562671455500,8.36645556640625,-4.149261474609375,-7.6819000244140625,1.6074066162109375
1663862562681343200,8.37634326171875,-4.4533233642578125,-8.6300048828125,1.5331878662109375
1663862562691231000,8.38623095703125,-4.7334442138671875,-9.48712158203125,1.265045166015625
1663862562701088000,8.396087890625,-5.183563232421875,-10.0042724609375,0.949005126953125
1663862562710975700,8.405975830078125,-6.715850830078125,-10.320297241210938,0.4989013671875
1663862562720863500,8.415863525390625,-9.775634765625,-10.976318359375,-0.312744140625
1663862562730720800,8.425720703125,-13.263992309570312,-12.417617797851562,-1.481109619140625
1663862562740608500,8.4356083984375,-14.049285888671875,-14.634658813476562,-3.02777099609375
1663862562750526700,8.445526611328125,-12.030975341796875,-16.688873291015625,-3.4395751953125
1663862562760383700,8.4553837890625,-10.189834594726562,-17.95062255859375,-2.443572998046875
1663862562770302000,8.465302001953125,-9.397354125976562,-18.261871337890625,-1.289581298828125
1663862562780189700,8.475189697265625,-9.165115356445312,-17.976959228515625,-1.24407958984375
1663862562790077400,8.485077392578125,-8.9400634765625,-17.51727294921875,-2.462738037109375
1663862562799965200,8.494965087890625,-8.767684936523438,-16.810989379882812,-4.0955810546875
1663862562809822200,8.504822265625,-8.217010498046875,-16.087936401367188,-5.5321044921875
1663862562819710000,8.5147099609375,-7.7956390380859375,-15.374465942382812,-5.56561279296875
1663862562829567200,8.524567138671875,-7.1994781494140625,-13.933151245117188,-4.3254241943359375
1663862562839424300,8.53442431640625,-4.7861175537109375,-11.222915649414062,-3.6119537353515625
1663862562849312000,8.54431201171875,-3.3591766357421875,-7.7297821044921875,-3.911224365234375
1663862562859230200,8.554230224609375,-4.338409423828125,-5.36669921875,-4.9335479736328125
1663862562869118000,8.564117919921875,-5.4852294921875,-5.29248046875,-6.0276947021484375
1663862562879005700,8.574005615234375,-5.269744873046875,-6.2238311767578125,-5.369293212890625
1663862562888893200,8.58389306640625,-4.7693634033203125,-7.00433349609375,-4.2033233642578125
1663862562898781000,8.593781005859375,-4.6855621337890625,-7.0570068359375,-3.288726806640625
1663862562908668700,8.603668701171875,-4.127716064453125,-6.6523895263671875,-2.6614532470703125
1663862562918526000,8.61352587890625,-3.325653076171875,-6.027496337890625,-2.32147216796875
1663862562928413400,8.623413330078124,-2.5068359375,-5.2374114990234375,-2.1658477783203125
1663862562938301200,8.63330126953125,-1.486907958984375,-4.662811279296875,-2.548919677734375
1663862562948158500,8.643158447265625,-1.7909698486328125,-4.5598602294921875,-2.589630126953125
1663862562958046200,8.653046142578125,-2.5068359375,-3.3819122314453125,-1.179443359375
1663862562967934000,8.662933837890625,-2.363189697265625,-2.7594146728515625,-0.8801727294921875
1663862562977821400,8.672821533203125,-2.279388427734375,-2.0794677734375,-0.3438720703125
1663862562987709200,8.682709228515625,-2.183624267578125,-1.0834808349609375,-0.11163330078125
1663862562997597000,8.692596923828125,-1.9178619384765625,-0.5711212158203125,-0.7077789306640625
1663862563007484700,8.702484619140625,-1.3719940185546875,-0.63336181640625,-1.6894073486328125
1663862563017341700,8.712341796875,-0.6872406005859375,-0.970947265625,-2.5513153076171875
1663862563027199000,8.722198974609375,-0.1485595703125,-1.46893310546875,-3.0253753662109375
1663862563037117200,8.7321171875,0.0262298583984375,-2.2279052734375,-3.0373382568359375
1663862563046974500,8.741974365234375,-0.0312347412109375,-3.2071380615234375,-2.5824432373046875
1663862563056862000,8.751862060546875,-0.5340118408203125,-4.3276214599609375,-2.0892333984375
1663862563066719200,8.76171923828125,-1.6712646484375,-5.742584228515625,-1.8210906982421875
1663862563076637400,8.771637451171875,-3.3328399658203125,-7.2820587158203125,-1.34942626953125
1663862563086525200,8.781525146484375,-4.127716064453125,-9.060958862304688,-0.497100830078125
1663862563096413000,8.791412841796875,-4.4724884033203125,-11.182220458984375,0.4079132080078125
1663862563106270000,8.80127001953125,-4.5107879638671875,-13.145462036132812,1.317718505859375
1663862563116127200,8.811127197265625,-4.8818817138671875,-14.081588745117188,2.026397705078125
1663862563126015000,8.821014892578125,-5.6360626220703125,-13.583602905273438,2.07427978515625
1663862563135933200,8.83093310546875,-5.9592742919921875,-11.850204467773438,1.96893310546875
1663862563145790200,8.840790283203125,-5.9209747314453125,-9.1495361328125,1.9809112548828125
1663862563155678000,8.850677978515625,-4.9393463134765625,-7.298828125,1.425445556640625
1663862563165565700,8.860565673828125,-3.557891845703125,-6.4512786865234375,0.5132598876953125
1663862563175422700,8.870422607421874,-2.892303466796875,-5.5965423583984375,-0.37738037109375
1663862563185341000,8.8803408203125,-3.102996826171875,-5.0578460693359375,-1.236907958984375
1663862563195198200,8.8901982421875,-3.6440887451171875,-5.2541656494140625,-1.945587158203125
1663862563205086000,8.9000859375,-4.6304931640625,-5.879058837890625,-2.2328948974609375
1663862563214943200,8.909943115234375,-6.0430755615234375,-6.8271636962890625,-2.146697998046875
1663862563224861400,8.919861328125,-7.3000335693359375,-7.7561187744140625,-1.8785552978515625
1663862563234749000,8.9297490234375,-7.771697998046875,-8.36663818359375,-1.6678619384765625
1663862563244606200,8.939606201171875,-7.2258148193359375,-8.75927734375,-1.5074462890625
1663862563254524400,8.9495244140625,-6.3758697509765625,-8.91729736328125,-1.660675048828125
1663862563264412200,8.959412109375,-5.6193084716796875,-8.912506103515625,-2.1802215576171875
1663862563274300000,8.9692998046875,-4.28094482421875,-9.108840942382812,-2.431610107421875
1663862563284157000,8.979156982421875,-3.440582275390625,-10.732101440429688,-2.5297698974609375
1663862563294044700,8.989044677734375,-6.00238037109375,-14.979415893554688,-2.4603424072265625
1663862563303902000,8.99890185546875,-11.619171142578125,-19.17645263671875,-1.823486328125
1663862563313820200,9.008820068359375,-16.362091064453125,-21.608963012695312,-0.55694580078125
1663862563323677200,9.01867724609375,-13.012603759765625,-23.395034790039062,1.1357574462890625
1663862563333565000,9.02856494140625,-4.994415283203125,-21.941757202148438,5.7182464599609375
1663862563343452700,9.03845263671875,-0.4382476806640625,-18.788589477539062,7.4947509765625
1663862563353340400,9.04834033203125,2.918426513671875,-16.751129150390625,0.4390411376953125
1663862563363197400,9.058197509765625,1.0533294677734375,-12.65704345703125,-4.746795654296875
1663862563373085200,9.068085205078125,-3.8380126953125,-10.03778076171875,-7.9239044189453125
1663862563382942500,9.0779423828125,-3.1077880859375,-11.165451049804688,-7.7012481689453125
1663862563392860700,9.087860595703125,-3.06707763671875,-14.419174194335938,-3.255218505859375
1663862563402717700,9.0977177734375,-2.205169677734375,-16.58831787109375,0.326507568359375
1663862563412636000,9.107635986328125,2.5353546142578125,-15.676132202148438,3.1708221435546875
1663862563422493200,9.1174931640625,2.1403045654296875,-14.639450073242188,3.7406463623046875
1663862563432381000,9.127380859375,0.4021148681640625,-14.2635498046875,2.5315704345703125
1663862563442238000,9.137238037109375,-0.5747222900390625,-13.61712646484375,1.5906524658203125
1663862563452156200,9.14715625,-1.8484344482421875,-13.641067504882812,0.7191619873046875
1663862563462013400,9.157013427734375,-3.071868896484375,-13.499801635742188,1.013641357421875
1663862563471931600,9.166931640625,-3.282562255859375,-13.339385986328125,1.688812255859375
1663862563481789000,9.176788818359375,-2.4326171875,-12.891677856445312,2.110198974609375
1663862563491676400,9.186676513671875,-2.147705078125,-12.151870727539062,1.9090728759765625
1663862563501533700,9.19653369140625,-3.0790557861328125,-11.323471069335938,1.202789306640625
1663862563511421400,9.20642138671875,-3.3495941162109375,-10.516632080078125,0.4390411376953125
1663862563521339600,9.216339599609375,-2.605010986328125,-9.937225341796875,-0.456390380859375
1663862563531196700,9.22619677734375,-2.05194091796875,-8.953216552734375,-1.0717010498046875
1663862563541084400,9.23608447265625,-1.7837982177734375,-8.26129150390625,-1.6558837890625
1663862563550972200,9.24597216796875,-1.5419769287109375,-7.732177734375,-2.019805908203125
1663862563560860000,9.25585986328125,-2.2123565673828125,-7.3347320556640625,-2.326263427734375
1663862563570717000,9.265717041015625,-2.39910888671875,-7.33233642578125,-2.4818878173828125
1663862563580635100,9.27563525390625,-2.0327911376953125,-7.569366455078125,-2.35260009765625
1663862563590492400,9.285492431640625,-2.2027740478515625,-7.832733154296875,-2.283172607421875
1663862563600349700,9.295349609375,-2.8420257568359375,-7.954833984375,-2.268798828125
1663862563610268000,9.305267822265625,-3.684783935546875,-7.526275634765625,-1.8210906982421875
1663862563620155400,9.3151552734375,-4.424591064453125,-6.841522216796875,-1.31591796875
1663862563630043100,9.325043212890625,-5.037506103515625,-6.544647216796875,-1.06451416015625
1663862563639900400,9.334900390625,-5.341583251953125,-6.6260528564453125,-0.6335601806640625
1663862563649788200,9.3447880859375,-4.7334442138671875,-6.7529449462890625,0.04638671875
1663862563659675600,9.354675537109374,-4.793304443359375,-6.8008270263671875,0.6712799072265625
1663862563669563400,9.3645634765625,-5.468475341796875,-6.8630828857421875,0.8388671875
1663862563679420700,9.374420654296875,-6.0837860107421875,-6.798431396484375,1.0208282470703125
1663862563689308400,9.384308349609375,-5.71746826171875,-6.4297332763671875,1.47332763671875
1663862563699196200,9.394196044921875,-4.005615234375,-6.00115966796875,1.952178955078125
1663862563709053200,9.40405322265625,-2.2817840576171875,-5.6132965087890625,2.100616455078125
1663862563718971400,9.413971435546875,-1.632965087890625,-5.361907958984375,2.069488525390625
1663862563728828700,9.42382861328125,-1.570709228515625,-5.2422027587890625,2.2203216552734375
1663862563738747000,9.433746826171875,-1.7167510986328125,-5.3379669189453125,2.5794525146484375
1663862563748634600,9.443634521484375,-1.3887481689453125,-5.89581298828125,2.830841064453125
1663862563758522000,9.453522216796875,-1.455780029296875,-6.808013916015625,2.6943817138671875
1663862563768409900,9.463409912109375,-2.425445556640625,-7.739349365234375,2.1197662353515625
1663862563778267100,9.47326708984375,-2.976104736328125,-8.517471313476562,1.28179931640625
1663862563788124200,9.483124267578125,-3.040740966796875,-9.111236572265625,0.1708831787109375
1663862563798012000,9.493011962890625,-3.56268310546875,-9.527816772460938,-1.121978759765625
1663862563807899600,9.502899658203125,-4.391082763671875,-9.733718872070312,-2.4651336669921875
1663862563817757000,9.5127568359375,-4.4724884033203125,-9.420089721679688,-3.5544891357421875
1663862563827644400,9.52264453125,-4.6855621337890625,-8.66351318359375,-4.016571044921875
1663862563837562600,9.532562744140625,-6.22503662109375,-8.167922973632812,-3.8394012451171875
1663862563847420000,9.542419921875,-7.9368896484375,-8.622817993164062,-3.3126678466796875
1663862563857277200,9.552277099609375,-10.553756713867188,-10.006668090820312,-2.6566619873046875
1663862563867164700,9.56216455078125,-13.374130249023438,-12.77197265625,-3.034942626953125
1663862563877052400,9.572052490234375,-13.678192138671875,-16.198074340820312,-4.3948516845703125
1663862563886970600,9.581970703125,-10.917678833007812,-18.360031127929688,-5.1346588134765625
1663862563896828000,9.591827880859375,-9.555374145507812,-18.47735595703125,-4.35894775390625
1663862563906715600,9.601715576171875,-11.293563842773438,-18.81732177734375,-3.5233612060546875
1663862563916572700,9.61157275390625,-11.408477783203125,-20.490875244140625,-3.700531005859375
1663862563926491000,9.621490966796875,-9.217788696289062,-22.18597412109375,-3.614349365234375
1663862563936378600,9.631378662109375,-7.2377777099609375,-22.971267700195312,-3.3749237060546875
1663862563946236000,9.64123583984375,-6.0598297119140625,-22.085418701171875,-2.2879638671875
1663862563956154000,9.651154052734375,-5.7414093017578125,-19.827682495117188,-0.8442535400390625
1663862563966041900,9.661041748046875,-5.29608154296875,-17.028854370117188,-0.4803314208984375
1663862563975899000,9.67089892578125,-4.338409423828125,-13.528533935546875,-1.1243743896484375
1663862563985756200,9.680756103515625,-4.166015625,-9.614013671875,-1.9695281982421875
1663862563995674400,9.69067431640625,-4.3144683837890625,-6.10650634765625,-2.5991973876953125
1663862564005531400,9.700531494140625,-4.4006500244140625,-4.2821197509765625,-3.1570587158203125
1663862564015419100,9.710419189453125,-4.3743133544921875,-3.843994140625,-2.60638427734375
1663862564025276400,9.7202763671875,-3.8356170654296875,-3.6572418212890625,-2.1443023681640625
1663862564035194600,9.730194580078125,-3.6608428955078125,-2.5894317626953125,-1.6750335693359375
1663862564045082400,9.740082275390625,-3.0263824462890625,-2.63970947265625,-0.7867889404296875
1663862564054969900,9.749969970703125,-3.102996826171875,-5.1320648193359375,-2.0174102783203125
1663862564064827100,9.7598271484375,-2.9425811767578125,-5.761749267578125,-3.954315185546875
1663862564074715000,9.76971484375,-1.7335205078125,-4.20550537109375,-2.3549957275390625
1663862564084572000,9.779572021484375,-0.7973785400390625,-3.4944305419921875,-1.153106689453125
1663862564094490000,9.789489990234374,-0.6585235595703125,-3.0012359619140625,-1.5218048095703125
1663862564104347400,9.799347412109375,-0.725555419921875,-2.591827392578125,-1.7995452880859375
1663862564114235100,9.809235107421875,-0.8859710693359375,-2.18719482421875,-1.9048919677734375
1663862564124123000,9.819122802734375,-1.053558349609375,-1.6461181640625,-2.0341644287109375
1663862564134010400,9.82901025390625,-1.328887939453125,-1.35162353515625,-2.35260009765625
1663862564143898000,9.838898193359375,-1.3887481689453125,-1.207977294921875,-2.7021484375
1663862564153785900,9.848785888671875,-1.03680419921875,-1.133758544921875,-2.800323486328125
1663862564163673600,9.858673583984375,-0.82611083984375,-1.4186553955078125,-2.6351165771484375
1663862564173561300,9.868561279296875,-1.0511627197265625,-2.24945068359375,-2.63751220703125
1663862564183418400,9.87841845703125,-1.369598388671875,-3.322052001953125,-2.4555511474609375
1663862564193306000,9.88830615234375,-2.0615234375,-4.4233856201171875,-1.8067169189453125
1663862564203193900,9.89819384765625,-3.1700286865234375,-5.6492156982421875,-0.8274993896484375
1663862564213051100,9.908051025390625,-4.2426300048828125,-7.0713653564453125,0.1062469482421875
1663862564222938600,9.917938720703125,-5.5929718017578125,-9.221359252929688,0.52044677734375
1663862564232826400,9.927826416015625,-6.11968994140625,-10.46875,0.831695556640625
1663862564242714000,9.937714111328125,-5.5402984619140625,-11.292343139648438,0.6473388671875
1663862564252601900,9.947601806640625,-4.4844512939453125,-11.021804809570312,1.1788482666015625
1663862564262459000,9.957458984375,-3.646484375,-9.654708862304688,2.450164794921875
1663862564272377000,9.967377197265625,-2.923431396484375,-8.160736083984375,3.1804046630859375
1663862564282264800,9.977264892578125,-2.6864013671875,-7.24615478515625,2.1772308349609375
1663862564292152600,9.987152587890625,-3.4118499755859375,-6.9708099365234375,-0.0350189208984375
1663862564302040300,9.997040283203125,-4.687957763671875,-6.4033966064453125,-1.576873779296875
1663862564311928000,10.006927978515625,-5.5355072021484375,-5.5534515380859375,-2.3765411376953125
1663862564321815600,10.016815673828125,-5.9425201416015625,-4.933349609375,-3.0038299560546875
1663862564331703300,10.026703369140625,-5.976043701171875,-4.86871337890625,-3.604766845703125
1663862564341560600,10.036560546875,-5.7629547119140625,-5.4840240478515625,-4.1027679443359375
1663862564351448300,10.0464482421875,-5.1811676025390625,-6.5302886962890625,-4.287109375
1663862564361305300,10.056305419921875,-4.5419158935546875,-7.6148529052734375,-4.07403564453125
1663862564371193000,10.066193115234375,-4.46051025390625,-9.01068115234375,-3.9136199951171875
1663862564381080800,10.076080810546875,-4.687957763671875,-10.212570190429688,-3.3174591064453125
1663862564390937900,10.085937744140624,-4.814849853515625,-11.031387329101562,-3.054107666015625
1663862564400825600,10.09582568359375,-4.34320068359375,-11.749649047851562,-2.654266357421875
1663862564410713300,10.10571337890625,-5.121307373046875,-14.095962524414062,-2.769195556640625
1663862564420601000,10.11560107421875,-9.380599975585938,-18.893936157226562,-4.205718994140625
1663862564430488800,10.12548876953125,-15.583969116210938,-22.72705078125,-3.916015625
1663862564440345900,10.135345947265625,-14.880081176757812,-23.651214599609375,-1.3470306396484375
1663862564450233600,10.145233642578125,-6.4548797607421875,-21.388702392578125,1.0926513671875
1663862564460091000,10.1550908203125,-3.931396484375,-18.146942138671875,0.4342498779296875
1663862564469978600,10.164978515625,-2.4134674072265625,-16.358474731445312,-2.74285888671875
1663862564479866000,10.1748662109375,-2.415863037109375,-15.364883422851562,-4.6103363037109375
1663862564489753900,10.18475390625,-6.36151123046875,-15.5635986328125,-6.66455078125
1663862564499641600,10.1946416015625,-8.846694946289062,-15.273910522460938,-6.79144287109375
1663862564509499000,10.204498779296875,-2.12615966796875,-11.816680908203125,-1.6319427490234375
1663862564519386400,10.214386474609375,5.0923614501953125,-9.733718872070312,2.3352508544921875
1663862564529274000,10.224274169921875,5.508941650390625,-9.578094482421875,2.7374725341796875
1663862564539192300,10.2341923828125,1.082061767578125,-10.758438110351562,1.35601806640625
1663862564549049600,10.244049560546875,0.0166473388671875,-12.724075317382812,0.209197998046875
1663862564558906600,10.25390673828125,0.5697021484375,-13.799072265625,1.0615386962890625
1663862564568824800,10.263824951171875,0.1076202392578125,-14.227645874023438,2.2155303955078125
1663862564578712600,10.273712646484375,-1.0296173095703125,-14.747177124023438,2.0240020751953125
1663862564588600300,10.283600341796875,-1.4510040283203125,-14.783096313476562,0.970550537109375
1663862564598488000,10.293488037109375,-1.867584228515625,-13.341781616210938,-0.032623291015625
1663862564608345000,10.303344970703124,-2.2841796875,-11.984268188476562,-1.49786376953125
1663862564618232800,10.31323291015625,-2.72711181640625,-10.717742919921875,-2.5537109375
1663862564628120600,10.32312060546875,-2.6720428466796875,-9.288406372070312,-3.001434326171875
1663862564638008300,10.33300830078125,-1.9537811279296875,-9.599655151367188,-4.4044342041015625
1663862564647896000,10.34289599609375,-1.9920806884765625,-11.067291259765625,-4.8258056640625
1663862564657753000,10.352753173828125,-2.774993896484375,-10.794357299804688,-3.2288818359375
1663862564667640800,10.362640869140625,-2.384735107421875,-9.72894287109375,-2.5656890869140625
1663862564677528600,10.372528564453125,-1.9873046875,-9.513458251953125,-2.9439697265625
1663862564687416300,10.382416259765625,-2.30572509765625,-9.475143432617188,-2.8936920166015625
1663862564697273300,10.3922734375,-2.6576690673828125,-9.372207641601562,-2.5776519775390625
1663862564707161000,10.4021611328125,-2.818084716796875,-9.365020751953125,-2.6351165771484375
1663862564717048800,10.412048828125,-3.356781005859375,-9.736114501953125,-2.6399078369140625
1663862564726906000,10.421906005859375,-3.4477691650390625,-10.033004760742188,-2.072479248046875
1663862564736793600,10.431793701171875,-3.2562255859375,-10.147918701171875,-1.27520751953125
1663862564746681300,10.441681396484375,-3.1173553466796875,-9.609222412109375,-0.00628662109375
1663862564756569000,10.451569091796875,-2.954559326171875,-8.828720092773438,1.138153076171875
1663862564766456800,10.461456787109375,-2.98089599609375,-8.055389404296875,2.153289794921875
1663862564776344600,10.471344482421875,-3.5171966552734375,-7.6723175048828125,2.397491455078125
1663862564786232000,10.481232177734375,-4.158843994140625,-7.7249908447265625,1.573883056640625
1663862564796089300,10.49108935546875,-3.8284454345703125,-8.031448364257812,0.7215576171875
1663862564805977000,10.50097705078125,-2.33685302734375,-8.359451293945312,0.1493377685546875
1663862564815864800,10.51086474609375,-1.6161956787109375,-8.730560302734375,-0.6024322509765625
1663862564825752300,10.52075244140625,-2.3392486572265625,-8.931671142578125,-1.512237548828125
1663862564835640000,10.53064013671875,-3.399871826171875,-8.969970703125,-1.7684173583984375
1663862564845527800,10.54052783203125,-3.3017120361328125,-9.046585083007812,-1.30633544921875
1663862564855415600,10.55041552734375,-1.32171630859375,-8.943634033203125,-0.3678131103515625
1663862564865272600,10.5602724609375,1.25445556640625,-9.590072631835938,-0.3318939208984375
1663862564875160300,10.570160400390625,0.9240570068359375,-10.487899780273438,-0.90411376953125
1663862564885048000,10.580048095703125,0.0381927490234375,-9.812728881835938,-0.877777099609375
1663862564894905300,10.5899052734375,0.035797119140625,-8.16552734375,0.0439910888671875
1663862564904793000,10.59979296875,-0.1269989013671875,-7.7944183349609375,0.7143707275390625
1663862564914711300,10.609711181640625,0.87615966796875,-9.108840942382812,0.6569061279296875
1663862564924568300,10.619568359375,-0.2682647705078125,-8.8837890625,1.71514892578125
1663862564934456000,10.6294560546875,-0.6585235595703125,-8.460006713867188,2.5291748046875
1663862564944343800,10.63934375,0.7923736572265625,-8.723373413085938,2.9505615234375
1663862564954231600,10.6492314453125,0.95037841796875,-8.58929443359375,2.90985107421875
1663862564964088600,10.659088623046875,-2.00885009765625,-8.364242553710938,2.7590179443359375
1663862564973976300,10.668976318359375,-2.4038848876953125,-9.925262451171875,2.1820220947265625
1663862564983864000,10.678864013671875,-0.4382476806640625,-12.28594970703125,1.1908111572265625
1663862564993751800,10.688751708984375,0.82110595703125,-13.937942504882812,0.6593017578125
1663862565003639300,10.698639404296875,-0.0192718505859375,-14.6968994140625,1.193206787109375
1663862565013527000,10.708527099609375,-0.895538330078125,-14.086380004882812,3.3072967529296875
1663862565023414800,10.718414794921875,-3.706329345703125,-13.70330810546875,6.285675048828125
1663862565033302500,10.728302490234375,-2.92822265625,-14.467056274414062,9.836273193359375
1663862565043190300,10.738190185546875,5.57598876953125,-16.997726440429688,14.48822021484375
1663862565053077800,10.748077880859375,12.3707275390625,-19.791763305664062,15.907974243164062
1663862565062935000,10.75793505859375,13.603744506835938,-20.713531494140625,12.383712768554688
1663862565072792300,10.767792236328125,3.11474609375,-19.346450805664062,7.6144561767578125
1663862565082710500,10.77771044921875,-12.567276000976562,-17.0743408203125,9.53460693359375
1663862565092598000,10.787597900390624,-13.316665649414062,-19.528396606445312,7.743743896484375
1663862565102485800,10.79748583984375,1.1251678466796875,-22.964080810546875,0.7670440673828125
1663862565112373500,10.80737353515625,12.904632568359375,-21.65924072265625,-9.058761596679688
1663862565122261200,10.81726123046875,7.8887786865234375,-15.90118408203125,-9.640548706054688
1663862565132149000,10.82714892578125,-8.087722778320312,-13.92596435546875,-3.8489837646484375
1663862565142036700,10.83703662109375,-9.114837646484375,-17.069564819335938,-2.8266448974609375
1663862565151893800,10.846893798828125,-0.75189208984375,-17.22039794921875,-5.2615509033203125
1663862565161781500,10.856781494140625,8.061172485351562,-14.912384033203125,-4.6055450439453125
1663862565171669200,10.866669189453125,8.05877685546875,-12.027374267578125,-2.9583282470703125
1663862565181557000,10.876556884765625,4.208892822265625,-9.788787841796875,-2.541748046875
1663862565191414000,10.8864140625,2.307891845703125,-8.752105712890625,-2.8529815673828125
1663862565201271300,10.896271240234375,1.29754638671875,-8.301986694335938,-2.8769378662109375
1663862565211159000,10.906158935546875,3.45233154296875,-8.675491333007812,-2.7260894775390625
1663862565221046500,10.916046630859375,5.2192535400390625,-11.301925659179688,-3.1857757568359375
1663862565230934300,10.925934326171875,7.2279815673828125,-14.450302124023438,-4.0836029052734375
1663862565240822000,10.935822021484375,10.757034301757812,-15.697677612304688,-4.2559967041015625
1663862565250679300,10.94567919921875,17.585296630859375,-14.30426025390625,0.23553466796875
1663862565260566800,10.95556689453125,29.20196533203125,-13.30108642578125,11.955154418945312
1663862565270424000,10.965424072265625,21.126327514648438,-21.86993408203125,5.8235931396484375
1663862565280342300,10.97534228515625,9.60302734375,-23.308853149414062,4.27215576171875
1663862565290199600,10.985199462890625,-1.40789794921875,-14.979415893554688,8.107666015625
1663862565300117800,10.99511767578125,-9.924072265625,-11.000259399414062,7.389404296875
1663862565310005200,11.005005126953124,-10.754867553710938,-12.436782836914062,4.0471038818359375
1663862565319893000,11.01489306640625,-6.2393951416015625,-13.856536865234375,1.8228912353515625
1663862565329750300,11.024750244140625,-0.45501708984375,-12.5924072265625,1.17645263671875
1663862565339638000,11.034637939453125,4.9606781005859375,-11.254043579101562,0.4653778076171875
1663862565349495000,11.0444951171875,6.1074981689453125,-10.765625,-0.583282470703125
1663862565359413200,11.054413330078125,2.7532196044921875,-9.6451416015625,-1.1890106201171875
1663862565369301000,11.064301025390625,-1.97772216796875,-7.5095062255859375,-1.2129669189453125
1663862565379188700,11.074188720703125,-4.8866729736328125,-5.7880859375,-1.153106689453125
1663862565389076500,11.084076416015625,-10.754867553710938,-2.1680450439453125,7.331939697265625
1663862565398964200,11.093964111328125,-5.169189453125,0.851043701171875,18.807357788085938
1663862565408821200,11.1038212890625,8.358047485351562,0.7648468017578125,7.0542144775390625
1663862565418709000,11.113708984375,5.7794952392578125,-1.1576995849609375,-0.0709228515625
1663862565428566300,11.123566162109375,7.80499267578125,-5.3858489990234375,-1.2081756591796875
1663862565438423300,11.13342333984375,10.242279052734375,-6.0131378173828125,-1.0142364501953125
1663862565448311000,11.14331103515625,8.0491943359375,-1.6245574951171875,1.245880126953125
1663862565458229200,11.153229248046875,6.5576019287109375,2.807098388671875,4.0327301025390625
1663862565468117000,11.163116943359375,8.60943603515625,2.1965789794921875,4.13568115234375
1663862565478004700,11.173004638671875,11.432205200195312,0.0250396728515625,3.3144683837890625
1663862565487861800,11.18286181640625,13.029129028320312,-0.822509765625,3.61614990234375
1663862565497749500,11.19274951171875,13.989212036132812,-1.63653564453125,4.329620361328125
1663862565507637200,11.20263720703125,15.425735473632812,-2.845611572265625,4.964080810546875
1663862565517525000,11.21252490234375,18.2652587890625,-4.4712677001953125,4.9138031005859375
1663862565527412500,11.22241259765625,21.356170654296875,-5.235015869140625,4.2601776123046875
1663862565537300200,11.23230029296875,24.624252319335938,-5.330780029296875,2.883514404296875
1663862565547188000,11.24218798828125,26.690444946289062,-5.625274658203125,0.826904296875
1663862565557075700,11.25207568359375,26.383987426757812,-6.702667236328125,-1.196197509765625
1663862565566963500,11.26196337890625,23.285888671875,-7.9859619140625,-2.2879638671875
1663862565576820500,11.271820556640625,18.791976928710938,-8.421707153320312,-1.849822998046875
1663862565586708200,11.281708251953125,15.717819213867188,-8.404937744140625,-0.7173614501953125
1663862565596596000,11.291595947265625,14.592544555664062,-10.013839721679688,-0.6287689208984375
1663862565606483700,11.301483642578125,14.197509765625,-13.205322265625,-1.1818389892578125
1663862565616371500,11.311371337890625,13.144058227539062,-15.623458862304688,-1.5218048095703125
1663862565626259000,11.321259033203125,11.891891479492188,-16.58831787109375,-1.56011962890625
1663862565636116200,11.3311162109375,11.142501831054688,-17.51727294921875,-1.5313873291015625
1663862565646004000,11.34100390625,11.322067260742188,-20.14849853515625,-2.199371337890625
1663862565655891700,11.3508916015625,12.39227294921875,-23.102951049804688,-3.6981353759765625
1663862565665779200,11.360779296875,12.681976318359375,-24.213851928710938,-5.517730712890625
1663862565675667000,11.3706669921875,4.5871734619140625,-22.329620361328125,-10.717941284179688
1663862565685524200,11.380524169921875,4.251983642578125,-20.481292724609375,-14.8311767578125
1663862565695412000,11.390411865234375,7.20404052734375,-15.577972412109375,-14.448104858398438
1663862565705299500,11.400299560546875,7.362060546875,-9.81512451171875,-12.28375244140625
1663862565715187200,11.410187255859375,7.261505126953125,-4.9836273193359375,-12.508804321289062
1663862565725075000,11.420074951171875,9.3492431640625,-1.5455474853515625,-12.906234741210938
1663862565734932200,11.42993212890625,11.087432861328125,-0.1162109375,-10.176849365234375
1663862565744819700,11.43981982421875,10.594223022460938,-1.0762939453125,-7.75152587890625
1663862565754707500,11.44970751953125,9.969345092773438,-1.926239013671875,-5.3022613525390625
1663862565764595200,11.45959521484375,7.4961395263671875,0.1399688720703125,-3.202545166015625
1663862565774483000,11.46948291015625,5.9925689697265625,2.2588348388671875,-0.8705902099609375
1663862565784370700,11.47937060546875,4.489013671875,2.467132568359375,1.123779296875
1663862565794227700,11.489227783203125,3.078826904296875,1.760833740234375,2.0072479248046875
1663862565804085000,11.4990849609375,2.1929779052734375,1.70098876953125,2.363983154296875
1663862565813972700,11.50897265625,2.264801025390625,1.5621185302734375,2.375946044921875
1663862565823860200,11.518860107421874,8.053985595703125,2.3378448486328125,4.942535400390625
1663862565833748000,11.528748046875,33.724609375,5.938720703125,19.712356567382812
1663862565843635700,11.5386357421875,11.439376831054688,1.0018768310546875,6.970428466796875
1663862565853523500,11.5485234375,0.57928466796875,-1.0020751953125,-0.1044464111328125
1663862565863411200,11.5584111328125,1.393310546875,2.076873779296875,5.45489501953125
1663862565873299000,11.568298828125,0.5816802978515625,4.787109375,13.324630737304688
1663862565883186400,11.5781865234375,-4.8962554931640625,6.35052490234375,19.681243896484375
1663862565893074200,11.58807421875,-6.9097747802734375,6.4031982421875,19.247894287109375
1663862565902931500,11.597931396484375,-1.93463134765625,5.52691650390625,13.279144287109375
1663862565912819200,11.607819091796875,4.4004364013671875,3.8294219970703125,5.75177001953125
1663862565922706700,11.617706787109375,5.4514923095703125,2.5269775390625,1.4805145263671875
1663862565932594400,11.627594482421875,4.03411865234375,1.17425537109375,0.5300140380859375
1663862565942482200,11.637482177734375,4.1226959228515625,0.101654052734375,-1.2345123291015625
1663862565952370000,11.647369873046875,3.1602325439453125,0.54937744140625,-4.5049896240234375
1663862565962227000,11.65722705078125,5.08038330078125,1.8637847900390625,-4.6797637939453125
1663862565972114700,11.66711474609375,5.7842864990234375,4.3226318359375,-6.224029541015625
1663862565982002400,11.67700244140625,6.7730865478515625,7.3201751708984375,-6.2335968017578125
1663862565991890200,11.68689013671875,7.8624420166015625,9.343276977539062,-4.6222991943359375
1663862566001778000,11.69677783203125,8.10186767578125,10.2171630859375,-2.8050994873046875
1663862566011635000,11.706635009765625,6.9598388671875,10.858810424804688,-0.2217559814453125
1663862566021522700,11.716522705078125,3.61273193359375,10.451797485351562,3.15167236328125
1663862566031410400,11.726410400390625,1.0341796875,8.711212158203125,4.954498291015625
1663862566041267500,11.736267333984374,1.6183624267578125,7.222015380859375,4.8970489501953125
1663862566051155200,11.7461552734375,5.3461456298828125,6.28826904296875,2.8739471435546875
1663862566061003000,11.7560029296875,9.205596923828125,5.8190155029296875,0.4174957275390625
1663862566070890800,11.765890869140625,11.06109619140625,5.7998504638671875,-0.72454833984375
1663862566080748000,11.775748046875,10.630142211914062,6.00335693359375,-0.91607666015625
1663862566090635800,11.7856357421875,8.484939575195312,6.0847625732421875,-0.7748260498046875
1663862566100554000,11.795553955078125,5.6717529296875,6.2332000732421875,-0.750885009765625
1663862566110441500,11.80544140625,5.6478118896484375,6.534881591796875,-1.660675048828125
1663862566120329200,11.8153291015625,4.4578857421875,7.2196197509765625,-1.9072723388671875
1663862566130195000,11.82519482421875,2.34381103515625,8.043228149414062,-1.3590087890625
1663862566140052000,11.835052001953125,0.8187103271484375,8.529251098632812,-0.8657989501953125
1663862566149939700,11.844939697265625,0.4069061279296875,8.677688598632812,-0.9065093994140625
1663862566159827500,11.854827392578125,1.07489013671875,8.608261108398438,-0.7963714599609375
1663862566169715200,11.864715087890625,2.5161895751953125,8.268280029296875,-0.5904693603515625
1663862566179602700,11.874602783203125,3.97186279296875,8.024063110351562,-0.4372406005859375
1663862566189490400,11.884490478515625,4.414794921875,7.894775390625,-0.233734130859375
1663862566199347700,11.89434765625,4.6446380615234375,7.9067535400390625,-0.0350189208984375
1663862566209235500,11.9042353515625,4.9127960205078125,8.131805419921875,0.4605865478515625
1663862566219153700,11.914153564453125,4.8170166015625,7.9690093994140625,0.8460540771484375
1663862566229010700,11.9240107421875,5.1761474609375,7.497344970703125,0.812530517578125
1663862566238868000,11.933867919921875,5.8944091796875,6.953857421875,0.558746337890625
1663862566248786200,11.9437861328125,6.5193023681640625,6.367279052734375,0.2546844482421875
1663862566258674000,11.953673828125,6.6031036376953125,5.8405609130859375,0.0272369384765625
1663862566268561400,11.9635615234375,6.41156005859375,5.7783050537109375,-0.12359619140625
1663862566278449200,11.97344921875,5.9279327392578125,6.18292236328125,-0.5904693603515625
1663862566288337000,11.9833369140625,4.7188568115234375,6.376861572265625,-0.8634033203125
1663862566298224600,11.993224609375,4.0891876220703125,6.235595703125,-0.79876708984375
1663862566308112400,12.0031123046875,4.1681976318359375,6.0440673828125,-0.5856781005859375
1663862566318000000,12.013000244140626,4.378875732421875,5.8788604736328125,-0.33428955078125
1663862566327887600,12.0228876953125,4.2280426025390625,5.96026611328125,-0.03741455078125
1663862566337745000,12.032744873046875,3.8210296630859375,5.9985809326171875,0.0631561279296875
1663862566347632600,12.042632568359375,3.5074005126953125,6.1302490234375,0.388763427734375
1663862566357520400,12.052520263671875,3.4140167236328125,6.4750213623046875,0.917877197265625
1663862566367407900,12.062407958984375,3.3445892333984375,6.6857147216796875,0.7718353271484375
1663862566377295600,12.072295654296875,3.26318359375,6.60430908203125,0.410308837890625
1663862566387153000,12.08215283203125,3.4834442138671875,6.38165283203125,0.1756744384765625
1663862566397010000,12.092010009765625,3.74920654296875,6.3217926025390625,0.357635498046875
1663862566406897700,12.101897705078125,4.2902984619140625,6.5181121826171875,0.484527587890625
1663862566416785400,12.111785400390625,5.1761474609375,6.46783447265625,0.1277923583984375
1663862566426673200,12.121673095703125,6.2918548583984375,5.605926513671875,-0.7341156005859375
1663862566436561000,12.131560791015625,7.7307586669921875,4.6697998046875,-1.0118408203125
1663862566446448400,12.141448486328125,8.568740844726562,4.1861572265625,-1.0717010498046875
1663862566456336100,12.151336181640625,8.700424194335938,3.915618896484375,-0.9376220703125
1663862566466223900,12.161223876953125,8.765060424804688,3.8892822265625,-0.6407470703125
1663862566476111600,12.171111572265625,9.009262084960938,4.0879974365234375,-0.3007659912109375
1663862566485968600,12.18096875,9.08349609375,4.4710693359375,0.2187652587890625
1663862566495826000,12.190825927734375,9.428253173828125,4.918792724609375,0.419891357421875
1663862566505713700,12.200713623046875,9.562332153320312,4.813446044921875,-0.825103759765625
1663862566515570700,12.21057080078125,8.875198364257812,4.432769775390625,-1.1818389892578125
1663862566525489000,12.220489013671875,8.350860595703125,4.265167236328125,-0.9376220703125
1663862566535346200,12.23034619140625,8.001312255859375,4.7679595947265625,-0.1307830810546875
1663862566545264400,12.240264404296875,7.8456878662109375,4.9738616943359375,0.35284423828125
1663862566555152100,12.250152099609375,8.089889526367188,4.8804779052734375,0.283416748046875
1663862566565039900,12.260039794921875,8.939834594726562,4.6841583251953125,0.1637115478515625
1663862566574897000,12.26989697265625,9.820907592773438,4.23883056640625,-0.044586181640625
1663862566584784600,12.27978466796875,9.806533813476562,4.1454620361328125,-0.6407470703125
1663862566594672400,12.28967236328125,10.07708740234375,4.7727508544921875,-1.0190277099609375
1663862566604529700,12.29952978515625,9.832870483398438,4.9858245849609375,-1.265625
1663862566614417200,12.309417236328125,9.32769775390625,4.8804779052734375,-1.23211669921875
1663862566624305000,12.319304931640625,8.836883544921875,4.8924560546875,-0.9088897705078125
1663862566634192600,12.329192626953125,8.611831665039062,4.8589324951171875,-0.6862335205078125
1663862566644080400,12.339080322265625,8.887161254882812,4.7583770751953125,-0.5665283203125
1663862566653968100,12.348968017578125,9.29656982421875,4.4351654052734375,-0.626373291015625
1663862566663855600,12.358855712890625,9.648513793945312,4.2077178955078125,-0.5904693603515625
1663862566673743400,12.368743408203125,9.641342163085938,4.3250274658203125,-0.609619140625
1663862566683631000,12.378631103515625,9.521621704101562,4.4471282958984375,-0.877777099609375
1663862566693518800,12.388518798828125,9.4857177734375,4.497406005859375,-0.9352264404296875
1663862566703406600,12.398406494140625,9.11700439453125,4.3417816162109375,-0.793975830078125
1663862566713263600,12.408263671875,8.709991455078125,4.427978515625,-0.5234375
1663862566723151400,12.4181513671875,8.212005615234375,4.6219024658203125,-0.5042724609375
1663862566733039000,12.4280390625,8.006103515625,4.6937408447265625,-0.499481201171875
1663862566742926800,12.4379267578125,8.125808715820312,4.8804779052734375,-0.3558349609375
1663862566752814300,12.447814453125,8.10186767578125,5.2228546142578125,-0.4324493408203125
1663862566762641200,12.45764111328125,7.95343017578125,5.203704833984375,-0.5904693603515625
1663862566772529000,12.46752880859375,8.042007446289062,4.97625732421875,-0.461181640625
1663862566782416600,12.477416748046876,8.252700805664062,4.6745758056640625,-0.391754150390625
1663862566792304000,12.48730419921875,8.868011474609375,4.3082733154296875,-0.5952606201171875
1663862566802192000,12.49719189453125,9.756256103515625,4.305877685546875,-0.70538330078125
1663862566812079600,12.50707958984375,10.333267211914062,4.4591064453125,-1.0764923095703125
1663862566821937000,12.51693701171875,10.824081420898438,4.624298095703125,-1.5074462890625
1663862566831824400,12.526824462890625,11.180816650390625,4.5931854248046875,-2.06768798828125
1663862566841712000,12.536712158203125,10.886322021484375,4.41839599609375,-2.3071136474609375
1663862566851600000,12.546599853515625,10.704360961914062,4.40643310546875,-2.1514892578125
1663862566861487600,12.556487548828125,10.271011352539062,4.3465728759765625,-1.8689727783203125
1663862566871375400,12.566375244140625,10.249465942382812,3.915618896484375,-2.314300537109375
1663862566881262800,12.576262939453125,9.966949462890625,4.011383056640625,-2.0222015380859375
1663862566891120000,12.5861201171875,9.562332153320312,4.4423370361328125,-1.3518218994140625
1663862566901008000,12.5960078125,8.736328125,4.73443603515625,-0.9400177001953125
1663862566910895600,12.6058955078125,8.288619995117188,4.9020233154296875,-0.583282470703125
1663862566920783000,12.615783203125,7.979766845703125,4.717681884765625,-0.6598968505859375
1663862566930670800,12.6256708984375,7.5488128662109375,4.7320404052734375,-0.676666259765625
1663862566940558600,12.63555859375,7.5511932373046875,4.44952392578125,-0.6551055908203125
1663862566950446300,12.6454462890625,7.852874755859375,4.169403076171875,-0.3630218505859375
1663862566960334000,12.655333984375,7.685272216796875,4.44952392578125,0.04638671875
1663862566970221600,12.6652216796875,7.579925537109375,4.712890625,-0.4013214111328125
1663862566980078800,12.675078857421875,7.0005340576171875,5.0815887451171875,-0.8131256103515625
1663862566989966600,12.684966552734375,6.69647216796875,5.3665008544921875,-1.270416259765625
1663862566999854300,12.694854248046875,6.9694061279296875,5.0815887451171875,-1.428436279296875
1663862567009711400,12.70471142578125,7.081939697265625,4.823028564453125,-1.344635009765625
1663862567019599000,12.71459912109375,7.4793701171875,4.8685150146484375,-1.402099609375
1663862567029456400,12.724456298828125,8.57830810546875,4.708099365234375,-1.4571685791015625
1663862567039344000,12.73434423828125,9.018844604492188,4.49261474609375,-1.3398590087890625
1663862567049231600,12.744231689453125,9.176864624023438,4.6362762451171875,-1.6726531982421875
1663862567059119400,12.754119384765625,9.184051513671875,5.34735107421875,-2.632720947265625
1663862567069007000,12.764007080078125,8.468185424804688,5.9363250732421875,-3.4180145263671875
1663862567078894800,12.773894775390625,7.567962646484375,5.8980255126953125,-3.49462890625
1663862567088751900,12.783751953125,6.4450836181640625,5.8261871337890625,-2.8793182373046875
1663862567098639600,12.7936396484375,5.4371185302734375,5.9818115234375,-2.230499267578125
1663862567108497000,12.803496826171875,5.097137451171875,6.1494140625,-2.0964202880859375
1663862567118415000,12.8134150390625,5.212066650390625,6.00335693359375,-2.1275482177734375
1663862567128302800,12.823302734375,5.69329833984375,5.6945037841796875,-2.082061767578125
1663862567138190300,12.8331904296875,6.4977569580078125,5.4598846435546875,-1.6582794189453125
1663862567148078000,12.843078125,7.239959716796875,5.268341064453125,-1.327880859375
1663862567157965800,12.8529658203125,7.939056396484375,5.024139404296875,-1.0334014892578125
1663862567167823000,12.862822998046875,8.501693725585938,4.844573974609375,-0.8394622802734375
