time,seconds_elapsed,z,y,x
1663862554551429600,0.2464296875,5.781104564666748,0.028928637504577637,2.742260694503784
1663862554561317400,0.2563173828125,3.9220709800720215,1.306319236755371,2.6655287742614746
1663862554571205000,0.266205078125,2.5494370460510254,1.5863323211669922,2.0707359313964844
1663862554581092900,0.2760927734375,1.6377296447753906,0.5353095531463623,1.6995429992675781
1663862554590980400,0.28598046875,1.799896240234375,-0.4376194477081299,1.546937108039856
1663862554600868000,0.2958681640625,2.29940128326416,-0.6966269016265869,1.2316306829452515
1663862554610755800,0.305755859375,2.072643280029297,-0.6683876514434814,0.5263066291809082
1663862554620643600,0.3156435546875,1.2896251678466797,-0.5504417419433594,-0.2183750867843628
1663862554630531300,0.32553125,0.3378915786743164,-0.5690357685089111,-1.6462746858596802
1663862554640418800,0.335418701171875,-0.29663848876953125,-0.7609505653381348,-2.9667797088623047
1663862554650306600,0.345306640625,0.37187671661376953,-1.1943457126617432,-1.8328180313110352
1663862554660133400,0.35513330078125,1.5984172821044922,-1.2872567176818848,0.35834693908691406
1663862554669990400,0.364990478515625,2.5872373580932617,-0.8482413291931152,1.2860268354415894
1663862554679908600,0.37490869140625,2.5620479583740234,-0.1643829345703125,1.353091835975647
1663862554689796400,0.38479638671875,1.418818473815918,0.5504438877105713,1.4242771863937378
1663862554699684000,0.39468408203125,0.3424396514892578,1.094048023223877,1.7252289056777954
1663862554709571800,0.40457177734375,-0.1771240234375,1.1987173557281494,1.7340147495269775
1663862554719428900,0.414428955078125,-0.3634681701660156,0.6520109176635742,1.0719380378723145
1663862554729316600,0.424316650390625,0.047272682189941406,-0.3361325263977051,0.05675828456878662
1663862554739174000,0.434173828125,0.8856277465820312,-1.048851490020752,-0.754352331161499
1663862554749092000,0.444092041015625,1.1471242904663086,-1.1595830917358398,-1.1398406028747559
1663862554758979600,0.4539794921875,0.9157562255859375,-0.694739818572998,-0.7388433218002319
1663862554768867300,0.463867431640625,0.5176544189453125,0.02271127700805664,0.09766125679016113
1663862554778724600,0.473724609375,-0.4646749496459961,0.6900272369384766,0.9581353664398193
1663862554788581600,0.48358154296875,-0.8774137496948242,1.136629581451416,1.1433285474777222
1663862554798469400,0.493469482421875,-1.0028257369995117,1.3425214290618896,1.4392712116241455
1663862554808357000,0.503357177734375,-0.8692636489868164,1.003852367401123,1.2723824977874756
1663862554818214400,0.51321435546875,-0.6274728775024414,0.05077815055847168,0.4818207025527954
1663862554828132600,0.523132568359375,-0.29340076446533203,-0.789086103439331,-0.21225881576538086
1663862554838020400,0.533020263671875,0.20434284210205078,-0.9284765720367432,-0.7722914218902588
1663862554847907800,0.542907958984375,0.42312049865722656,-0.47398805618286133,-0.35809898376464844
1663862554857795600,0.552795654296875,-0.10011482238769531,0.5697181224822998,0.5575743913650513
1663862554867683300,0.562683349609375,-0.7673521041870117,1.152827501296997,1.2915202379226685
1663862554877571000,0.572571044921875,-0.4657611846923828,0.9629669189453125,0.6641097068786621
1663862554887458800,0.582458740234375,0.39257144927978516,0.6739530563354492,0.19863033294677734
1663862554897315800,0.59231591796875,0.6799812316894531,-0.24158287048339844,0.3026094436645508
1663862554907203600,0.60220361328125,1.1235570907592773,-0.802391529083252,0.07186996936798096
1663862554917060900,0.612060791015625,1.460531234741211,-0.5298666954040527,0.06807589530944824
1663862554926948400,0.6219482421875,1.5743989944458008,-0.22418928146362305,1.0838998556137085
1663862554936836000,0.631836181640625,1.3093070983886719,-0.5215733051300049,1.1472265720367432
1663862554946723800,0.641723876953125,0.544041633605957,-0.6134343147277832,-0.03698933124542236
1663862554956611600,0.651611572265625,-0.27112674713134766,-0.11627411842346191,-0.7610136270523071
1663862554966468600,0.661468505859375,-0.7772598266601562,0.7096588611602783,-0.5300495624542236
1663862554976356400,0.6713564453125,-1.5692338943481445,1.243598461151123,0.4359126091003418
1663862554986244000,0.681244140625,-1.335566520690918,1.129103183746338,1.129625678062439
1663862554996101400,0.691101318359375,0.23467445373535156,0.5184788703918457,1.8820877075195312
1663862555006019600,0.70101953125,1.938115119934082,-0.06950879096984863,2.011936664581299
1663862555015907000,0.710906982421875,2.4800662994384766,-0.3549323081970215,1.0007404088974
1663862555025794800,0.720794921875,1.2239751815795898,-0.6169948577880859,-0.3022693395614624
1663862555035682600,0.7306826171875,-0.5208339691162109,-0.6552045345306396,-0.8725325465202332
1663862555045570300,0.7405703125,-0.42183780670166016,-0.2966494560241699,-0.007769197225570679
1663862555055458000,0.7504580078125,0.5401840209960938,-0.009535551071166992,0.19544509053230286
1663862555065345800,0.760345703125,1.331080436706543,-0.1890261173248291,0.5531821250915527
1663862555075202800,0.770202880859375,1.5027246475219727,-0.6431622505187988,0.05937930941581726
1663862555085060000,0.78006005859375,0.4810819625854492,-0.9960248470306396,-0.5742788314819336
1663862555094947800,0.78994775390625,0.0035467147827148438,-0.930866003036499,-0.7409271001815796
1663862555104835300,0.79983544921875,0.3621969223022461,-0.45725440979003906,0.29564201831817627
1663862555114692600,0.809692626953125,-0.1086587905883789,0.07945013046264648,1.0866395235061646
1663862555124610800,0.81961083984375,0.32564353942871094,0.7676403522491455,1.4315953254699707
1663862555134498600,0.82949853515625,0.006457328796386719,0.7140369415283203,1.1036628484725952
1663862555144386300,0.83938623046875,-0.7118320465087891,-0.3229513168334961,-0.10265728831291199
1663862555154273800,0.849273681640625,0.22034358978271484,-0.670879602432251,-0.5021971464157104
1663862555164161500,0.85916162109375,1.0585241317749023,-0.6047549247741699,-0.016186360269784927
1663862555174049300,0.86904931640625,1.141676902770996,-0.6984632015228271,0.6840017437934875
1663862555183906600,0.878906494140625,0.5598363876342773,-1.143951654434204,0.5706326365470886
1663862555193794000,0.8887939453125,0.10137557983398438,-1.3556890487670898,0.3423711061477661
1663862555203681800,0.898681884765625,-0.27588367462158203,-1.294182538986206,0.18955248594284058
1663862555213569500,0.908569580078125,-0.715662956237793,-0.2812662124633789,0.6357983946800232
1663862555223457300,0.918457275390625,-2.0830602645874023,-0.35229969024658203,-0.5424129962921143
1663862555233305000,0.92830517578125,-3.008737564086914,-1.404578685760498,-0.65378338098526
1663862555243192600,0.938192626953125,-3.554814338684082,-2.1009716987609863,-0.2522839307785034
1663862555253080300,0.948080322265625,-4.564303398132324,-2.6103317737579346,-0.6003140211105347
1663862555262968000,0.957968017578125,-5.691643714904785,-2.7054502964019775,-0.5995073318481445
1663862555272855800,0.967855712890625,-6.135707855224609,-2.5373308658599854,0.18809306621551514
1663862555282712800,0.977712890625,-5.985957145690918,-2.6688811779022217,0.7940541505813599
1663862555292570000,0.987570068359375,-5.808168888092041,-3.449244737625122,0.3773190975189209
1663862555302457900,0.997457763671875,-5.570023536682129,-4.149262428283691,-0.7083785533905029
1663862555312345600,1.007345703125,-5.5440826416015625,-4.1262054443359375,-2.1837871074676514
1663862555322233000,1.017233154296875,-5.317529201507568,-4.318756103515625,-3.757206439971924
1663862555332120800,1.027120849609375,-3.6817164421081543,-5.358366012573242,-5.438755989074707
1663862555342008600,1.037008544921875,-3.6784071922302246,-6.451741695404053,-6.672169208526611
1663862555351896300,1.046896240234375,-2.841517925262451,-7.544347763061523,-7.8514909744262695
1663862555361784000,1.0567841796875,-1.053175926208496,-8.771148681640625,-8.470287322998047
1663862555371671600,1.066671630859375,-1.3815946578979492,-9.689136505126953,-7.258579254150391
1663862555381559300,1.076559326171875,-2.985300064086914,-10.122442245483398,-4.574113845825195
1663862555391416600,1.08641650390625,-4.65930700302124,-9.958182334899902,-2.3340954780578613
1663862555401304300,1.09630419921875,-6.445932388305664,-9.439027786254883,-0.2035079002380371
1663862555411161300,1.106161376953125,-12.469500541687012,-7.970215797424316,2.9193272590637207
1663862555421049000,1.116049072265625,-11.989328384399414,-7.195586204528809,5.480229377746582
1663862555430936800,1.125936767578125,-1.6375751495361328,-8.800410270690918,3.061370849609375
1663862555440824600,1.135824462890625,5.322731018066406,-10.084441184997559,-0.010857105255126953
1663862555450681600,1.145681640625,4.6962056159973145,-9.441057205200195,1.746985912322998
1663862555460539000,1.155538818359375,-0.4643697738647461,-6.56571626663208,5.752466201782227
1663862555470457000,1.16545703125,-4.634578704833984,-4.095221519470215,7.883499622344971
1663862555480314400,1.175314453125,-2.129922389984131,-4.0315728187561035,8.136432647705078
1663862555490232600,1.185232666015625,3.0522427558898926,-4.593603610992432,7.504222393035889
1663862555500089600,1.195089599609375,4.57649040222168,-4.135772705078125,8.42184829711914
1663862555509947000,1.20494677734375,3.5289595127105713,-2.743380308151245,10.720277786254883
1663862555519865000,1.214864990234375,2.7088727951049805,-1.6194524765014648,12.170751571655273
1663862555529752800,1.2247529296875,4.108702659606934,-0.16907715797424316,13.777059555053711
1663862555539640300,1.234640380859375,5.924874782562256,1.7353856563568115,16.23139190673828
1663862555549528000,1.244528076171875,4.696174621582031,3.866065502166748,17.178804397583008
1663862555559415800,1.254415771484375,1.8643255233764648,5.143274307250977,16.500904083251953
1663862555569303600,1.264303466796875,-0.13367319107055664,5.2385969161987305,14.107154846191406
1663862555579160600,1.27416064453125,-0.9975228309631348,5.377927780151367,10.786979675292969
1663862555589048300,1.28404833984375,-1.5528368949890137,5.779707908630371,8.563560485839844
1663862555598905600,1.293905517578125,-2.1923024654388428,6.512594223022461,8.485957145690918
1663862555608793300,1.30379345703125,-2.24519419670105,7.885285377502441,10.294007301330566
1663862555618680800,1.313680908203125,-3.0676467418670654,9.147254943847656,11.056156158447266
1663862555628568600,1.323568603515625,-3.985755443572998,9.461128234863281,10.448738098144531
1663862555638456300,1.333456298828125,-4.379428863525391,8.703420639038086,8.679936408996582
1663862555648344000,1.343343994140625,-4.802393913269043,7.126161575317383,5.675632476806641
1663862555658201000,1.353201171875,-5.911195755004883,5.732931137084961,3.0577125549316406
1663862555668088800,1.3630888671875,-7.092228889465332,4.345722198486328,1.551590919494629
1663862555677946000,1.372946044921875,-7.083763122558594,1.6582963466644287,-0.9424896240234375
1663862555687833900,1.382833740234375,-7.2604899406433105,-1.0333292484283447,-3.134964942932129
1663862555697721600,1.3927216796875,-6.216272354125977,-2.0586469173431396,-2.4972753524780273
1663862555707639800,1.402639892578125,-3.6449499130249023,-3.480114459991455,-1.2450189590454102
1663862555717527300,1.41252734375,-3.8785741329193115,-4.6715006828308105,-2.042001724243164
1663862555727415000,1.4224150390625,-3.8621985912323,-3.117851495742798,-2.225191116333008
1663862555737272300,1.432272216796875,-3.590165138244629,-2.2322745323181152,-2.505125045776367
1663862555747129300,1.44212939453125,-5.512726306915283,0.45614147186279297,-2.298031806945801
1663862555757017000,1.45201708984375,-7.898377418518066,5.570052146911621,-1.7539072036743164
1663862555766904800,1.46190478515625,-4.307008743286133,6.537010192871094,-2.457364082336426
1663862555776792600,1.47179248046875,11.351448059082031,-2.4501144886016846,1.160989761352539
1663862555786680300,1.481680419921875,19.6213321685791,-4.583765029907227,8.577787399291992
1663862555796567800,1.49156787109375,14.657937049865723,-0.4357340335845947,13.53531551361084
1663862555806455600,1.50145556640625,1.8136160373687744,-0.0028619766235351562,7.535029411315918
1663862555816343300,1.51134326171875,-5.939474105834961,2.1794023513793945,5.5091352462768555
1663862555826231000,1.52123095703125,-6.556751728057861,0.9472866058349609,7.332468032836914
1663862555836118800,1.531118896484375,-1.1445221900939941,-1.2074015140533447,8.994275093078613
1663862555846006300,1.54100634765625,1.8227542638778687,-2.7747559547424316,7.5801544189453125
1663862555855894000,1.55089404296875,2.2701380252838135,-3.6512374877929688,4.0762786865234375
1663862555865781800,1.56078173828125,-1.508533000946045,-6.938077926635742,-9.319589614868164
1663862555875639000,1.57063916015625,0.1250619888305664,-10.236127853393555,-23.767223358154297
1663862555885526500,1.580526611328125,-3.113243579864502,-3.9639229774475098,-16.79636001586914
1663862555895414300,1.590414306640625,-4.594860553741455,2.1288816928863525,-7.6817731857299805
1663862555905302000,1.600302001953125,-3.016308307647705,1.8476862907409668,-7.636107444763184
1663862555915189800,1.610189697265625,-4.438899517059326,0.5274460315704346,-10.470305442810059
1663862555925047000,1.620047119140625,-7.734899044036865,0.025032758712768555,-14.095134735107422
1663862555934934500,1.6299345703125,-8.641095161437988,-2.1353862285614014,-17.91256332397461
1663862555944822300,1.639822265625,-1.3142142295837402,-6.0777411460876465,-16.802392959594727
1663862555954679600,1.649679443359375,1.8014607429504395,-8.286720275878906,-7.973758697509766
1663862555964567300,1.6595673828125,8.75439453125,-6.534423351287842,1.72697114944458
1663862555974454800,1.669454833984375,15.401421546936035,-4.872788429260254,5.543774604797363
1663862555984342500,1.679342529296875,8.220293045043945,-5.196772575378418,14.032947540283203
1663862555994199800,1.68919970703125,-2.888327121734619,-5.215721130371094,18.665815353393555
1663862556004087600,1.699087646484375,-7.852312088012695,-6.91861629486084,13.700006484985352
1663862556013975000,1.70897509765625,-8.33456802368164,-8.319625854492188,6.2773613929748535
1663862556023862800,1.71886279296875,-2.9383106231689453,-5.162440299987793,6.140721321105957
1663862556033750500,1.72875048828125,-1.671156883239746,-2.200430393218994,8.086688995361328
1663862556043638300,1.73863818359375,-1.8374309539794922,-1.0487351417541504,6.527281284332275
1663862556053526000,1.748526123046875,0.47227054834365845,0.2053666114807129,4.153985977172852
1663862556063413500,1.75841357421875,4.796504974365234,-5.4141364097595215,-4.742136478424072
1663862556073301200,1.76830126953125,0.9222919940948486,-4.695596694946289,-6.7594499588012695
1663862556083158500,1.778158447265625,-2.6861889362335205,-0.19069719314575195,-0.5227451324462891
1663862556093046300,1.78804638671875,-0.9526984095573425,0.8527650833129883,0.8437085151672363
1663862556102933800,1.797933837890625,0.42359447479248047,0.8494462966918945,0.2348804473876953
1663862556112821500,1.807821533203125,-0.5664168000221252,0.5279412269592285,-0.28723669052124023
1663862556122709200,1.817709228515625,-0.8912055492401123,0.23711776733398438,-0.9991402626037598
1663862556132597000,1.827596923828125,-0.6671176552772522,-0.6727566719055176,-1.7351298332214355
1663862556142454000,1.8374541015625,-0.13277769088745117,-1.750040054321289,-1.3602824211120605
1663862556152341800,1.847341796875,0.3624922037124634,-1.7937464714050293,-0.5844368934631348
1663862556162229500,1.8572294921875,1.360598087310791,-2.323561668395996,-0.6733250617980957
1663862556172117200,1.8671171875,0.13986939191818237,-3.1970038414001465,-2.18355655670166
1663862556182005000,1.8770048828125,-0.9154492616653442,-2.80802059173584,-2.8895621299743652
1663862556191862000,1.886862060546875,0.509773850440979,-1.1806550025939941,-1.597139835357666
1663862556201749800,1.896749755859375,0.9776011109352112,-0.11777305603027344,-0.04967308044433594
1663862556211637500,1.906637451171875,0.4906385540962219,2.0003175735473633,2.5492634773254395
1663862556221525200,1.916525146484375,0.4110487699508667,1.5334906578063965,2.386539936065674
1663862556231413000,1.9264130859375,0.20032256841659546,-0.7686305046081543,-0.2815394401550293
1663862556241270000,1.93627001953125,-0.5723016262054443,-1.7559819221496582,-2.5451178550720215
1663862556251157800,1.94615771484375,0.25998973846435547,-1.095573902130127,-4.4709649085998535
1663862556261045500,1.95604541015625,-0.27162259817123413,1.1205415725708008,-5.424558639526367
1663862556270933200,1.965933349609375,-0.8596393465995789,3.182650089263916,-3.762939929962158
1663862556280820700,1.97582080078125,0.26770728826522827,5.044219017028809,-2.3460187911987305
1663862556290708500,1.98570849609375,-1.4253343343734741,5.163399696350098,-1.5938682556152344
1663862556300565800,1.995565673828125,-3.020448923110962,4.331337928771973,-1.8055157661437988
1663862556310453500,2.00545361328125,-2.243506908416748,3.762331008911133,-0.5212116241455078
1663862556320341000,2.015341064453125,-4.720053195953369,2.930065155029297,-1.2519149780273438
1663862556330228700,2.025228759765625,-5.935448169708252,0.7414417266845703,-0.607778787612915
1663862556340116500,2.035116455078125,8.59270191192627,-5.216941833496094,-1.5466828346252441
1663862556349973800,2.044973876953125,5.986400604248047,-5.343262672424316,-3.812603712081909
1663862556359861200,2.054861328125,-2.2669193744659424,-5.940524101257324,-1.3218276500701904
1663862556369749000,2.0647490234375,-6.072420120239258,-3.15462589263916,-0.289247989654541
1663862556379636700,2.07463671875,-1.971624493598938,-0.23501873016357422,1.8464360237121582
1663862556389524500,2.0845244140625,1.322113037109375,3.6300249099731445,2.231844425201416
1663862556399412200,2.094412109375,0.25928032398223877,7.422096252441406,2.423776149749756
1663862556409269200,2.104269287109375,2.1164679527282715,7.163505554199219,1.3612114191055298
1663862556419157000,2.114156982421875,4.166916370391846,6.189425468444824,0.3154757022857666
1663862556429044700,2.124044677734375,2.321298599243164,8.006714820861816,-0.20848524570465088
1663862556438932500,2.133932373046875,2.5667333602905273,10.884657859802246,0.0338975191116333
1663862556448820200,2.1438203125,1.9753423929214478,9.790042877197266,-0.6014660596847534
1663862556458677200,2.15367724609375,0.9886215925216675,2.892951011657715,-3.0581724643707275
1663862556468534500,2.163534423828125,-2.3790364265441895,-25.01544761657715,-11.746952056884766
1663862556478391600,2.1733916015625,-1.3486881256103516,-30.030771255493164,-11.97848892211914
1663862556488279300,2.183279296875,-1.5488295555114746,-17.32677459716797,10.479687690734863
1663862556498167000,2.1931669921875,-1.1611721515655518,2.487367630004883,20.48988151550293
1663862556508085200,2.203085205078125,-0.04269242286682129,-2.750359535217285,7.78375768661499
1663862556517973000,2.212972900390625,-1.2483304738998413,-8.963976860046387,-1.5368447303771973
1663862556527830000,2.222830078125,-1.4788497686386108,-6.790535926818848,-2.680739164352417
1663862556537687300,2.232687255859375,-1.030351161956787,-1.5365476608276367,-2.563045024871826
1663862556547575000,2.242574951171875,-1.2619212865829468,3.484429359436035,-3.356873035430908
1663862556557462800,2.252462890625,-1.3448457717895508,1.3500690460205078,-6.041988372802734
1663862556567319800,2.26231982421875,-2.094438314437866,-3.0904903411865234,-4.794687747955322
1663862556577238000,2.272238037109375,-0.8053534030914307,-2.5829076766967773,-0.9549441337585449
1663862556587125800,2.282125732421875,-0.06370505690574646,-2.809173583984375,0.4403333365917206
1663862556596983000,2.291983154296875,-0.2620391249656677,-4.17070198059082,0.33287814259529114
1663862556606870500,2.30187060546875,-0.6515268087387085,-4.2104387283325195,0.0028525888919830322
1663862556616758300,2.31175830078125,-0.7040812969207764,-3.2544593811035156,-0.2106287181377411
1663862556626646000,2.32164599609375,-0.326335608959198,-2.3443241119384766,-0.5207383632659912
1663862556636533800,2.33153369140625,-0.1467759609222412,-1.6395397186279297,-1.0437709093093872
1663862556646390800,2.341390869140625,0.11160135269165039,-0.7196254730224609,-2.0095345973968506
1663862556656309200,2.351309326171875,4.023103713989258,2.179774284362793,-2.839728593826294
1663862556666196700,2.36119677734375,1.4659044742584229,6.066440582275391,-1.2711037397384644
1663862556676084500,2.37108447265625,-2.4438118934631348,4.353213310241699,-0.8311606645584106
1663862556685972200,2.38097216796875,-2.327580451965332,0.908574104309082,-0.385792076587677
1663862556695860000,2.39085986328125,-1.1417657136917114,-0.12478256225585938,0.032998744398355484
1663862556705747700,2.400747802734375,-0.5018477439880371,-0.22055625915527344,0.6250576376914978
1663862556715635200,2.41063525390625,-0.36141833662986755,-0.37889862060546875,0.5692234039306641
1663862556725492500,2.420492431640625,-0.5488075613975525,-1.2110252380371094,0.029895998537540436
1663862556735380200,2.430380126953125,-1.0877320766448975,-1.07781982421875,1.2620670795440674
1663862556745268000,2.44026806640625,-1.2546210289001465,-0.6913652420043945,1.9530110359191895
1663862556755155500,2.450155517578125,-1.2668168544769287,-0.5705785751342773,1.7944656610488892
1663862556765043200,2.460043212890625,-1.0208539962768555,-0.6982908248901367,1.3816092014312744
1663862556774900500,2.469900390625,-0.8602522015571594,-0.7449464797973633,0.8272696733474731
1663862556784788200,2.479788330078125,-0.3612902760505676,-0.7155704498291016,0.24622292816638947
1663862556794645200,2.489645263671875,-0.2719946503639221,-0.3793478012084961,0.03373706340789795
1663862556804533000,2.499532958984375,-0.4765765070915222,-0.3714790344238281,-0.9457089900970459
1663862556814420700,2.509420654296875,-0.9701718688011169,-0.5566091537475586,-1.6721839904785156
1663862556824308500,2.51930859375,-0.8858852386474609,-0.8025474548339844,-1.8242006301879883
1663862556834196000,2.529196044921875,-0.5500800609588623,-0.8752717971801758,-1.3871477842330933
1663862556844083700,2.539083740234375,-0.5423993468284607,-0.9522037506103516,-0.8087782263755798
1663862556853971500,2.548971435546875,-0.6253990530967712,-0.4589977264404297,-0.08494646847248077
1663862556863859200,2.558859130859375,-0.802841305732727,-0.49731922149658203,0.07096806168556213
1663862556873747000,2.568746826171875,-1.0321950912475586,-0.1995372772216797,0.3974509835243225
1663862556883604000,2.57860400390625,-1.1065818071365356,0.0036869049072265625,0.5081263780593872
1663862556893491700,2.58849169921875,-1.2992393970489502,0.246246337890625,0.49227645993232727
1663862556903379500,2.59837939453125,-1.7898471355438232,0.2728996276855469,0.2798217236995697
1663862556913267200,2.60826708984375,-2.064206123352051,0.2037029266357422,0.03443773090839386
1663862556923155000,2.618155029296875,-1.8159425258636475,0.1773242950439453,-0.12394984066486359
1663862556933042400,2.62804248046875,-1.7757809162139893,0.1268939971923828,-0.33814120292663574
1663862556942899700,2.637899658203125,-2.093127965927124,0.11690044403076172,-0.5250744819641113
1663862556952787500,2.647787353515625,-2.3354365825653076,0.31612491607666016,-0.5468222498893738
1663862556962675200,2.65767529296875,-2.5115654468536377,0.6446142196655273,-0.6111435294151306
1663862556972562700,2.667562744140625,-2.3023223876953125,1.0060358047485352,-0.7332990169525146
1663862556982450400,2.677450439453125,-2.0370421409606934,1.2212715148925781,-0.8133059740066528
1663862556992307700,2.6873076171875,-2.005087375640869,1.4053764343261719,-0.9628753662109375
1663862557002195500,2.697195556640625,-1.5519095659255981,1.672755241394043,-1.0630402565002441
1663862557012083000,2.7070830078125,-0.94510817527771,2.163698196411133,-0.8682252168655396
1663862557021970700,2.716970703125,-0.7675162553787231,2.4812021255493164,-0.8866815567016602
1663862557031858400,2.7268583984375,-0.8884040117263794,2.4897947311401367,-1.134792447090149
1663862557041715700,2.7367158203125,-0.46067357063293457,2.2650365829467773,-1.1581871509552002
1663862557051603200,2.746603271484375,-0.2451092004776001,2.164473533630371,-0.798469066619873
1663862557061491000,2.756490966796875,-0.3065084218978882,2.1168289184570312,-0.15258070826530457
1663862557071378700,2.766378662109375,0.5031149387359619,2.124274253845215,0.7129075527191162
1663862557081266400,2.776266357421875,1.0948762893676758,2.096489906311035,1.3313132524490356
1663862557091154200,2.786154296875,0.7980144023895264,2.04500675201416,1.4697717428207397
1663862557101011200,2.79601123046875,-0.31522512435913086,1.8339691162109375,1.1370022296905518
1663862557110899000,2.80589892578125,-1.3770952224731445,1.5396480560302734,0.6610990166664124
1663862557120786700,2.81578662109375,-0.27254581451416016,1.090590476989746,0.5323451161384583
1663862557130674400,2.82567431640625,1.2634344100952148,0.6301374435424805,0.6874943971633911
1663862557140562200,2.835562255859375,1.8507390022277832,0.5516490936279297,0.8675658106803894
1663862557150419200,2.845419189453125,1.218513011932373,0.7730436325073242,0.8205708265304565
1663862557160307000,2.855306884765625,0.31008338928222656,0.9986047744750977,0.6170077323913574
1663862557170194700,2.865194580078125,-0.3124239444732666,1.1731595993041992,0.22475355863571167
1663862557180082400,2.87508251953125,-0.519057035446167,1.3314762115478516,-0.26855093240737915
1663862557189970000,2.884969970703125,0.07878637313842773,1.5865192413330078,-0.4115018844604492
1663862557199857700,2.894857666015625,-0.19140172004699707,1.5105772018432617,-0.365136981010437
1663862557209715000,2.90471484375,-0.4955298900604248,1.055373191833496,-0.30581021308898926
1663862557219602700,2.914602783203125,-2.018739700317383,0.27876853942871094,-0.2715105414390564
1663862557229459700,2.924459716796875,-4.55203914642334,-1.1851615905761719,-0.151228666305542
1663862557239347500,2.934347412109375,-7.515890121459961,-3.730353355407715,-0.11523836851119995
1663862557249235200,2.944235107421875,-9.352714538574219,-6.984126091003418,0.1568935513496399
1663862557259123000,2.954123046875,-8.041217803955078,-9.907992362976074,0.834132730960846
1663862557269010400,2.964010498046875,-6.040456771850586,-11.451972007751465,1.6855584383010864
1663862557278867700,2.97386767578125,-4.962467670440674,-11.475656509399414,2.1693947315216064
1663862557288755500,2.98375537109375,-3.7357640266418457,-11.394433975219727,1.658132553100586
1663862557298643200,2.993643310546875,-1.9170937538146973,-11.569868087768555,0.7258700132369995
1663862557308530700,3.00353076171875,-0.26418304443359375,-11.764410018920898,-0.3639155328273773
1663862557318418400,3.01341845703125,1.0185632705688477,-11.155372619628906,-1.2179263830184937
1663862557328306200,3.02330615234375,1.630103588104248,-9.776578903198242,-1.1176090240478516
1663862557338194000,3.03319384765625,2.026541233062744,-7.57228946685791,-0.7219132781028748
1663862557348081700,3.04308154296875,2.7802867889404297,-5.001832008361816,-0.343319833278656
1663862557357969200,3.05296923828125,3.4159936904907227,-3.1177353858947754,-0.18493109941482544
1663862557367826400,3.062826416015625,2.7349367141723633,-2.3659801483154297,-1.395904779434204
1663862557377683700,3.07268359375,0.7306623458862305,-2.5720572471618652,-4.014466285705566
1663862557387571500,3.082571533203125,0.03845834732055664,-3.272386074066162,-6.132669448852539
1663862557397428500,3.092428466796875,1.6725273132324219,-3.2565255165100098,-5.435388088226318
1663862557407346700,3.1023466796875,3.798614978790283,-1.9648189544677734,-3.435138702392578
1663862557417204000,3.112203857421875,4.945797443389893,-0.17237329483032227,-2.530290126800537
1663862557427091700,3.122091796875,5.395747661590576,1.2375268936157227,-2.620999813079834
1663862557436979200,3.131979248046875,5.431889057159424,2.129934310913086,-2.8062150478363037
1663862557446867000,3.141866943359375,5.540548801422119,2.832144260406494,-2.496338367462158
1663862557456724200,3.15172412109375,5.688080310821533,3.255096435546875,-1.836237907409668
1663862557466612000,3.161612060546875,5.778010845184326,3.297982692718506,-1.255728840827942
1663862557476499500,3.17149951171875,5.641263008117676,3.305727958679199,-0.753632664680481
1663862557486356700,3.181356689453125,5.250363826751709,3.557063579559326,-0.39201879501342773
1663862557506132200,3.20113232421875,4.373583793640137,4.33748722076416,-0.9464706182479858
1663862557516019700,3.211019775390625,4.144115447998047,4.731720447540283,-1.9388535022735596
1663862557525907500,3.220907470703125,3.938225746154785,4.989748477935791,-2.9846231937408447
1663862557535795200,3.230795166015625,3.806861400604248,5.0807061195373535,-3.734797239303589
1663862557545683000,3.240682861328125,4.0815324783325195,5.049007892608643,-3.6660497188568115
1663862557555570700,3.25057080078125,4.3816986083984375,4.802731513977051,-2.8143186569213867
1663862557565458200,3.260458251953125,3.7994537353515625,4.268835067749023,-1.7154929637908936
1663862557575315500,3.2703154296875,2.0656518936157227,3.2033872604370117,-0.7514634728431702
1663862557585203200,3.280203125,0.5199604034423828,1.414865493774414,-0.06665003299713135
1663862557595091000,3.290091064453125,-0.03851318359375,-0.7488136291503906,0.8849234580993652
1663862557604948000,3.299947998046875,0.41358232498168945,-2.7706098556518555,2.63272762298584
1663862557614835700,3.309835693359375,1.0854511260986328,-4.869301795959473,4.50509786605835
1663862557624723500,3.319723388671875,0.8791399002075195,-6.6093950271606445,5.428791046142578
1663862557634611200,3.329611083984375,0.8174972534179688,-6.422144889831543,5.086243152618408
1663862557644499000,3.3394990234375,0.35100626945495605,-4.412710189819336,3.533627986907959
1663862557654356000,3.34935595703125,0.7043440341949463,-1.4689626693725586,1.3083500862121582
1663862557664243700,3.35924365234375,1.4962470531463623,0.5584802627563477,-0.8467464447021484
1663862557674131500,3.36913134765625,1.628720760345459,1.1165151596069336,-2.408170223236084
1663862557684019200,3.379019287109375,0.6728038787841797,1.0888566970825195,-3.293226718902588
1663862557693906700,3.38890673828125,-1.0131282806396484,1.0042495727539062,-3.3683993816375732
1663862557703794400,3.39879443359375,-1.1099252700805664,1.0377178192138672,-3.430994987487793
1663862557713651700,3.408651611328125,-1.1958274841308594,1.0656023025512695,-3.476302146911621
1663862557723539500,3.41853955078125,-1.269294261932373,1.0881433486938477,-3.510443687438965
1663862557733427000,3.428427001953125,-1.333813190460205,1.106989860534668,-3.539829969406128
1663862557743314700,3.438314697265625,-1.3944430351257324,1.1240148544311523,-3.5717504024505615
1663862557753172000,3.448171875,-1.4536595344543457,1.1400270462036133,-3.6098244190216064
1663862557763059700,3.458059814453125,-1.51163911819458,1.1550283432006836,-3.6508586406707764
1663862557772947200,3.467947265625,-1.5686979293823242,1.169142723083496,-3.6867761611938477
1663862557782835000,3.4778349609375,1.125415325164795,0.7922420501708984,-1.2335541248321533
1663862557792722700,3.48772265625,1.3023855686187744,0.5780029296875,-1.1005504131317139
1663862557802610400,3.4976103515625,1.1325087547302246,0.33658599853515625,-0.5719257593154907
1663862557812498200,3.507498291015625,0.8895003795623779,0.05221748352050781,0.3048231899738312
1663862557822385700,3.5173857421875,0.25798702239990234,-0.3972320556640625,0.9914259910583496
1663862557832273400,3.5272734375,-1.0665950775146484,-1.4021120071411133,1.3511189222335815
1663862557842161200,3.5371611328125,-3.570971727371216,-3.296891212463379,1.5632965564727783
1663862557852049000,3.547048828125,-6.841031074523926,-5.173921585083008,1.4763129949569702
1663862557871763200,3.56676318359375,-8.955212593078613,-7.697176933288574,0.9442758560180664
1663862557881651000,3.57665087890625,-6.947681427001953,-8.018342018127441,2.4835314750671387
1663862557891538700,3.58653857421875,-3.95149302482605,-7.022141456604004,4.83386754989624
1663862557901426400,3.596426513671875,-0.6181666851043701,-5.571950912475586,5.230683326721191
1663862557911283500,3.606283447265625,1.702141523361206,-4.023109436035156,1.030035138130188
1663862557921171200,3.616171142578125,1.105290412902832,-1.9753189086914062,-3.25203275680542
1663862557931059000,3.626058837890625,0.41371703147888184,-0.7168207168579102,-4.189087867736816
1663862557940946700,3.63594677734375,0.26229119300842285,-3.188444137573242,-3.5157253742218018
1663862557950834200,3.645834228515625,-4.215722560882568,-9.255277633666992,-1.7052252292633057
1663862557960691500,3.65569140625,-9.34986686706543,-13.396430015563965,1.9766743183135986
1663862557970579200,3.6655791015625,-2.3398690223693848,-10.060108184814453,6.211728572845459
1663862557980436200,3.675436279296875,8.670957565307617,-2.0839109420776367,6.07214879989624
1663862557990324000,3.685323974609375,6.219010353088379,-0.2268533706665039,0.446052223443985
1663862558000211700,3.695211669921875,1.8353760242462158,-1.3386850357055664,-1.2575609683990479
1663862558010099500,3.705099365234375,4.8961920738220215,-2.051382064819336,0.6067060232162476
1663862558019987200,3.7149873046875,6.195640563964844,-1.7614269256591797,2.632732391357422
1663862558029874700,3.724874755859375,3.7297840118408203,-1.5743532180786133,3.09334659576416
1663862558039762400,3.734762451171875,2.3425729274749756,-2.0295066833496094,2.539123058319092
1663862558049650200,3.744650146484375,2.1880791187286377,-2.542721748352051,1.9609127044677734
1663862558059507500,3.754507568359375,1.747363567352295,-2.5735645294189453,1.3042758703231812
1663862558069395000,3.76439501953125,1.614535927772522,-2.5453529357910156,1.2399098873138428
1663862558079282700,3.77428271484375,1.4939682483673096,-2.5206422805786133,1.1882516145706177
1663862558089140000,3.784139892578125,1.38698410987854,-2.4985008239746094,1.1561307907104492
1663862558099058200,3.79405810546875,1.2929704189300537,-2.4779796600341797,1.1466268301010132
1663862558108946000,3.80394580078125,1.2125777006149292,-2.4589691162109375,1.1562879085540771
1663862558128721200,3.82372119140625,-2.127079486846924,1.0807981491088867,-3.974135160446167
1663862558138578400,3.833578369140625,-2.330796718597412,1.7154560089111328,-3.4632248878479004
1663862558148466200,3.843466064453125,-2.610487937927246,2.1077442169189453,-2.8221442699432373
1663862558158384400,3.85338427734375,-2.5032167434692383,2.372770309448242,-2.0498664379119873
1663862558168272100,3.863272216796875,-2.491683006286621,2.5924243927001953,-0.9836629629135132
1663862558178159600,3.87315966796875,-3.048863172531128,2.71944522857666,0.27000799775123596
1663862558188047400,3.88304736328125,-3.8898394107818604,2.598546028137207,1.3419504165649414
1663862558197935000,3.89293505859375,-4.54567813873291,2.315570831298828,2.3226284980773926
1663862558207792400,3.90279248046875,-4.672213077545166,1.989567756652832,3.2808611392974854
1663862558217649400,3.9126494140625,-3.948970317840576,1.6560420989990234,3.8920657634735107
1663862558227537200,3.922537109375,-3.0336081981658936,1.479680061340332,3.72190260887146
1663862558237394400,3.93239453125,-2.3968796730041504,1.7512569427490234,2.9138455390930176
1663862558247312600,3.942312744140625,-1.987430214881897,2.495142936706543,1.6102073192596436
1663862558257169700,3.952169677734375,-0.6883206367492676,3.5379791259765625,0.39905285835266113
1663862558267088000,3.962087890625,1.0288236141204834,4.514213562011719,-0.325140118598938
1663862558276945200,3.971945068359375,0.7196216583251953,5.244035720825195,-0.8580889105796814
1663862558286802200,3.98180224609375,0.20194673538208008,5.564362525939941,-1.2597861289978027
1663862558296690000,3.99168994140625,1.7534117698669434,5.51239013671875,-1.2396206855773926
1663862558306577700,4.00157763671875,4.656325340270996,5.179630279541016,-0.8593313097953796
1663862558316465400,4.01146533203125,4.694665908813477,4.459556579589844,-0.7919231057167053
1663862558326353200,4.021353271484375,2.3360965251922607,3.488764762878418,-0.9245001673698425
1663862558336240600,4.03124072265625,0.8128745555877686,2.263228416442871,-1.0550357103347778
1663862558346098000,4.041097900390625,0.8219866752624512,0.9027299880981445,-1.08553946018219
1663862558356016000,4.05101611328125,0.8016948699951172,-0.36818408966064453,-0.9104613065719604
1663862558365904000,4.06090380859375,-0.22939395904541016,-1.6768178939819336,-0.602202296257019
1663862558375791600,4.07079150390625,-1.4409327507019043,-2.766341209411621,-0.23232436180114746
1663862558385679400,4.080679443359375,-1.6709649562835693,-3.318596839904785,-0.20525455474853516
1663862558395536400,4.090536376953125,-2.2475202083587646,-3.0883607864379883,-0.8016645312309265
1663862558405424000,4.100424072265625,-4.892669677734375,-2.2073516845703125,-1.6504857540130615
1663862558415281400,4.110281494140625,-6.409637451171875,-1.895350456237793,-2.8566222190856934
1663862558425199600,4.12019970703125,-7.289972305297852,-3.127621650695801,-4.670081615447998
1663862558435087000,4.130087158203125,-7.361266613006592,-5.357443809509277,-6.318997859954834
1663862558444974800,4.139974853515625,-6.130474090576172,-7.370687484741211,-6.1911821365356445
1663862558454862600,4.149862548828125,-5.60090446472168,-9.204745292663574,-3.76926851272583
1663862558474577000,4.169576904296875,-2.0210022926330566,-14.133480072021484,-1.0417364835739136
1663862558484464600,4.179464599609375,-0.9673147201538086,-14.952601432800293,-0.7499516010284424
1663862558494352400,4.189352294921875,-0.9038705825805664,-14.212017059326172,-0.9616517424583435
1663862558504240000,4.199240234375,-0.8723688125610352,-12.273138046264648,0.22692275047302246
1663862558514127600,4.209127685546875,0.5929679870605469,-9.503914833068848,2.01247501373291
1663862558524015400,4.219015380859375,2.58717679977417,-6.106513977050781,3.1003146171569824
1663862558533872600,4.22887255859375,3.5192694664001465,-2.5061302185058594,2.308749198913574
1663862558543760400,4.238760498046875,3.0065321922302246,0.6221132278442383,0.6353974342346191
1663862558553647900,4.24864794921875,1.8811955451965332,1.9235267639160156,-1.3200955390930176
1663862558563535600,4.25853564453125,1.827528953552246,1.4834790229797363,-2.618000030517578
1663862558573393000,4.268392822265625,3.0846753120422363,0.753993034362793,-3.1179404258728027
1663862558583280600,4.27828076171875,3.998673439025879,0.7340102195739746,-2.8808653354644775
1663862558593168100,4.288168212890625,4.5148162841796875,1.3151464462280273,-2.5192463397979736
1663862558603055900,4.298055908203125,5.090644359588623,1.9604926109313965,-2.167482614517212
1663862558612943600,4.307943603515625,5.594995975494385,2.3973922729492188,-1.5871106386184692
1663862558622831400,4.317831298828125,5.956751346588135,2.680788993835449,-0.7437881231307983
1663862558632688600,4.327688720703125,6.05393123626709,2.9504776000976562,0.1792447566986084
1663862558642576100,4.337576171875,5.762060165405273,3.179593563079834,0.9458438158035278
1663862558652463900,4.3474638671875,5.391110420227051,3.6109495162963867,1.5763931274414062
1663862558662351600,4.3573515625,5.089973449707031,4.123988628387451,1.9245421886444092
1663862558672209000,4.367208984375,4.935141086578369,4.269608974456787,1.873816728591919
1663862558682096400,4.377096435546875,4.765995502471924,4.422513008117676,1.8222880363464355
1663862558691984100,4.386984130859375,4.585845947265625,4.57855749130249,1.7673755884170532
1663862558701871900,4.396871826171875,4.3942646980285645,4.736848831176758,1.710178017616272
1663862558711729200,4.406729248046875,4.191240310668945,4.8958916664123535,1.653733491897583
1663862558731504400,4.42650439453125,3.5466103553771973,3.9335713386535645,-1.0298271179199219
1663862558741392100,4.43639208984375,2.1829466819763184,2.8051819801330566,-0.54451584815979
1663862558751310300,4.446310302734375,1.0004034042358398,1.2195367813110352,0.11521059274673462
1663862558761167600,4.456167724609375,0.19103336334228516,-0.6655130386352539,0.6117205023765564
1663862558771024600,4.466024658203125,-0.1672344207763672,-2.4343299865722656,0.977022647857666
1663862558780912400,4.475912353515625,-0.5412802696228027,-3.536505699157715,1.2446086406707764
1663862558790830600,4.48583056640625,-0.6060290336608887,-3.7630558013916016,1.5885264873504639
1663862558800718300,4.49571826171875,-0.5339546203613281,-3.3709020614624023,2.065467357635498
1663862558810606000,4.505606201171875,-0.604245662689209,-2.361567497253418,2.0821328163146973
1663862558820493600,4.51549365234375,-0.6936147212982178,-0.7712259292602539,1.7206580638885498
1663862558830381300,4.52538134765625,-0.5380396842956543,0.8591899871826172,0.5684049129486084
1663862558840269000,4.53526904296875,0.1423027515411377,1.9916267395019531,-1.267616868019104
1663862558850126300,4.545126220703125,0.3808724880218506,2.634230613708496,-2.3606419563293457
1663862558859983400,4.5549833984375,-0.07055544853210449,2.8467798233032227,-2.8405370712280273
1663862558869840600,4.564840576171875,-1.0460774898529053,2.7224559783935547,-2.8070945739746094
1663862558879758800,4.5747587890625,-2.1190922260284424,2.3313512802124023,-2.4092791080474854
1663862558889646600,4.584646484375,-2.920585870742798,1.7994699478149414,-1.9641821384429932
1663862558899534300,4.594534423828125,-3.0711514949798584,1.2886667251586914,-2.005878210067749
1663862558909421800,4.604421875,-2.385765552520752,0.9914970397949219,-2.5601089000701904
1663862558919309600,4.6143095703125,-1.2082595825195312,0.979339599609375,-2.9635655879974365
1663862558929197300,4.624197265625,-0.6061503887176514,0.9517946243286133,-3.4810538291931152
1663862558939085000,4.6340849609375,-1.0432193279266357,0.8013496398925781,-3.8740172386169434
1663862558948972800,4.643972900390625,-1.5051069259643555,-0.28313732147216797,-4.0481038093566895
1663862558958860300,4.6538603515625,-3.1243956089019775,-3.413945198059082,-3.6801917552948
1663862558968717600,4.663717529296875,-6.464992523193359,-7.242819786071777,-2.23860239982605
1663862558978605300,4.673605224609375,-8.564319610595703,-10.397509574890137,-0.10372011363506317
1663862558988493000,4.6834931640625,-5.246981143951416,-12.118534088134766,2.085886240005493
1663862558998380500,4.693380615234375,-1.263167381286621,-11.585320472717285,3.2321932315826416
1663862559008268300,4.703268310546875,0.11046624183654785,-9.507922172546387,4.4684553146362305
1663862559018125600,4.71312548828125,0.8033847808837891,-7.879326820373535,4.303165435791016
1663862559028013300,4.723013427734375,-1.110011339187622,-7.716073989868164,0.5716686248779297
1663862559037900800,4.73290087890625,-6.650631904602051,-8.41535758972168,-3.982706069946289
1663862559047788500,4.74278857421875,-8.82817268371582,-8.250080108642578,-4.490479946136475
1663862559057676300,4.75267626953125,1.6040794849395752,-5.02955436706543,-0.38662827014923096
1663862559067533600,4.762533447265625,11.190709114074707,-1.483285903930664,1.346189022064209
1663862559077421000,4.772421142578125,6.257510662078857,0.5426483154296875,0.6237186789512634
1663862559087278300,4.7822783203125,1.7991623878479004,0.021825790405273438,-0.8514155745506287
1663862559097166000,4.792166015625,5.017086029052734,-2.976262092590332,-0.6078141331672668
1663862559107023400,4.8020234375,5.292009353637695,-5.678766250610352,1.37520170211792
1663862559116941600,4.811941650390625,2.961602210998535,-6.515130043029785,2.548980712890625
1663862559126829000,4.8218291015625,1.6401689052581787,-5.957456588745117,2.4358632564544678
1663862559136686300,4.831686279296875,0.2463362216949463,-4.608848571777344,1.9605897665023804
1663862559146574000,4.841573974609375,-1.1505331993103027,-3.274136543273926,2.647467613220215
1663862559156461800,4.8514619140625,-1.9958281517028809,-3.0051651000976562,3.3563754558563232
1663862559166349300,4.861349365234375,-1.1490724086761475,-3.0547590255737305,3.355104446411133
1663862559176206600,4.87120654296875,-0.06358981132507324,-2.9410524368286133,2.5144357681274414
1663862559186094300,4.88109423828125,-0.8831667900085449,-2.465808868408203,0.6474990844726562
1663862559195982000,4.890982177734375,-2.1054491996765137,-1.2527093887329102,-1.0197467803955078
1663862559205869600,4.90086962890625,-1.513772964477539,0.20064926147460938,-1.999747395515442
1663862559215757300,4.91075732421875,-0.32772088050842285,1.4421586990356445,-2.363783359527588
1663862559225645000,4.92064501953125,0.1954500675201416,2.397266387939453,-2.292182445526123
1663862559235532800,4.93053271484375,0.2975935935974121,2.7283992767333984,-2.420973062515259
1663862559245420500,4.940420654296875,-0.22948050498962402,2.5528688430786133,-2.8242392539978027
1663862559255277600,4.950277587890625,-0.7152583599090576,2.2119598388671875,-2.9227211475372314
1663862559265134800,4.960134765625,-0.9822795391082764,1.7720155715942383,-2.43412184715271
1663862559275053000,4.970052978515625,-1.311124563217163,1.2685213088989258,-1.5178918838500977
1663862559284940800,4.97994091796875,-1.5776727199554443,0.8895912170410156,-0.5902518033981323
1663862559294797800,4.9897978515625,-1.9997339248657227,0.8158378601074219,0.0690423846244812
1663862559304685600,4.999685546875,-2.7329158782958984,1.128901481628418,0.3413430452346802
1663862559314573300,5.0095732421875,-2.7508792877197266,1.6095638275146484,0.281850129365921
1663862559324461000,5.0194609375,-2.366049289703369,1.9747676849365234,0.0017927587032318115
1663862559334348800,5.029348876953125,-2.4736037254333496,2.3316164016723633,-0.20949706435203552
1663862559344236300,5.039236328125,-1.8245224952697754,2.6422672271728516,-0.13367344439029694
1663862559354124000,5.0491240234375,-1.028764247894287,2.883416175842285,0.15886595845222473
1663862559364011800,5.05901171875,-0.8713963031768799,2.995960235595703,0.32522261142730713
1663862559373899500,5.0688994140625,-0.7323136329650879,3.080465316772461,0.6763200759887695
1663862559383787300,5.078787353515625,0.1013031005859375,3.2520675659179688,1.432069182395935
1663862559393674800,5.0886748046875,1.2249183654785156,3.338644027709961,2.0457820892333984
1663862559413389300,5.108389404296875,0.21923279762268066,2.740044593811035,2.123838186264038
1663862559423276800,5.11827685546875,-0.05493950843811035,2.1589536666870117,2.187500238418579
1663862559433134000,5.128134033203125,-0.0859060287475586,1.5339460372924805,2.2465271949768066
1663862559443021800,5.138021728515625,-0.019955158233642578,0.9215173721313477,2.2295260429382324
1663862559452909600,5.14790966796875,0.27797555923461914,0.4985370635986328,1.9859391450881958
1663862559462797000,5.157797119140625,0.5639729499816895,0.5102682113647461,1.487261176109314
1663862559472684800,5.167684814453125,0.9565491676330566,1.0298242568969727,1.013799786567688
1663862559482572500,5.177572509765625,1.4157826900482178,1.8997106552124023,0.6421100497245789
1663862559492460300,5.187460205078125,0.7949965000152588,2.5778989791870117,0.2113468497991562
1663862559502317300,5.1973173828125,-0.6593399047851562,2.71978759765625,-0.337486207485199
1663862559512205000,5.207205078125,-1.773515224456787,2.4419021606445312,-0.6674672961235046
1663862559522092800,5.2170927734375,-2.0428524017333984,1.7846813201904297,-0.7246339321136475
1663862559531980500,5.22698046875,-1.7561979293823242,0.9374980926513672,-0.7625221014022827
1663862559541868300,5.236868408203125,-1.4482975006103516,0.34064769744873047,-0.8233968615531921
1663862559551725300,5.246725341796875,-2.1745409965515137,0.03883171081542969,-0.7180156111717224
1663862559561613000,5.256613037109375,-2.8763480186462402,-0.4766397476196289,-0.5557002425193787
1663862559571500800,5.266500732421875,-4.151408672332764,-1.4747114181518555,-0.392473429441452
1663862559581388500,5.276388427734375,-6.723196029663086,-3.1052627563476562,-0.04696613550186157
1663862559591245600,5.28624560546875,-8.117544174194336,-5.464115142822266,0.16466450691223145
1663862559601133300,5.29613330078125,-7.822437763214111,-5.620150566101074,0.25368139147758484
1663862559611021000,5.30602099609375,-7.5012288093566895,-5.809861183166504,0.37223708629608154
1663862559620878300,5.31587841796875,-7.171465873718262,-6.027321815490723,0.5221966505050659
1663862559630765800,5.325765869140625,-6.838845252990723,-6.271420478820801,0.6865306496620178
1663862559640653600,5.335653564453125,-6.511185169219971,-6.536454677581787,0.8439515829086304
1663862559650541300,5.345541259765625,-6.204258918762207,-6.8079447746276855,0.9900655746459961
1663862559660429000,5.355428955078125,-5.934793949127197,-7.066614627838135,1.1278778314590454
1663862559670316800,5.36531689453125,5.848968029022217,-8.641096115112305,-1.948022484779358
1663862559680204300,5.375204345703125,4.291565418243408,-5.642336368560791,-1.6622720956802368
1663862559690061600,5.3850615234375,1.3954639434814453,-2.386390209197998,-1.336201548576355
1663862559699979800,5.394979736328125,1.2142820358276367,-0.9005484580993652,-0.9519398212432861
1663862559709837000,5.404837158203125,2.047893524169922,-0.8866086006164551,-0.02270030975341797
1663862559719755300,5.41475537109375,2.1064677238464355,-1.014554500579834,0.07033288478851318
1663862559729612300,5.4246123046875,2.341428756713867,-0.7747430801391602,-0.5719692707061768
1663862559739500000,5.4345,3.270972728729248,0.014941215515136719,-1.0920982360839844
1663862559749387800,5.4443876953125,4.216236114501953,0.8952341079711914,-1.3283804655075073
1663862559759244800,5.454244873046875,4.560784816741943,1.633948802947998,-1.1586942672729492
1663862559769163000,5.4641630859375,4.366950035095215,2.215602397918701,-1.0334618091583252
1663862559779050800,5.47405078125,4.142446994781494,2.6244277954101562,-1.0981684923171997
1663862559788938500,5.4839384765625,4.413153648376465,2.9778056144714355,-0.930295467376709
1663862559798826200,5.493826171875,4.985813617706299,3.30325984954834,-0.49093449115753174
1663862559808714000,5.5037138671875,5.477378845214844,3.9041528701782227,-0.06499898433685303
1663862559818601700,5.513601806640625,5.698280334472656,4.733592987060547,0.044933199882507324
1663862559828458800,5.523458740234375,5.530187606811523,5.627437114715576,-0.12117087841033936
1663862559838316000,5.53331591796875,5.409726142883301,6.310048580169678,-0.47859084606170654
1663862559848173000,5.543173095703125,5.50111198425293,6.564484119415283,-1.1713998317718506
1663862559858060800,5.553060791015625,5.135139465332031,6.1857757568359375,-1.9957165718078613
1663862559867979000,5.56297900390625,4.315129280090332,5.493326187133789,-2.267238140106201
1663862559877866800,5.57286669921875,3.441710948944092,4.572422981262207,-1.7498960494995117
1663862559887724000,5.58272412109375,2.550764560699463,3.476311683654785,-0.9842726588249207
1663862559897581000,5.5925810546875,2.109009265899658,2.0371832847595215,-0.3810157775878906
1663862559907499300,5.602499267578125,1.9718480110168457,0.45910072326660156,0.5593765377998352
1663862559917356500,5.6123564453125,1.9143171310424805,-0.9177584648132324,1.5219831466674805
1663862559927274800,5.622274658203125,1.9553794860839844,-1.8996930122375488,2.237244129180908
1663862559937162500,5.63216259765625,1.8969612121582031,-2.590850830078125,2.467607259750366
1663862559947050000,5.642050048828125,1.5979924201965332,-3.123737335205078,2.32658314704895
1663862559956907300,5.6519072265625,1.4891304969787598,-3.3444395065307617,1.950019359588623
1663862559966795000,5.661794921875,1.8914413452148438,-3.2775325775146484,1.434627890586853
1663862559976682800,5.671682861328125,2.2892327308654785,-2.794623374938965,0.608781635761261
1663862559986539800,5.681539794921875,2.3969545364379883,-1.8059358596801758,-0.28013500571250916
1663862559996397000,5.69139697265625,1.9285845756530762,-0.5630636215209961,-1.2573392391204834
1663862560006315300,5.701315185546875,1.0009660720825195,0.5043001174926758,-2.0133066177368164
1663862560016172300,5.71117236328125,0.010286331176757812,1.053269386291504,-2.651331901550293
1663862560026090500,5.721090576171875,-0.8898007869720459,1.2174263000488281,-3.199594736099243
1663862560035947800,5.73094775390625,-1.660810947418213,1.0252513885498047,-3.6163330078125
1663862560045835500,5.74083544921875,-2.246095657348633,0.7729339599609375,-3.6302483081817627
1663862560055723300,5.75072314453125,-2.1627001762390137,0.3122425079345703,-3.6474874019622803
1663862560065610800,5.76061083984375,-1.6284065246582031,0.0395965576171875,-3.5155913829803467
1663862560075468000,5.770468017578125,-1.0849967002868652,0.09412384033203125,-3.1017305850982666
1663862560085386200,5.78038623046875,-1.056624412536621,0.1267557144165039,-2.8696136474609375
1663862560095243500,5.790243408203125,-1.065739393234253,0.2611122131347656,-2.680232286453247
1663862560105131300,5.80013134765625,-0.47734618186950684,0.7383480072021484,-2.2690820693969727
1663862560115018800,5.810018798828125,0.24429011344909668,0.9768381118774414,-1.7221803665161133
1663862560124906500,5.819906494140625,1.3986051082611084,0.8033008575439453,-1.110866904258728
1663862560134794200,5.829794189453125,1.4733128547668457,-0.19640254974365234,-0.4939783811569214
1663862560144682000,5.839681884765625,-1.6815009117126465,-2.569270133972168,-0.5225529670715332
1663862560154569700,5.84956982421875,-7.058498382568359,-5.375554084777832,-0.8114912509918213
1663862560164457200,5.859457275390625,-11.133987426757812,-8.509593963623047,-2.1582775115966797
1663862560174345000,5.869344970703125,-9.82065486907959,-10.683894157409668,-2.125316619873047
1663862560184232700,5.879232666015625,-5.406365871429443,-11.038382530212402,-0.2801678776741028
1663862560194090000,5.889090087890625,-1.1553943157196045,-9.777938842773438,2.5933313369750977
1663862560203977500,5.8989775390625,-1.3011364936828613,-8.579734802246094,3.979102373123169
1663862560213865200,5.908865234375,-5.2145891189575195,-8.274042129516602,0.71065753698349
1663862560223753000,5.9187529296875,-5.4847517013549805,-7.786896705627441,-5.185312747955322
1663862560233640700,5.928640625,-3.609968900680542,-4.592325210571289,-6.012089729309082
1663862560243528400,5.938528564453125,2.8673250675201416,-0.3957386016845703,-1.8678117990493774
1663862560253385500,5.948385498046875,8.603615760803223,2.214508056640625,1.9306601285934448
1663862560263273200,5.958273193359375,5.895167350769043,3.0754308700561523,3.255648374557495
1663862560273161000,5.968160888671875,1.3911921977996826,1.6824150085449219,2.817897081375122
1663862560283048700,5.978048583984375,1.9704513549804688,-1.7870006561279297,2.7312541007995605
1663862560292905700,5.98790576171875,2.682814598083496,-4.657804489135742,4.356471538543701
1663862560302793500,5.99779345703125,1.1377410888671875,-5.61069393157959,5.507370471954346
1663862560312681200,6.00768115234375,-0.3242015838623047,-6.247014045715332,4.515680313110352
1663862560322569000,6.01756884765625,-0.830211877822876,-6.004188537597656,3.0663888454437256
1663862560332456700,6.027456787109375,-0.8946027755737305,-4.060619354248047,3.406571865081787
1663862560342344200,6.03734423828125,-0.21033859252929688,-2.0197038650512695,3.3090784549713135
1663862560352232000,6.04723193359375,-0.10514211654663086,-1.0371313095092773,1.3604209423065186
1663862560362119700,6.05711962890625,-0.7558639049530029,-0.15558624267578125,-0.4762241244316101
1663862560371977000,6.06697705078125,-0.3203442096710205,0.8877449035644531,-1.1824514865875244
1663862560381864400,6.076864501953125,0.22871851921081543,1.6181421279907227,-1.6373401880264282
1663862560391752200,6.086752197265625,0.42032885551452637,1.9534873962402344,-2.1538987159729004
1663862560401640000,6.096639892578125,0.22413349151611328,2.140744209289551,-2.648144006729126
1663862560411497200,6.106497314453125,-0.3769814968109131,2.2173919677734375,-2.9659152030944824
1663862560421384700,6.116384765625,-1.002699851989746,2.2460994720458984,-2.9362738132476807
1663862560431272400,6.1262724609375,-0.716388463973999,2.165678024291992,-2.6543357372283936
1663862560441160200,6.13616015625,0.23837518692016602,2.108551025390625,-2.448315382003784
1663862560451048000,6.1460478515625,-0.7926220893859863,2.194568634033203,-2.0270235538482666
1663862560460935700,6.155935791015625,-2.381195306777954,1.9953498840332031,-1.6119909286499023
1663862560470792700,6.165792724609375,-2.280994415283203,1.8307485580444336,-1.233632206916809
1663862560480650000,6.17564990234375,-1.4401094913482666,2.073040008544922,-0.6045255064964294
1663862560490507000,6.185507080078125,-0.4968850612640381,2.434720993041992,-0.0044632405042648315
1663862560500425200,6.19542529296875,-0.11041617393493652,2.81424617767334,0.46448981761932373
1663862560510282500,6.205282470703125,0.28911352157592773,3.1304197311401367,0.7653383016586304
1663862560520200700,6.21520068359375,0.6086201667785645,3.320448875427246,0.8721383213996887
1663862560530058000,6.22505810546875,-0.0224301815032959,3.465482711791992,0.35951411724090576
1663862560539945500,6.234945556640625,-0.42592430114746094,3.4656076431274414,-0.15110448002815247
1663862560549833200,6.244833251953125,0.8020138740539551,3.106806755065918,0.07323399931192398
1663862560559721000,6.254720947265625,2.1877944469451904,2.72335147857666,0.6222258806228638
1663862560569578200,6.264578125,2.2591805458068848,2.456197738647461,0.9414541721343994
1663862560579466000,6.274466064453125,1.492774248123169,2.3485116958618164,0.8667628169059753
1663862560589323000,6.284322998046875,1.1715624332427979,2.375185012817383,0.5953540802001953
1663862560599241200,6.2942412109375,0.5365960597991943,2.1496267318725586,0.08230024576187134
1663862560609129000,6.30412890625,-0.9923486709594727,1.4135427474975586,-0.5443732738494873
1663862560619016700,6.3140166015625,-1.2273969650268555,0.5186614990234375,-0.8174216747283936
1663862560628904400,6.323904541015625,0.10038518905639648,-0.30994415283203125,-0.8278360366821289
1663862560638792000,6.3337919921875,-0.35300493240356445,-0.8367328643798828,-0.6410319805145264
1663862560648679700,6.3436796875,-1.313786506652832,-1.1112947463989258,-0.37972673773765564
1663862560658567400,6.3535673828125,-3.0032153129577637,-1.511000633239746,-0.32773470878601074
1663862560668455200,6.363455078125,-5.842185974121094,-2.210862159729004,0.04138568043708801
1663862560678343000,6.373343017578125,-8.048197746276855,-3.6746606826782227,0.1454804241657257
1663862560688200000,6.383199951171875,-7.992447853088379,-6.22468376159668,-0.4842694103717804
1663862560698087700,6.393087646484375,-6.281917572021484,-9.037138938903809,-0.9524869918823242
1663862560707975400,6.402975341796875,-4.574580669403076,-10.798377990722656,-0.366824209690094
1663862560717863200,6.41286328125,-2.76220703125,-11.140019416809082,0.7014468908309937
1663862560727750700,6.422750732421875,-0.49631786346435547,-11.011869430541992,0.9845764636993408
1663862560737608000,6.43260791015625,1.735581874847412,-10.96208667755127,0.06501102447509766
1663862560747495700,6.44249560546875,3.4004111289978027,-10.608834266662598,-1.1551719903945923
1663862560757383400,6.452383544921875,4.4250054359436035,-9.480591773986816,-1.7916947603225708
1663862560767271000,6.46227099609375,5.231579780578613,-7.035303592681885,-1.4462497234344482
1663862560777158700,6.47215869140625,4.861762523651123,-3.4995031356811523,-0.5587218999862671
1663862560787046400,6.48204638671875,3.1111645698547363,0.27617359161376953,0.5623265504837036
1663862560796903700,6.491903564453125,2.0325584411621094,2.381204128265381,0.6885297298431396
1663862560806760700,6.5017607421875,2.355889320373535,1.8628506660461426,0.08600640296936035
1663862560816648400,6.5116484375,4.0169291496276855,0.8783717155456543,-0.0911710262298584
1663862560826536200,6.5215361328125,4.313607692718506,0.3764328956604004,-0.7358584403991699
1663862560836424000,6.531423828125,3.365145206451416,0.11449766159057617,-1.9454805850982666
1663862560846311700,6.541311767578125,3.3176708221435547,0.5321612358093262,-2.17225980758667
1663862560856168700,6.551168701171875,4.141500949859619,1.2921571731567383,-1.4825303554534912
1663862560866056400,6.561056396484375,4.5257978439331055,1.9829769134521484,-0.9518747329711914
1663862560875944200,6.570944091796875,4.580554008483887,2.6539416313171387,-0.5835306644439697
1663862560885832000,6.58083203125,4.574794769287109,3.1889748573303223,-0.1708453893661499
1663862560895689000,6.59068896484375,4.695537567138672,3.575967788696289,0.3083752393722534
1663862560905576700,6.60057666015625,4.633429050445557,3.889338970184326,0.7571921348571777
1663862560915464400,6.61046435546875,4.374216556549072,4.195652484893799,1.0387364625930786
1663862560925321500,6.620321533203125,4.322178363800049,4.565328598022461,0.9968999624252319
1663862560935209200,6.630209228515625,4.560763359069824,4.8205413818359375,0.4288938045501709
1663862560945127400,6.64012744140625,4.443772315979004,4.74060583114624,-0.5078699588775635
1663862560954984700,6.649984619140625,3.838667869567871,4.416793346405029,-1.5871940851211548
1663862560964841700,6.659841796875,3.6828532218933105,4.107527256011963,-2.6699514389038086
1663862560974760000,6.669760009765625,3.4780936241149902,3.834040641784668,-3.021846294403076
1663862560984647700,6.679647705078125,2.3214945793151855,3.150282859802246,-2.2625255584716797
1663862560994535400,6.689535400390625,0.9864468574523926,1.9475021362304688,-1.261320948600769
1663862561004423200,6.699423095703125,0.30809545516967773,0.4529609680175781,-0.475425660610199
1663862561014280200,6.7092802734375,0.11588001251220703,-1.2034149169921875,0.5800425410270691
1663862561024168000,6.71916796875,-0.31537532806396484,-3.0049915313720703,2.2049551010131836
1663862561034055700,6.7290556640625,-0.5768008232116699,-4.953433990478516,3.8800363540649414
1663862561043943400,6.738943359375,-0.0883331298828125,-5.411832809448242,4.871870040893555
1663862561053831200,6.7488310546875,-0.09527063369750977,-3.8763198852539062,4.415268898010254
1663862561063719000,6.758718994140625,-0.8598151206970215,-1.5785903930664062,2.323841094970703
1663862561073606400,6.7686064453125,-0.25793886184692383,-0.055206298828125,-0.4745026230812073
1663862561083494100,6.778494140625,0.6234686374664307,1.0091838836669922,-2.1947314739227295
1663862561093382000,6.7883818359375,0.582643985748291,1.8609132766723633,-2.9967217445373535
1663862561103269600,6.79826953125,0.37137770652770996,2.5074634552001953,-3.4283926486968994
1663862561113126700,6.808126708984375,0.22343897819519043,2.618236541748047,-3.3940892219543457
1663862561123014400,6.818014404296875,-0.04266977310180664,2.0725908279418945,-2.957850217819214
1663862561132902100,6.827902099609375,-0.8801665306091309,1.2208786010742188,-2.447352647781372
1663862561142790000,6.837789794921875,-2.6423709392547607,0.42342281341552734,-2.2676591873168945
1663862561152677600,6.847677734375,-4.091336250305176,0.050037384033203125,-2.2361738681793213
1663862561162565000,6.857565185546875,-4.017701625823975,0.16714191436767578,-2.1191012859344482
1663862561172422400,6.86742236328125,-2.854785919189453,0.5334062576293945,-2.01754093170166
1663862561182310100,6.87731005859375,-1.5357725620269775,0.6624698638916016,-2.0073769092559814
1663862561192198000,6.887197998046875,-0.5297074317932129,-0.11045455932617188,-1.878768801689148
1663862561202085400,6.89708544921875,0.670708417892456,-2.2297496795654297,-1.4352949857711792
1663862561221800000,6.916800048828125,-2.0174598693847656,-7.4912309646606445,-0.7955707311630249
1663862561231687400,6.9266875,-6.610991477966309,-9.250326156616211,-2.2065083980560303
1663862561241575200,6.9365751953125,-13.996223449707031,-11.083226203918457,-2.8448824882507324
1663862561251463000,6.946462890625,-14.326995849609375,-12.857671737670898,-0.6454153060913086
1663862561261320200,6.9563203125,-0.5596551895141602,-13.099725723266602,1.6192469596862793
1663862561271207700,6.966207763671875,1.8143079280853271,-10.979548454284668,0.6779593825340271
1663862561281095400,6.976095458984375,-2.9980263710021973,-5.9786481857299805,-1.8020180463790894
1663862561290983200,6.985983154296875,2.533562183380127,-0.43628597259521484,-2.7932064533233643
1663862561300871000,6.995870849609375,8.204498291015625,3.3711986541748047,-0.9996657371520996
1663862561310728200,7.005728271484375,4.694337844848633,5.040956497192383,1.9979543685913086
1663862561320615700,7.01561572265625,1.6162114143371582,3.676584243774414,3.6004586219787598
1663862561330503400,7.02550341796875,3.9925031661987305,0.030394554138183594,4.787454605102539
1663862561340360700,7.035360595703125,4.885576248168945,-2.976888656616211,7.442938804626465
1663862561350248400,7.04524853515625,3.0244054794311523,-5.139456748962402,9.282629013061523
1663862561360136000,7.055135986328125,-0.7024989128112793,-7.205604553222656,7.215315818786621
1663862561370023700,7.065023681640625,-2.8765313625335693,-7.444952964782715,4.87869119644165
1663862561379911400,7.074911376953125,-1.8108508586883545,-5.351199150085449,4.091551303863525
1663862561389799200,7.084799072265625,-1.407500982284546,-2.9418601989746094,1.924144983291626
1663862561399687000,7.09468701171875,-1.7495718002319336,-1.465841293334961,-1.511043906211853
1663862561409544000,7.1045439453125,-0.5549149513244629,0.057437896728515625,-3.2005414962768555
1663862561419431700,7.114431640625,-0.5835058689117432,0.06717681884765625,-3.198674440383911
1663862561429319400,7.1243193359375,-0.6197257041931152,0.0791778564453125,-3.1856095790863037
1663862561439207200,7.134207275390625,-0.6600723266601562,0.09228801727294922,-3.169018030166626
1663862561449064200,7.144064208984375,-0.6985659599304199,0.10462284088134766,-3.1535890102386475
1663862561458952000,7.153951904296875,-0.731177568435669,0.11494159698486328,-3.137418270111084
1663862561478727400,7.1737275390625,0.17637348175048828,2.4283390045166016,-2.1463375091552734
1663862561488615000,7.183614990234375,0.5066492557525635,2.354745864868164,-1.7145179510116577
1663862561498472200,7.19347216796875,-1.1836864948272705,2.2678394317626953,-1.1943321228027344
1663862561508390400,7.203390380859375,-1.9083926677703857,1.8911933898925781,-0.5868496894836426
1663862561518278100,7.213278076171875,-1.675687551498413,1.4653186798095703,0.15144899487495422
1663862561528166000,7.223165771484375,-0.7356288433074951,1.1452608108520508,0.8742475509643555
1663862561538053600,7.2330537109375,-0.18121027946472168,1.0262317657470703,1.2185254096984863
1663862561547941000,7.242941162109375,-0.14096808433532715,1.5718374252319336,0.7987586259841919
1663862561557828900,7.252828857421875,-0.5323624610900879,2.7578773498535156,0.1972380429506302
1663862561567716600,7.262716552734375,-0.3893289566040039,3.696359634399414,-0.44632580876350403
1663862561577604400,7.272604248046875,0.19840335845947266,4.084357261657715,-0.9419224858283997
1663862561587492000,7.2824921875,0.6381981372833252,4.025602340698242,-1.1036821603775024
1663862561597349000,7.29234912109375,1.3754839897155762,3.666018486022949,-0.7421223521232605
1663862561607236900,7.30223681640625,1.415114164352417,3.0268020629882812,-0.3415065407752991
1663862561617124600,7.31212451171875,1.4046525955200195,2.4473352432250977,-0.0832737386226654
1663862561626981600,7.321981689453125,1.677644968032837,1.988067626953125,-0.049625664949417114
1663862561636839000,7.3318388671875,1.232065200805664,1.7393131256103516,-0.14499706029891968
1663862561646726700,7.3417265625,-0.27830004692077637,1.5253219604492188,-0.40128421783447266
1663862561656614400,7.351614501953125,-1.054966926574707,1.1763153076171875,-0.7025579810142517
1663862561666502000,7.361501953125,-0.1535487174987793,0.7057409286499023,-0.5757406949996948
1663862561676389600,7.3713896484375,0.06574487686157227,0.07560062408447266,0.005470454692840576
1663862561686277400,7.38127734375,-2.730703353881836,-0.9148721694946289,0.3650950789451599
1663862561696165000,7.3911650390625,-5.586646556854248,-2.1599740982055664,0.530072033405304
1663862561706052900,7.401052978515625,-6.194201946258545,-3.4194650650024414,0.4525124430656433
1663862561715940400,7.4109404296875,-4.693265438079834,-4.587986946105957,-0.5156266093254089
1663862561725828000,7.420828125,-4.560860633850098,-5.566535949707031,-1.416682243347168
1663862561735715800,7.4307158203125,-4.446014404296875,-6.242430686950684,-1.2981817722320557
1663862561745603600,7.440603515625,-2.587129592895508,-6.921971321105957,-0.28210747241973877
1663862561755460600,7.450460693359375,-0.6777653694152832,-7.872410774230957,1.597237229347229
1663862561765348400,7.460348388671875,1.060560703277588,-8.92093276977539,2.9474568367004395
1663862561775205600,7.47020556640625,1.745821475982666,-9.781930923461914,2.8669257164001465
1663862561785063000,7.48006298828125,2.701449394226074,-9.960037231445312,1.5078319311141968
1663862561794950400,7.489950439453125,3.847137928009033,-8.737720489501953,-0.140733003616333
1663862561804868600,7.49986865234375,4.2745232582092285,-6.0736541748046875,-0.5300390720367432
1663862561814726000,7.509725830078125,4.080127716064453,-2.914825439453125,-0.5185906887054443
1663862561824613600,7.519613525390625,3.0861124992370605,0.033101558685302734,-0.9946098327636719
1663862561834501400,7.52950146484375,2.4837875366210938,1.9834537506103516,-1.3952972888946533
1663862561844358400,7.5393583984375,2.7324752807617188,2.484555244445801,-1.6872293949127197
1663862561854246100,7.54924609375,3.405944347381592,1.850576400756836,-1.8759207725524902
1663862561864164400,7.559164306640625,3.5607986450195312,1.3132414817810059,-1.9054608345031738
1663862561874052000,7.569052001953125,3.5316390991210938,1.4939188957214355,-1.5542361736297607
1663862561883909000,7.5789091796875,3.8157639503479004,1.9808316230773926,-1.1551456451416016
1663862561893766400,7.588766357421875,4.189666748046875,2.4312634468078613,-0.9110703468322754
1663862561903684600,7.5986845703125,4.486935138702393,2.832355499267578,-0.6566673517227173
1663862561913542000,7.6085419921875,4.5246052742004395,3.2451462745666504,-0.22517645359039307
1663862561923429400,7.618429443359375,4.4335174560546875,3.640587329864502,0.20374548435211182
1663862561933317000,7.628317138671875,4.371335983276367,3.88132905960083,0.09435534477233887
1663862561943174400,7.63817431640625,3.838435649871826,4.063608169555664,-0.6946994066238403
1663862561953062100,7.648062255859375,2.8411917686462402,4.268260955810547,-1.8222047090530396
1663862561962949600,7.65794970703125,1.7756032943725586,4.381898880004883,-2.8095030784606934
1663862561972837400,7.66783740234375,0.996732234954834,4.254001140594482,-3.1689765453338623
1663862561982694700,7.677694580078125,0.7899951934814453,3.489471435546875,-2.8128867149353027
1663862561992612900,7.68761279296875,0.7825169563293457,1.9495744705200195,-2.0489821434020996
1663862562002500600,7.69750048828125,0.31778430938720703,0.13969039916992188,-1.0347334146499634
1663862562012397800,7.707397705078125,0.042948246002197266,-1.666935920715332,0.1744002103805542
1663862562022285600,7.71728564453125,0.2280292510986328,-3.258502960205078,1.5763717889785767
1663862562032173300,7.72717333984375,0.8857607841491699,-4.040999412536621,3.3389103412628174
1663862562042061000,7.73706103515625,1.700350284576416,-3.8367671966552734,5.455400466918945
1663862562051948800,7.74694873046875,2.4479904174804688,-2.549677848815918,7.277035713195801
1663862562061836500,7.75683642578125,3.5405478477478027,-0.6680288314819336,7.243010520935059
1663862562071693600,7.766693603515625,4.512672424316406,0.8642969131469727,4.937178134918213
1663862562081581300,7.776581298828125,4.53597354888916,2.0263967514038086,2.097113847732544
1663862562091469000,7.786468994140625,3.684239149093628,2.7325830459594727,-0.24367675185203552
1663862562101356800,7.796356689453125,2.253302812576294,2.8328304290771484,-2.28473162651062
1663862562111213800,7.8062138671875,0.2595560550689697,2.6241350173950195,-3.631669044494629
1663862562121071000,7.816071044921875,-1.8045721054077148,2.1311397552490234,-4.22073221206665
1663862562130958800,7.825958740234375,-3.425084114074707,1.319432258605957,-4.349661827087402
1663862562140846300,7.835846435546875,-4.435744285583496,0.4077901840209961,-4.340275764465332
1663862562150703600,7.84570361328125,-4.614741325378418,-0.28246307373046875,-4.5153727531433105
1663862562160621800,7.855621826171875,-4.029533386230469,-0.4122772216796875,-4.914668560028076
1663862562170479000,7.86547900390625,-2.9095757007598877,0.14288330078125,-5.261317253112793
1663862562180397300,7.875397216796875,-1.7843470573425293,0.6472692489624023,-5.210995674133301
1663862562190254300,7.88525439453125,-0.2773244380950928,0.7768173217773438,-4.819929599761963
1663862562200111600,7.895111572265625,1.6441304683685303,0.6465730667114258,-3.626272439956665
1663862562210029800,7.90502978515625,2.766580104827881,-0.04220390319824219,-1.8761684894561768
1663862562219886800,7.914886962890625,3.238948345184326,-1.6185579299926758,-0.7523937821388245
1663862562229805000,7.92480517578125,1.2438209056854248,-3.647952079772949,0.046897515654563904
1663862562239662300,7.934662353515625,-4.8333659172058105,-5.40821647644043,-0.2556421756744385
1663862562249550000,7.944550048828125,-10.016509056091309,-7.100688934326172,-2.2100107669830322
1663862562259437800,7.954437744140625,-9.647589683532715,-8.048051834106445,-2.2461185455322266
1663862562269294800,7.964294921875,-5.018249988555908,-7.823819160461426,0.05854657292366028
1663862562279213000,7.974213134765625,1.6425435543060303,-7.033999443054199,1.6483211517333984
1663862562289100800,7.984100830078125,2.220750093460083,-6.806520462036133,1.8950319290161133
1663862562298988500,7.993988525390625,-3.523271322250366,-7.826267242431641,0.5821529626846313
1663862562308876300,8.003876220703125,-7.306890487670898,-9.512736320495605,-1.0672847032546997
1663862562318764000,8.013763916015625,-5.919062614440918,-8.154192924499512,0.5690912008285522
1663862562328621000,8.02362109375,2.596212387084961,-2.945378303527832,4.270954608917236
1663862562338508800,8.0335087890625,7.666908264160156,0.28583812713623047,3.7875990867614746
1663862562348396500,8.043396484375,2.596576690673828,1.9704704284667969,2.4575932025909424
1663862562358284300,8.0532841796875,-0.3397078514099121,1.9169254302978516,1.573561668395996
1663862562368141300,8.063141357421875,1.5336341857910156,0.27887439727783203,2.5449934005737305
1663862562377998600,8.07299853515625,3.210427761077881,-1.0504112243652344,5.316226482391357
1663862562387916800,8.082916748046875,1.825348138809204,-2.219951629638672,6.18847131729126
1663862562397804500,8.092804443359375,0.4985942840576172,-3.2159852981567383,4.668055534362793
1663862562407661600,8.10266162109375,0.049965620040893555,-3.5447635650634766,2.6462814807891846
1663862562417518800,8.112518798828125,-0.3666865825653076,-3.4950685501098633,1.0271284580230713
1663862562427406600,8.122406494140625,0.15526556968688965,-3.000459671020508,-0.059158314019441605
1663862562437324800,8.13232470703125,0.7946569919586182,-2.0357484817504883,-1.2104871273040771
1663862562447181800,8.142181884765625,0.7011828422546387,-1.0527048110961914,-2.3688156604766846
1663862562457069600,8.152069580078125,0.9056065082550049,-0.16176891326904297,-2.7856907844543457
1663862562466926800,8.1619267578125,1.528473138809204,0.7163143157958984,-2.6779825687408447
1663862562476814300,8.171814453125,2.0539870262145996,1.6631536483764648,-2.5753562450408936
1663862562486702000,8.1817021484375,1.9437222480773926,2.398824691772461,-2.7982139587402344
1663862562496589800,8.19158984375,1.397707462310791,2.9343414306640625,-3.258101224899292
1663862562506508000,8.201508056640625,0.5762152671813965,3.39969539642334,-3.5951013565063477
1663862562516395800,8.211395751953125,-0.5406601428985596,3.633297920227051,-3.7469418048858643
1663862562526283500,8.221283447265625,-0.809288740158081,3.534823417663574,-3.6243906021118164
1663862562536171000,8.2311708984375,-0.5828497409820557,3.26934814453125,-3.1423537731170654
1663862562546058800,8.241058837890625,-0.45569419860839844,2.888103485107422,-2.5695972442626953
1663862562555946500,8.250946533203125,-0.7605836391448975,2.567554473876953,-2.155959367752075
1663862562565803800,8.2608037109375,-0.9946300983428955,2.5343799591064453,-1.724745273590088
1663862562575691500,8.27069140625,-0.13586091995239258,2.748849868774414,-1.217997431755066
1663862562585548500,8.280548583984375,0.2659924030303955,3.074819564819336,-0.7336722612380981
1663862562595405800,8.29040576171875,0.0960683822631836,3.2648258209228516,-0.32526731491088867
1663862562605293600,8.30029345703125,-0.04679441452026367,3.438138961791992,0.22109121084213257
1663862562615181000,8.31018115234375,0.18315720558166504,3.5173377990722656,0.6624221205711365
1663862562625038300,8.320038330078125,0.18004679679870605,3.4461421966552734,0.9486637711524963
1663862562634926000,8.329926025390625,0.1476001739501953,3.3005218505859375,1.1456444263458252
1663862562644813800,8.339813720703125,0.4272270202636719,3.107545852661133,1.230134129524231
1663862562654701300,8.349701416015625,0.3843226432800293,2.8283910751342773,1.3491559028625488
1663862562664589000,8.359589111328125,0.31262826919555664,2.2706985473632812,1.376217246055603
1663862562674476800,8.369476806640625,0.0876460075378418,1.5108966827392578,1.4398117065429688
1663862562684364500,8.379364501953125,-0.11356973648071289,0.5137176513671875,1.3723549842834473
1663862562694252300,8.389252197265625,-0.27795839309692383,-0.39755916595458984,1.121402621269226
1663862562704109300,8.399109375,-0.5947799682617188,-0.9776554107666016,0.8316383361816406
1663862562713997000,8.4089970703125,-1.968327522277832,-1.3697214126586914,0.41417425870895386
1663862562723884800,8.418884765625,-4.83067512512207,-2.120944023132324,-0.3606405258178711
1663862562733741800,8.428741943359375,-8.066919326782227,-3.6864118576049805,-1.484798550605774
1663862562743629600,8.438629638671875,-8.548650741577148,-6.062686920166016,-2.962641716003418
1663862562753547800,8.4485478515625,-6.207280158996582,-8.302828788757324,-3.2630767822265625
1663862562763405000,8.458405029296875,-4.052887439727783,-9.763211250305176,-2.1201698780059814
1663862562773323300,8.4683232421875,-2.9547343254089355,-10.289129257202148,-0.8034612536430359
1663862562783211000,8.4782109375,-2.4226303100585938,-10.237293243408203,-0.5921484231948853
1663862562793098800,8.4880986328125,-1.913182258605957,-10.021936416625977,-1.637231469154358
1663862562802986200,8.497986328125,-1.4899249076843262,-9.55362319946289,-3.0854692459106445
1663862562812843500,8.507843505859375,-0.7325806617736816,-9.047914505004883,-4.328300476074219
1663862562822731300,8.517731201171875,-0.14168930053710938,-8.53030014038086,-4.176807880401611
1663862562832588300,8.52758837890625,0.5909762382507324,-7.264155864715576,-2.767007350921631
1663862562842445600,8.537445556640625,3.1041922569274902,-4.709812164306641,-1.890060544013977
1663862562852333300,8.547333251953125,4.600504398345947,-1.350656509399414,-2.0480992794036865
1663862562862251500,8.55725146484375,3.6732311248779297,0.9050478935241699,-2.9706544876098633
1663862562872139300,8.56713916015625,2.5663270950317383,0.9007296562194824,-4.002931118011475
1663862562882026800,8.57702685546875,2.806041717529297,-0.08086395263671875,-3.307335615158081
1663862562891914500,8.58691455078125,3.308821678161621,-0.8795194625854492,-2.1174933910369873
1663862562901802200,8.59680224609375,3.3750181198120117,-0.9226565361022949,-1.1858043670654297
1663862562911690000,8.60668994140625,3.8973846435546875,-0.4878668785095215,-0.5434620380401611
1663862562921547000,8.616547119140625,4.64667272567749,0.18593406677246094,-0.19187331199645996
1663862562931434800,8.626434814453125,5.395541191101074,1.0429558753967285,-0.029764890670776367
1663862562941322500,8.636322509765625,6.327750205993652,1.70188570022583,-0.40949177742004395
1663862562951179800,8.6461796875,5.9219841957092285,1.9065423011779785,-0.452988862991333
1663862562961067300,8.6560673828125,5.085848331451416,3.2019457817077637,0.956796407699585
1663862562970955000,8.665955078125,5.089056968688965,3.957622528076172,1.2570903301239014
1663862562980842800,8.6758427734375,5.015305042266846,4.784060955047607,1.7855641841888428
1663862562990730500,8.68573046875,4.943975448608398,5.933236122131348,1.98870849609375
1663862563000618200,8.6956181640625,5.041543960571289,6.599201679229736,1.3353488445281982
1663862563010505700,8.705505615234374,5.421740531921387,6.687088966369629,0.2712688446044922
1663862563020363000,8.715363037109375,5.940749168395996,6.495693206787109,-0.6878339052200317
1663862563030220300,8.72522021484375,6.3072896003723145,6.143471717834473,-1.2649861574172974
1663862563040138500,8.735138427734375,6.296037673950195,5.534235000610352,-1.3753485679626465
1663862563049995500,8.74499560546875,6.03572416305542,4.7086501121521,-1.0035066604614258
1663862563059883300,8.75488330078125,5.311115264892578,3.7467594146728516,-0.5738353729248047
1663862563069740500,8.764740478515625,3.9418554306030273,2.4898834228515625,-0.34943222999572754
1663862563079658800,8.77465869140625,2.0484442710876465,1.1020622253417969,0.09708905220031738
1663862563089546500,8.78454638671875,1.031764030456543,-0.5376558303833008,0.9405063390731812
1663862563099434000,8.79443408203125,0.47786617279052734,-2.5301637649536133,1.8411418199539185
1663862563109291300,8.804291259765625,0.2462139129638672,-4.373531341552734,2.7351808547973633
1663862563119148500,8.8141484375,-0.2982816696166992,-5.198376655578613,3.3971376419067383
1663862563129036000,8.8240361328125,-1.2013354301452637,-4.6013689041137695,3.364363670349121
1663862563138954200,8.833954345703125,-1.6471433639526367,-2.786701202392578,3.1577653884887695
1663862563148811500,8.8438115234375,-1.7043447494506836,-0.026671409606933594,3.0620477199554443
1663862563158699300,8.85369921875,-0.7961869239807129,1.8655929565429688,2.396120071411133
1663862563168587000,8.8635869140625,0.5191712379455566,2.7459774017333984,1.3731555938720703
1663862563178444000,8.873444091796875,1.1111197471618652,3.6323394775390625,0.37089425325393677
1663862563188362200,8.8833623046875,0.81011962890625,4.206737518310547,-0.6004259586334229
1663862563198219500,8.893219482421875,0.1593170166015625,4.052375793457031,-1.4126527309417725
1663862563208107300,8.903107177734375,-0.9557521343231201,3.4762048721313477,-1.7908929586410522
1663862563217964300,8.91296435546875,-2.5072989463806152,2.580824851989746,-1.7806763648986816
1663862563227882500,8.922882568359375,-3.905973196029663,1.7054023742675781,-1.5724211931228638
1663862563237770200,8.932770263671875,-4.513208389282227,1.144831657409668,-1.405666470527649
1663862563247627500,8.94262744140625,-4.092252731323242,0.7964000701904297,-1.279809832572937
1663862563257545700,8.952545654296875,-3.3570902347564697,0.6769561767578125,-1.4635350704193115
1663862563267433200,8.96243310546875,-2.705332040786743,0.7149038314819336,-2.00707745552063
1663862563277321000,8.972321044921875,-1.4672882556915283,0.5483732223510742,-2.271327495574951
1663862563287178200,8.98217822265625,-0.7309093475341797,-1.0419769287109375,-2.369480848312378
1663862563297066000,8.99206591796875,-3.3944144248962402,-5.246149063110352,-2.285330295562744
1663862563306923000,9.001923095703125,-9.077164649963379,-9.396931648254395,-1.612129807472229
1663862563316841200,9.01184130859375,-13.803179740905762,-11.796554565429688,-0.29297205805778503
1663862563326698500,9.021698486328125,-10.339152336120605,-13.573514938354492,1.4426379203796387
1663862563336586200,9.031586181640625,-2.1479568481445312,-12.137127876281738,6.014366149902344
1663862563346474000,9.041473876953125,2.5793344974517822,-9.012715339660645,7.697556972503662
1663862563356361500,9.051361572265625,6.058804035186768,-6.999560356140137,0.5139254331588745
1663862563366218800,9.06121875,4.277983665466309,-2.928980827331543,-4.758869171142578
1663862563376106500,9.0711064453125,-0.533149242401123,-0.3354310989379883,-7.9381232261657715
1663862563385963500,9.080963623046875,0.2825467586517334,-1.4892663955688477,-7.632911205291748
1663862563395881700,9.0908818359375,0.41300511360168457,-4.764589309692383,-3.0777220726013184
1663862563405739000,9.100739013671875,1.3545589447021484,-6.948598861694336,0.5874861478805542
1663862563415657200,9.1106572265625,6.12906551361084,-6.040652275085449,3.458113670349121
1663862563425514500,9.120514404296875,5.711871147155762,-4.987895965576172,3.9949636459350586
1663862563435402000,9.130402099609375,3.9230306148529053,-4.584280967712402,2.727597236633301
1663862563445259300,9.14025927734375,2.8904428482055664,-3.909513473510742,1.7216088771820068
1663862563455177500,9.150177490234375,1.5550696849822998,-3.9025745391845703,0.7805906534194946
1663862563465034800,9.16003466796875,0.2585914134979248,-3.726778030395508,1.003418207168579
1663862563474953000,9.169952880859375,-0.040191650390625,-3.5282325744628906,1.604483723640442
1663862563484810000,9.17981005859375,0.7080643177032471,-3.0413436889648438,1.9477434158325195
1663862563494697700,9.18969775390625,0.8794240951538086,-2.2625675201416016,1.667672872543335
1663862563504555000,9.199554931640625,-0.17164087295532227,-1.396383285522461,0.8973286151885986
1663862563514442500,9.2094423828125,-0.5586555004119873,-0.5558815002441406,0.08797195553779602
1663862563524360700,9.219360595703124,0.08216285705566406,0.050429344177246094,-0.8432834148406982
1663862563534218000,9.229218017578125,0.5406570434570312,1.0551490783691406,-1.486194372177124
1663862563544105700,9.239105712890625,0.7169504165649414,1.7644901275634766,-2.08998703956604
1663862563553993500,9.248993408203125,0.869255542755127,2.308323860168457,-2.4675674438476562
1663862563563881200,9.258881103515625,0.11550736427307129,2.7178688049316406,-2.7819840908050537
1663862563573738200,9.26873828125,-0.14545750617980957,2.7301416397094727,-2.935946464538574
1663862563583656400,9.278656494140625,0.15595650672912598,2.5012826919555664,-2.7950167655944824
1663862563593513700,9.288513671875,-0.06752276420593262,2.2443017959594727,-2.7072978019714355
1663862563603370800,9.298370849609375,-0.7468788623809814,2.1263904571533203,-2.6688897609710693
1663862563613289000,9.3082890625,-1.6133151054382324,2.5551576614379883,-2.1925008296966553
1663862563623176700,9.3181767578125,-2.356670379638672,3.2346887588500977,-1.6564953327178955
1663862563633064400,9.328064453125,-2.953150987625122,3.521839141845703,-1.3719979524612427
1663862563642921700,9.337921630859375,-3.222355365753174,3.4272375106811523,-0.9048172235488892
1663862563652809200,9.347809326171875,-2.5647144317626953,3.283842086791992,-0.18856845796108246
1663862563662697000,9.357697021484375,-2.562086343765259,3.216297149658203,0.46603015065193176
1663862563672584700,9.367584716796875,-3.1592118740081787,3.1307802200317383,0.656002402305603
1663862563682442000,9.37744189453125,-3.676670551300049,3.1669254302978516,0.8546494245529175
1663862563692329500,9.38732958984375,-3.191352605819702,3.4995994567871094,1.3172833919525146
1663862563702217200,9.39721728515625,-1.3483083248138428,3.8850860595703125,1.794549584388733
1663862563712074500,9.407074462890625,0.504122257232666,4.2263031005859375,1.924455165863037
1663862563721992700,9.41699267578125,1.2697813510894775,4.4312896728515625,1.8617455959320068
1663862563731849700,9.426849609375,1.4357736110687256,4.506472587585449,1.9740921258926392
1663862563741768000,9.436767822265624,1.3876218795776367,4.366829872131348,2.2875168323516846
1663862563751655700,9.44665576171875,1.8073976039886475,3.7666730880737305,2.4855642318725586
1663862563761543400,9.45654345703125,1.8249385356903076,2.8154306411743164,2.290525436401367
1663862563771431200,9.46643115234375,0.9381451606750488,1.847580909729004,1.658113718032837
1663862563781288400,9.476288330078125,0.478271484375,1.031580924987793,0.7686743140220642
1663862563791145500,9.4861455078125,0.518378496170044,0.39539337158203125,-0.38400256633758545
1663862563801033200,9.496033203125,0.11528134346008301,-0.06835269927978516,-1.703749656677246
1663862563810921000,9.5059208984375,-0.5824408531188965,-0.3255424499511719,-3.0526890754699707
1663862563820778000,9.515778076171875,-0.527472734451294,-0.06698322296142578,-4.122553825378418
1663862563830665700,9.525665771484375,-0.6061325073242188,0.6327199935913086,-4.541499614715576
1663862563840584000,9.535583984375,-2.0114803314208984,1.0705852508544922,-4.304043292999268
1663862563850441200,9.545441162109375,-3.5774970054626465,0.5535316467285156,-3.7069625854492188
1663862563860298200,9.55529833984375,-6.016242504119873,-0.9045448303222656,-2.973759651184082
1663862563870186000,9.56518603515625,-8.602298736572266,-3.7672691345214844,-3.268371105194092
1663862563880073700,9.57507373046875,-8.608695983886719,-7.324965476989746,-4.5298357009887695
1663862563889992000,9.584991943359375,-5.5124969482421875,-9.653515815734863,-5.14544153213501
1663862563899849200,9.59484912109375,-3.815060615539551,-9.957600593566895,-4.22031831741333
1663862563909736700,9.60473681640625,-5.226149559020996,-10.49616527557373,-3.2032876014709473
1663862563919594000,9.614593994140625,-5.016880035400391,-12.385748863220215,-3.1683549880981445
1663862563929512200,9.62451220703125,-2.508195400238037,-14.319058418273926,-2.852579116821289
1663862563939400000,9.63439990234375,-0.2408308982849121,-15.345428466796875,-2.3839902877807617
1663862563949257000,9.644257080078125,1.181748867034912,-14.688030242919922,-1.0888959169387817
1663862563959175200,9.654175048828124,1.7048683166503906,-12.639593124389648,0.5236090421676636
1663862563969063000,9.66406298828125,2.3199706077575684,-10.02907943725586,1.016540288925171
1663862563978920200,9.673920166015625,3.417448043823242,-6.701609134674072,0.479921817779541
1663862563988777200,9.683777099609374,3.7043542861938477,-2.948789596557617,-0.26057326793670654
1663862563998695400,9.6936953125,3.650547504425049,0.40486669540405273,-0.783406138420105
1663862564008552700,9.703552734375,3.6363439559936523,2.095337390899658,-1.241428256034851
1663862564018440400,9.7134404296875,3.7103214263916016,2.4297757148742676,-0.6082571744918823
1663862564028297500,9.72329736328125,4.272028923034668,2.5489907264709473,-0.09231829643249512
1663862564038216000,9.7332158203125,4.447789192199707,3.5822434425354004,0.40496039390563965
1663862564048103400,9.743103515625,5.062058448791504,3.5253052711486816,1.3125696182250977
1663862564057991200,9.7529912109375,4.946942329406738,1.0602383613586426,0.09392952919006348
1663862564067848400,9.762848388671875,5.046993732452393,0.4892711639404297,-1.8336560726165771
1663862564077736200,9.772736083984375,6.1783671379089355,2.11454439163208,-0.2207934856414795
1663862564087593200,9.78259326171875,7.018810272216797,2.9079084396362305,0.9994721412658691
1663862564097511400,9.792511474609375,7.042196750640869,3.504218101501465,0.646329402923584
1663862564107368700,9.80236865234375,6.841888904571533,4.0352325439453125,0.3777437210083008
1663862564117256400,9.81225634765625,6.532991886138916,4.576201438903809,0.2719748020172119
1663862564127144000,9.82214404296875,6.205986976623535,5.262940406799316,0.12853527069091797
1663862564137031700,9.83203173828125,5.7667365074157715,5.706728935241699,-0.22185921669006348
1663862564146919400,9.84191943359375,5.5438923835754395,5.996799468994141,-0.6201353073120117
1663862564156807200,9.85180712890625,5.732710361480713,6.213198184967041,-0.779163122177124
1663862564166695000,9.86169482421875,5.775769233703613,6.070713520050049,-0.6855190992355347
1663862564176582400,9.87158251953125,5.373737335205078,5.387513637542725,-0.7663255929946899
1663862564186439700,9.881439697265625,4.868727684020996,4.466620922088623,-0.665911078453064
1663862564196327400,9.891327392578125,3.984471321105957,3.5186967849731445,-0.10609269142150879
1663862564206215200,9.901215087890625,2.684032917022705,2.4448623657226562,0.7707908153533936
1663862564216072200,9.911072265625,1.4199633598327637,1.1728277206420898,1.5916396379470825
1663862564225960000,9.9209599609375,-0.1184854507446289,-0.8299484252929688,1.8906419277191162
1663862564235847700,9.93084765625,-0.8162326812744141,-1.946859359741211,2.098731517791748
1663862564245735400,9.9407353515625,-0.40187644958496094,-2.6531715393066406,1.8432053327560425
1663862564255623000,9.950622802734374,0.49433422088623047,-2.280148506164551,2.3355019092559814
1663862564265480200,9.960480224609375,1.1766581535339355,-0.8243370056152344,3.586832046508789
1663862564275398400,9.9703984375,1.7422103881835938,0.7513647079467773,4.293066024780273
1663862564285286100,9.9802861328125,1.8190665245056152,1.7456560134887695,3.2461607456207275
1663862564295174000,9.990173828125,0.9286046028137207,2.101703643798828,0.9767574071884155
1663862564305061600,10.0000615234375,-0.5172562599182129,2.747952461242676,-0.6179843544960022
1663862564314949000,10.00994921875,-1.5300540924072266,3.6685972213745117,-1.4604125022888184
1663862564324836900,10.0198369140625,-2.0891025066375732,4.348454475402832,-2.123119354248047
1663862564334724600,10.029724609375,-2.2608609199523926,4.463825225830078,-2.7548792362213135
1663862564344582000,10.039581787109375,-2.1785318851470947,3.8947010040283203,-3.276923656463623
1663862564354469400,10.049469482421875,-1.7349741458892822,2.895854949951172,-3.4689316749572754
1663862564364326700,10.05932666015625,-1.2540199756622314,1.8633651733398438,-3.239426851272583
1663862564374214400,10.06921435546875,-1.3495934009552002,0.5242958068847656,-3.0423903465270996
1663862564384102100,10.07910205078125,-1.7573013305664062,-0.6216402053833008,-2.398413896560669
1663862564393959200,10.088959228515625,-2.042793035507202,-1.392852783203125,-2.0848655700683594
1663862564403847000,10.098846923828125,-1.6907873153686523,-2.0752058029174805,-1.6411906480789185
1663862564413734700,10.108734619140625,-2.557506561279297,-4.3880815505981445,-1.7224332094192505
1663862564423622400,10.118622314453125,-6.882970333099365,-9.144967079162598,-3.1192750930786133
1663862564433510000,10.128510009765625,-13.102149963378906,-12.939933776855469,-2.76475191116333
1663862564443367200,10.1383671875,-12.329072952270508,-13.847893714904785,-0.12373912334442139
1663862564453255000,10.1482548828125,-3.7726547718048096,-11.593648910522461,2.3480162620544434
1663862564463112000,10.15811181640625,-1.119809865951538,-8.363730430603027,1.6639994382858276
1663862564472999700,10.167999755859375,0.4613158702850342,-6.5729522705078125,-1.5460097789764404
1663862564482887400,10.177887451171875,0.47565484046936035,-5.567529678344727,-3.4310081005096436
1663862564492775200,10.187775146484375,-3.44313383102417,-5.75588321685791,-5.482630729675293
1663862564502663000,10.197662841796875,-5.866799354553223,-5.470925331115723,-5.559772491455078
1663862564512520000,10.20752001953125,0.9467911720275879,-2.0468273162841797,-0.3319300413131714
1663862564522407700,10.21740771484375,8.253772735595703,-0.003841400146484375,3.6628613471984863
1663862564532295400,10.22729541015625,8.714300155639648,0.13104724884033203,4.0460205078125
1663862564542213600,10.237213623046875,4.294092655181885,-1.047964096069336,2.6243319511413574
1663862564552071000,10.24707080078125,3.2122738361358643,-2.9990320205688477,1.440575122833252
1663862564561928000,10.256927978515625,3.724925994873047,-4.05039119720459,2.260586738586426
1663862564571846100,10.26684619140625,3.193544387817383,-4.444179534912109,3.372891664505005
1663862564581734000,10.27673388671875,1.9623286724090576,-4.91754150390625,3.1197426319122314
1663862564601509400,10.29650927734375,0.9197521209716797,-3.4228553771972656,0.8467545509338379
1663862564611366400,10.306366455078125,0.4087073802947998,-2.024761199951172,-0.7346051931381226
1663862564621254100,10.316254150390625,-0.11949372291564941,-0.7259063720703125,-1.8951880931854248
1663862564631142000,10.326141845703125,-0.1401536464691162,0.7270612716674805,-2.4338247776031494
1663862564641029600,10.336029541015625,0.48828125,0.44105052947998047,-3.910285711288452
1663862564650917000,10.345917236328125,0.32201576232910156,-0.991337776184082,-4.378879547119141
1663862564660774400,10.3557744140625,-0.5939958095550537,-0.6846437454223633,-2.8246798515319824
1663862564670662100,10.365662109375,-0.32805705070495605,0.4080638885498047,-2.213425397872925
1663862564680550000,10.3755498046875,-0.05836844444274902,0.6489591598510742,-2.645977258682251
1663862564690437400,10.385437255859374,-0.5054775476455688,0.7109079360961914,-2.6502842903137207
1663862564700294700,10.395294677734375,-0.9777376651763916,0.8339624404907227,-2.389420986175537
1663862564710182400,10.405182373046875,-1.2503122091293335,0.858306884765625,-2.5065317153930664
1663862564720070100,10.415070068359375,-1.8933974504470825,0.5027332305908203,-2.5751941204071045
1663862564729927200,10.42492724609375,-2.0725417137145996,0.21840667724609375,-2.0726916790008545
1663862564739815000,10.43481494140625,-1.945703148841858,0.11206436157226562,-1.3421181440353394
1663862564749702700,10.44470263671875,-1.8445335626602173,0.6536998748779297,-0.14614172279834747
1663862564759590400,10.45459033203125,-1.6942092180252075,1.4311504364013672,0.9103725552558899
1663862564769478100,10.46447802734375,-1.7122447490692139,2.1955080032348633,1.8126442432403564
1663862564779365600,10.47436572265625,-2.2273659706115723,2.5646753311157227,1.9136840105056763
1663862564789253400,10.48425341796875,-2.847395420074463,2.4943971633911133,0.9167242646217346
1663862564799110700,10.494110595703125,-2.826272487640381,2.4713125228881836,0.7119895815849304
1663862564808998400,10.503998291015625,-2.7998709678649902,2.4408178329467773,0.48301923274993896
1663862564818886000,10.513885986328125,-2.768136501312256,2.4033308029174805,0.2463608980178833
1663862564828773600,10.523773681640625,-2.730086326599121,2.361691474914551,0.025650501251220703
1663862564838661400,10.533661376953125,-2.6718900203704834,2.3178396224975586,-0.1615605354309082
1663862564848549000,10.543549072265625,-2.5850343704223633,2.2721071243286133,-0.31446969509124756
1663862564858436900,10.553436767578125,-2.488020420074463,2.225447654724121,-0.44777894020080566
1663862564868294000,10.5632939453125,-2.414679765701294,2.1793127059936523,-0.5846242904663086
1663862564888069400,10.5830693359375,1.7707520723342896,0.02870655059814453,-3.3034374713897705
1663862564897926400,10.592926513671875,1.7516729831695557,1.6458740234375,-2.4866228103637695
1663862564907814100,10.602814208984375,1.570398211479187,1.9900970458984375,-1.9043910503387451
1663862564917732400,10.612732421875,2.547717809677124,0.6563272476196289,-2.034228563308716
1663862564927589600,10.622589599609375,1.3673118352890015,0.8682765960693359,-1.032405138015747
1663862564937477400,10.632477294921875,0.9388147592544556,1.2788591384887695,-0.27370619773864746
1663862564947364900,10.64236474609375,2.3417000770568848,1.0008125305175781,0.08226132392883301
1663862564957252600,10.652252685546875,2.4155852794647217,1.1174583435058594,-0.04761338233947754
1663862564967110000,10.66210986328125,-0.6584423780441284,1.3208770751953125,-0.3109779357910156
1663862564976997600,10.67199755859375,-1.1734243631362915,-0.2643575668334961,-1.0127778053283691
1663862564986885000,10.681885009765624,0.6607438325881958,-2.646965980529785,-2.1295506954193115
1663862564996772900,10.69177294921875,1.7560960054397583,-4.312005043029785,-2.7702388763427734
1663862565006660600,10.70166064453125,0.7247491478919983,-5.0700531005859375,-2.3090946674346924
1663862565016548400,10.71154833984375,-0.33666670322418213,-4.44954776763916,-0.23199963569641113
1663862565026436000,10.72143603515625,-3.274893283843994,-4.052918434143066,2.7299892902374268
1663862565036323800,10.73132373046875,-2.5110995769500732,-4.803851127624512,6.264552593231201
1663862565046211300,10.74121142578125,6.037674427032471,-7.329249382019043,10.8614501953125
1663862565056099000,10.75109912109375,12.797374725341797,-10.131699562072754,12.161480903625488
1663862565065956400,10.760956298828125,13.790836334228516,-11.07651138305664,8.470428466796875
1663862565075813400,10.7708134765625,2.8638694286346436,-9.75015926361084,3.5385046005249023
1663862565085731600,10.780731689453125,-13.277868270874023,-7.540942192077637,5.315797328948975
1663862565095619300,10.790619384765625,-14.357866287231445,-10.067079544067383,3.3776488304138184
1663862565105507000,10.800507080078125,-0.15377390384674072,-13.56247329711914,-3.7263317108154297
1663862565115394800,10.810394775390625,11.32336711883545,-12.295654296875,-13.574930191040039
1663862565125282600,10.820282470703125,5.853866100311279,-6.550518989562988,-14.005825996398926
1663862565135170000,10.830170166015625,-10.623478889465332,-4.563935279846191,-7.907415390014648
1663862565145057800,10.840057861328125,-12.061725616455078,-7.660473823547363,-6.486691474914551
1663862565154915000,10.8499150390625,-4.030843734741211,-7.74137020111084,-8.451082229614258
1663862565164802800,10.859802734375,4.452741622924805,-5.366426467895508,-7.227027893066406
1663862565174690300,10.869690185546874,4.114477634429932,-2.4475393295288086,-4.917361259460449
1663862565184578000,10.879578125,-0.030967235565185547,-0.21773338317871094,-3.7958765029907227
1663862565194435300,10.889435302734375,-2.1630468368530273,0.7742404937744141,-3.4173743724823
1663862565204292400,10.899292236328124,-3.360015869140625,1.1441020965576172,-2.799699544906616
1663862565214180000,10.90918017578125,-1.3832602500915527,0.6550216674804688,-2.0713891983032227
1663862565224067800,10.91906787109375,0.18854475021362305,-2.1231460571289062,-1.9914865493774414
1663862565233955600,10.92895556640625,1.9454188346862793,-5.478201866149902,-2.3811817169189453
1663862565243843300,10.93884326171875,5.12863302230835,-7.020183563232422,-2.0658509731292725
1663862565253700400,10.948700439453125,11.504526138305664,-6.047385215759277,2.915738582611084
1663862565263588000,10.958588134765625,22.60729217529297,-5.623444557189941,15.212432861328125
1663862565273445400,10.9684453125,14.136528015136719,-14.908570289611816,9.890351295471191
1663862565283363600,10.978363525390625,2.4864273071289062,-17.180896759033203,9.374391555786133
1663862565293220600,10.988220703125,-8.399852752685547,-9.762104034423828,14.24309253692627
1663862565303138800,10.998138916015625,-16.828550338745117,-6.724790096282959,14.235543251037598
1663862565313026600,11.008026611328125,-17.84310531616211,-9.063987731933594,11.140905380249023
1663862565322914300,11.017914306640625,-13.739358901977539,-11.317201614379883,8.791475296020508
1663862565332771600,11.027771484375,-8.438389778137207,-10.822182655334473,7.801301956176758
1663862565342659000,11.0376591796875,-3.4360456466674805,-10.202555656433105,6.69794225692749
1663862565352516400,11.047516357421875,-2.535289764404297,-10.386000633239746,5.363374710083008
1663862565362434600,11.0574345703125,-5.965864181518555,-9.911602020263672,4.616328239440918
1663862565372322300,11.067322265625,-10.659955024719238,-8.382201194763184,4.533351898193359
1663862565382210000,11.0772099609375,-13.492910385131836,-7.201195240020752,4.533267974853516
1663862565392097500,11.08709765625,-19.30333709716797,-4.040772438049316,12.86280632019043
1663862565401985300,11.0969853515625,-13.776334762573242,-1.3418021202087402,24.007612228393555
1663862565411842600,11.106842529296875,-0.3788909912109375,-1.6137561798095703,11.913782119750977
1663862565421730300,11.116730224609375,-3.065312385559082,-3.644625663757324,4.501502990722656
1663862565431587300,11.12658740234375,-1.1663885116577148,-7.87236213684082,3.0856127738952637
1663862565441444600,11.136444580078125,1.1346149444580078,-8.402088165283203,3.0277628898620605
1663862565451332400,11.146332275390625,-1.1864728927612305,-3.8386569023132324,5.066840648651123
1663862565461250600,11.15625048828125,-2.8284435272216797,0.8361848592758179,7.5763750076293945
1663862565471138000,11.166137939453124,-0.9590206146240234,0.5482854843139648,7.315165996551514
1663862565481025800,11.17602587890625,1.6794261932373047,-1.2278907299041748,6.086544990539551
1663862565490883000,11.185883056640625,3.118771553039551,-1.6313297748565674,5.978104591369629
1663862565500770800,11.195770751953125,3.956073760986328,-1.9650001525878906,6.2816362380981445
1663862565510658600,11.205658447265625,5.307580947875977,-2.6648335456848145,6.511022567749023
1663862565520546000,11.215546142578125,8.10106086730957,-3.7563037872314453,6.084437370300293
1663862565530433800,11.225433837890625,11.18049144744873,-3.995532989501953,5.087613582611084
1663862565540321500,11.235321533203125,14.458525657653809,-3.6247966289520264,3.403564453125
1663862565550209300,11.245209228515625,16.5428466796875,-3.5416100025177,1.1140187978744507
1663862565560097000,11.255096923828125,16.249923706054688,-4.3472723960876465,-1.0331401824951172
1663862565569984500,11.264984619140625,13.154019355773926,-5.469128131866455,-2.1403677463531494
1663862565579841800,11.274841796875,8.648981094360352,-5.850478649139404,-1.6615965366363525
1663862565589729500,11.2847294921875,5.544651031494141,-5.88438606262207,-0.523410975933075
1663862565599617300,11.2946171875,4.3632402420043945,-7.6576385498046875,-0.5411204695701599
1663862565609504800,11.3045048828125,3.896322250366211,-11.110757827758789,-1.2940716743469238
1663862565619392500,11.314392578125,2.7747344970703125,-13.848230361938477,-1.8430265188217163
1663862565629280300,11.3242802734375,1.4669208526611328,-15.16562271118164,-2.061635971069336
1663862565639137500,11.334137451171875,0.6764068603515625,-16.483680725097656,-2.209425926208496
1663862565649025000,11.34402490234375,0.83209228515625,-19.547460556030273,-3.067227363586426
1663862565658912800,11.353912841796875,1.8974199295043945,-22.96961784362793,-4.737963676452637
1663862565668800500,11.363800537109375,2.2027692794799805,-24.5830020904541,-6.6660614013671875
1663862565678688300,11.373688232421875,-5.831979751586914,-23.21298599243164,-11.920415878295898
1663862565688545300,11.383545166015624,-6.0689496994018555,-21.832843780517578,-16.194726943969727
1663862565698433000,11.39343310546875,-2.9825305938720703,-17.378700256347656,-16.1070613861084
1663862565708320800,11.40332080078125,-2.651280403137207,-12.058302879333496,-14.295493125915527
1663862565718208500,11.41320849609375,-2.5476255416870117,-7.646233081817627,-14.881848335266113
1663862565728096300,11.42309619140625,-0.25136852264404297,-4.574853897094727,-15.607495307922363
1663862565737953300,11.432953369140625,1.6695737838745117,-3.452214241027832,-13.117391586303711
1663862565747841000,11.442841064453125,1.3184728622436523,-4.668652534484863,-10.80734634399414
1663862565757728800,11.452728759765625,0.8011140823364258,-5.741327285766602,-8.37933349609375
1663862565767616500,11.462616455078125,-1.578049659729004,-3.8825979232788086,-6.254055976867676
1663862565777504300,11.472504150390625,-2.991826057434082,-1.951798915863037,-3.895432472229004
1663862565787391700,11.482391845703125,-4.4038848876953125,-1.9066228866577148,-1.8958461284637451
1663862565797249000,11.4922490234375,-5.70423698425293,-2.7559962272644043,-1.0680196285247803
1663862565807106300,11.502106201171875,-6.446298599243164,-2.943483352661133,-0.8657205104827881
1663862565816993800,11.511993896484375,-6.185251235961914,-3.199033737182617,-1.118196725845337
1663862565826881500,11.521881591796875,-0.1700277328491211,-2.5394845008850098,1.0941288471221924
1663862565836769300,11.531769287109375,25.661983489990234,0.8837466239929199,15.58311653137207
1663862565846657000,11.541656982421875,3.5593433380126953,-4.368256092071533,2.876791477203369
1663862565856544800,11.551544677734375,-7.0507636070251465,-6.718019485473633,-4.136198043823242
1663862565866432300,11.561432373046875,-5.961689472198486,-3.9571585655212402,1.4141077995300293
1663862565876320000,11.571320068359375,-6.493375778198242,-1.5542182922363281,9.265970230102539
1663862565886207700,11.581207763671875,-11.68222427368164,-0.296783447265625,15.629913330078125
1663862565896095500,11.591095458984375,-13.406564712524414,-0.5371694564819336,15.232789993286133
1663862565905952500,11.600952392578124,-8.183191299438477,-1.6797070503234863,9.35688304901123
1663862565915840300,11.61084033203125,-1.6839995384216309,-3.608870029449463,2.0278830528259277
1663862565925728000,11.62072802734375,-0.5573840141296387,-5.102327346801758,-1.9338343143463135
1663862565935615700,11.63061572265625,-1.963426113128662,-6.603601932525635,-2.494955062866211
1663862565945503500,11.64050341796875,-1.915250301361084,-7.776858806610107,-3.8177762031555176
1663862565955391200,11.65039111328125,-2.926884174346924,-7.385230541229248,-6.680645942687988
1663862565965248300,11.660248291015625,-1.0414342880249023,-6.092439651489258,-6.584494590759277
1663862565975136000,11.670135986328125,-0.3782315254211426,-3.6331915855407715,-7.929777145385742
1663862565985023700,11.680023681640625,0.5772609710693359,-0.6303610801696777,-7.818634510040283
1663862565994911500,11.689911376953125,1.6400537490844727,1.398240089416504,-6.14854621887207
1663862566004799000,11.699799072265625,1.8545427322387695,2.2773656845092773,-4.2944536209106445
1663862566014656300,11.70965625,0.6992640495300293,2.9169392585754395,-1.6863691806793213
1663862566024544000,11.7195439453125,-2.646834373474121,2.5034008026123047,1.7084273099899292
1663862566034431700,11.729431640625,-5.228516101837158,0.7656583786010742,3.5473499298095703
1663862566044288800,11.739288818359375,-4.667487144470215,-0.7064757347106934,3.5520753860473633
1663862566054176500,11.749176513671875,-0.9832329750061035,-1.616837978363037,1.6309934854507446
1663862566064024300,11.7590244140625,2.834042549133301,-2.07450008392334,-0.6765697002410889
1663862566073912000,11.768912109375,4.677075386047363,-2.111415386199951,-1.6277580261230469
1663862566083769300,11.778769287109375,4.283227920532227,-1.9625167846679688,-1.6041061878204346
1663862566093656800,11.78865673828125,2.2376346588134766,-1.9734859466552734,-1.2594707012176514
1663862566103575000,11.798574951171876,-0.42215776443481445,-1.943868637084961,-1.074143648147583
1663862566113462800,11.808462890625,-0.27467966079711914,-1.7660446166992188,-1.8602640628814697
1663862566123350500,11.8183505859375,-1.287825107574463,-1.2010478973388672,-2.0138323307037354
1663862566133216000,11.828216064453125,-3.235236644744873,-0.48281192779541016,-1.3989784717559814
1663862566143073300,11.8380732421875,-4.620999336242676,-0.07892513275146484,-0.8564610481262207
1663862566152961000,11.8479609375,-4.931221008300781,0.01383209228515625,-0.8629902005195618
1663862566162848800,11.857848876953126,-4.201598167419434,-0.0865774154663086,-0.7368715405464172
1663862566172736300,11.867736328125,-2.7333412170410156,-0.4376087188720703,-0.5264121294021606
1663862566182624000,11.8776240234375,-1.274885654449463,-0.6798391342163086,-0.36797720193862915
1663862566192511700,11.88751171875,-0.8425436019897461,-0.7993173599243164,-0.1486871838569641
1663862566202369000,11.897369140625,-0.632267951965332,-0.7723388671875,0.07138079404830933
1663862566212256500,11.907256591796875,-0.3925466537475586,-0.5277433395385742,0.5851377248764038
1663862566222174700,11.9171748046875,-0.5269570350646973,-0.6639862060546875,0.9865581393241882
1663862566232032000,11.927031982421875,-0.21570634841918945,-1.102452278137207,0.966496467590332
1663862566241889300,11.93688916015625,0.4506378173828125,-1.6096248626708984,0.7231314182281494
1663862566251807500,11.946807373046875,1.026134967803955,-2.1606874465942383,0.4257875680923462
1663862566261695000,11.956695068359375,1.0701303482055664,-2.656672477722168,0.20013797283172607
1663862566271582700,11.966582763671875,0.8504190444946289,-2.6951751708984375,0.04858347773551941
1663862566281470500,11.976470458984375,0.349733829498291,-2.2741994857788086,-0.41650182008743286
1663862566291358200,11.986358154296875,-0.8690080642700195,-2.0673046112060547,-0.6902860999107361
1663862566301246000,11.996245849609375,-1.5109353065490723,-2.192699432373047,-0.6372994780540466
1663862566311133400,12.006133544921875,-1.4536504745483398,-2.361771583557129,-0.4439665377140045
1663862566321021200,12.016021240234375,-1.2760224342346191,-2.4966955184936523,-0.21313457190990448
1663862566330909000,12.025908935546875,-1.4694480895996094,-2.3781280517578125,0.06653022021055222
1663862566340766200,12.03576611328125,-1.9283356666564941,-2.2951784133911133,0.15414364635944366
1663862566350653700,12.04565380859375,-2.3064651489257812,-2.109159469604492,0.4689655900001526
1663862566360541400,12.05554150390625,-2.4803566932678223,-1.6982908248901367,0.9911360144615173
1663862566370429200,12.06542919921875,-2.6486620903015137,-1.4068775177001953,0.8486266136169434
1663862566380317000,12.07531689453125,-2.847660541534424,-1.390777587890625,0.499205619096756
1663862566390174200,12.08517431640625,-2.76131534576416,-1.499882698059082,0.2768217921257019
1663862566400031200,12.09503125,-2.6413068771362305,-1.4328875541687012,0.4649299681186676
1663862566409919000,12.1049189453125,-2.258279323577881,-1.0958881378173828,0.5942597389221191
1663862566419806700,12.114806640625,-1.544189453125,-0.9889569282531738,0.24236920475959778
1663862566429694500,12.124694580078126,-0.6121621131896973,-1.6754236221313477,-0.6146250367164612
1663862566439582000,12.13458203125,0.6354985237121582,-2.4208250045776367,-0.8886952996253967
1663862566449469700,12.1444697265625,1.2833895683288574,-2.7054481506347656,-0.9365812540054321
1663862566459357400,12.154357421875,1.2366080284118652,-2.7784228324890137,-0.7837632894515991
1663862566469245200,12.1642451171875,1.1405987739562988,-2.6175575256347656,-0.4687361419200897
1663862566479133000,12.1741328125,1.244422435760498,-2.2485246658325195,-0.11701619625091553
1663862566488990000,12.183989990234375,1.1990795135498047,-1.7155280113220215,0.40253573656082153
1663862566498847200,12.19384716796875,1.4375228881835938,-1.1320867538452148,0.5918599367141724
1663862566508735000,12.20373486328125,1.471658706665039,-1.105797290802002,-0.6656576991081238
1663862566518592000,12.213592041015625,0.6922073364257812,-1.3577847480773926,-1.0416432619094849
1663862566528510200,12.22351025390625,0.08206939697265625,-1.3997340202331543,-0.8299497961997986
1663862566538367500,12.233367431640625,-0.34544849395751953,-0.7787961959838867,-0.06303108483552933
1663862566548285700,12.24328564453125,-0.5721445083618164,-0.4613766670227051,0.3844458758831024
1663862566558173400,12.25317333984375,-0.39229583740234375,-0.4511685371398926,0.28815969824790955
1663862566568061000,12.26306103515625,0.39774608612060547,-0.5512194633483887,0.15624992549419403
1663862566577918200,12.272918212890625,1.224740982055664,-0.9101238250732422,-0.04378415271639824
1663862566587806000,12.282805908203125,1.1655874252319336,-0.9305663108825684,-0.6152210235595703
1663862566597693700,12.292693603515625,1.399348258972168,-0.24539613723754883,-0.9678926467895508
1663862566607550700,12.30255078125,1.1239252090454102,0.017400741577148438,-1.1847325563430786
1663862566617438500,12.3124384765625,0.592839241027832,-0.044199466705322266,-1.1189360618591309
1663862566627326200,12.322326171875,0.0820465087890625,0.0037674903869628906,-0.7646165490150452
1663862566637214000,12.3322138671875,-0.15741729736328125,-0.0023207664489746094,-0.5152897238731384
1663862566647101700,12.342101806640626,0.10776042938232422,-0.08399248123168945,-0.37320899963378906
1663862566656989200,12.3519892578125,0.5105438232421875,-0.39552879333496094,-0.4088713824748993
1663862566666877000,12.361876953125,0.8598318099975586,-0.6192517280578613,-0.34569498896598816
1663862566676764700,12.3717646484375,0.8555679321289062,-0.5083394050598145,-0.3356993496417999
1663862566686652400,12.38165234375,0.7440385818481445,-0.4018979072570801,-0.575933039188385
1663862566696540200,12.3915400390625,0.7208375930786133,-0.3753213882446289,-0.6080656051635742
1663862566706427600,12.401427734375,0.36998558044433594,-0.5615792274475098,-0.4425094723701477
1663862566716285000,12.411284912109375,-0.014478683471679688,-0.5124998092651367,-0.15054073929786682
1663862566726172700,12.421172607421875,-0.48688793182373047,-0.3588862419128418,-0.11083003878593445
1663862566736060400,12.431060302734375,-0.6688127517700195,-0.3232760429382324,-0.08459290862083435
1663862566745948000,12.440947998046875,-0.5295696258544922,-0.1656789779663086,0.08019301295280457
1663862566755835600,12.450835693359375,-0.5360050201416016,0.1502366065979004,0.021049678325653076
1663862566765662500,12.460662353515625,-0.6666231155395508,0.10420799255371094,-0.12795200943946838
1663862566775550000,12.470550048828125,-0.560943603515625,-0.14928102493286133,0.0016200542449951172
1663862566785437700,12.480437744140625,-0.3372669219970703,-0.4701204299926758,0.0706520676612854
1663862566795325400,12.490325439453125,0.2823066711425781,-0.8419523239135742,-0.12534412741661072
1663862566805213200,12.500213134765625,1.1648473739624023,-0.8357906341552734,-0.21544182300567627
1663862566815101000,12.510100830078125,1.730269432067871,-0.6659178733825684,-0.55629563331604
1663862566824958000,12.5199580078125,2.2091293334960938,-0.48564958572387695,-0.9554893374443054
1663862566834845700,12.529845703125,2.5585851669311523,-0.5112552642822266,-1.4869966506958008
1663862566844733400,12.5397333984375,2.2654075622558594,-0.693901538848877,-1.7030878067016602
1663862566854621200,12.54962109375,2.09249210357666,-0.7263236045837402,-1.5290329456329346
1663862566864508700,12.5595087890625,1.675215721130371,-0.8159747123718262,-1.226898431777954
1663862566874396400,12.569396484375,1.6744003295898438,-1.2820868492126465,-1.6449788808822632
1663862566884284200,12.5792841796875,1.4187374114990234,-1.2291884422302246,-1.3197354078292847
1663862566894141400,12.589141357421875,1.0483808517456055,-0.8514447212219238,-0.6157034635543823
1663862566904029200,12.599029296875,0.26446533203125,-0.6215372085571289,-0.17214250564575195
1663862566913916700,12.608916748046875,-0.13756752014160156,-0.5192809104919434,0.2145693302154541
1663862566923804400,12.618804443359375,-0.3968620300292969,-0.7718415260314941,0.16854792833328247
1663862566933692200,12.628692138671875,-0.771845817565918,-0.8329691886901855,0.17785024642944336
1663862566943580000,12.638579833984375,-0.7082672119140625,-1.1969614028930664,0.22080397605895996
1663862566953467600,12.648467529296875,-0.3368854522705078,-1.569472312927246,0.5316633582115173
1663862566963355100,12.658355224609375,-0.4214668273925781,-1.3975410461425781,0.9614948630332947
1663862566973243000,12.668242919921875,-0.43472957611083984,-1.2507739067077637,0.5406793355941772
1663862566983100200,12.67810009765625,-0.9211869239807129,-0.9940838813781738,0.16268062591552734
1663862566992988000,12.68798779296875,-1.1413631439208984,-0.8057551383972168,-0.25908172130584717
1663862567002875400,12.69787548828125,-0.7992534637451172,-1.1665568351745605,-0.3824268579483032
1663862567012732700,12.707732666015625,-0.6285748481750488,-1.4849495887756348,-0.2615700960159302
1663862567022620400,12.717620361328125,-0.17934131622314453,-1.4915790557861328,-0.2813284397125244
1663862567032477400,12.7274775390625,0.9701766967773438,-1.704319953918457,-0.2978959083557129
1663862567042365200,12.737365234375,1.4718284606933594,-1.9826231002807617,-0.13460230827331543
1663862567052253000,12.7472529296875,1.7061896324157715,-1.9176745414733887,-0.416866660118103
1663862567062140700,12.757140625,1.8017644882202148,-1.2995023727416992,-1.3306282758712769
1663862567072028400,12.7670283203125,1.179947853088379,-0.808499813079834,-2.079019546508789
1663862567081916000,12.776916015625,0.37015771865844727,-0.9373807907104492,-2.127671241760254
1663862567091773200,12.786773193359375,-0.6740913391113281,-1.082529067993164,-1.488088846206665
1663862567101661000,12.796660888671875,-1.621321201324463,-0.978034496307373,-0.8156660795211792
1663862567111518000,12.80651806640625,-1.9201068878173828,-0.8415632247924805,-0.6628838777542114
1663862567121436400,12.8164365234375,-1.780306339263916,-1.0039992332458496,-0.6848338842391968
