time,seconds_elapsed,z,y,x
1663862554551429600,0.2464296875,8.881540298461914,2.075429916381836,-3.6029469966888428
1663862554561317400,0.2563173828125,9.100351333618164,2.2650187015533447,-2.867694616317749
1663862554571205000,0.266205078125,9.175137519836426,2.4974138736724854,-2.397947311401367
1663862554581092900,0.2760927734375,9.227892875671387,2.5931906700134277,-2.0716543197631836
1663862554590980400,0.28598046875,9.291889190673828,2.5713448524475098,-1.794258713722229
1663862554600868000,0.2958681640625,9.346341133117676,2.5227794647216797,-1.565845012664795
1663862554610755800,0.305755859375,9.374726295471191,2.49783992767334,-1.4302797317504883
1663862554620643600,0.3156435546875,9.37911605834961,2.507385730743408,-1.3840445280075073
1663862554630531300,0.32553125,9.359875679016113,2.5277302265167236,-1.4743430614471436
1663862554640418800,0.335418701171875,9.325799942016602,2.5282814502716064,-1.67559814453125
1663862554650306600,0.345306640625,9.31935977935791,2.4711809158325195,-1.7925353050231934
1663862554660133400,0.35513330078125,9.348822593688965,2.3808348178863525,-1.7611173391342163
1663862554669990400,0.364990478515625,9.38232707977295,2.308223247528076,-1.677631139755249
1663862554679908600,0.37490869140625,9.39919376373291,2.2929446697235107,-1.6024836301803589
1663862554689796400,0.38479638671875,9.397321701049805,2.3447747230529785,-1.53713059425354
1663862554699684000,0.39468408203125,9.385245323181152,2.4375672340393066,-1.4648640155792236
1663862554709571800,0.40457177734375,9.370382308959961,2.529071807861328,-1.4036123752593994
1663862554719428900,0.414428955078125,9.359052658081055,2.5799241065979004,-1.3865529298782349
1663862554729316600,0.424316650390625,9.357255935668945,2.5695900917053223,-1.417518973350525
1663862554739174000,0.434173828125,9.362153053283691,2.5203607082366943,-1.4724979400634766
1663862554749092000,0.444092041015625,9.364303588867188,2.4777657985687256,-1.5299971103668213
1663862554758979600,0.4539794921875,9.36080265045166,2.4743947982788086,-1.5566388368606567
1663862554768867300,0.463867431640625,9.351667404174805,2.51611590385437,-1.5446171760559082
1663862554778724600,0.473724609375,9.336312294006348,2.591498613357544,-1.5125468969345093
1663862554788581600,0.48358154296875,9.31782341003418,2.67026424407959,-1.4893759489059448
1663862554798469400,0.493469482421875,9.301674842834473,2.731175184249878,-1.479833722114563
1663862554808357000,0.503357177734375,9.292447090148926,2.754502058029175,-1.4945029020309448
1663862554818214400,0.51321435546875,9.29214096069336,2.729987144470215,-1.5406676530838013
1663862554828132600,0.523132568359375,9.299334526062012,2.669484853744507,-1.6020609140396118
1663862554838020400,0.533020263671875,9.307650566101074,2.6054563522338867,-1.6582010984420776
1663862554847907800,0.542907958984375,9.315062522888184,2.570009469985962,-1.6718435287475586
1663862554857795600,0.552795654296875,9.31751537322998,2.5832526683807373,-1.6374071836471558
1663862554867683300,0.562683349609375,9.318309783935547,2.6172728538513184,-1.5777722597122192
1663862554877571000,0.572571044921875,9.320847511291504,2.630425453186035,-1.5404726266860962
1663862554887458800,0.582458740234375,9.326786041259766,2.6157209873199463,-1.5295286178588867
1663862554897315800,0.59231591796875,9.338949203491211,2.5695550441741943,-1.5335623025894165
1663862554907203600,0.60220361328125,9.353341102600098,2.5083816051483154,-1.5470683574676514
1663862554917060900,0.612060791015625,9.365235328674316,2.4627981185913086,-1.5483455657958984
1663862554926948400,0.6219482421875,9.377481460571289,2.440690040588379,-1.508725643157959
1663862554936836000,0.631836181640625,9.388317108154297,2.428086280822754,-1.4609180688858032
1663862554946723800,0.641723876953125,9.391799926757812,2.4268829822540283,-1.4403878450393677
1663862554956611600,0.651611572265625,9.389266967773438,2.4413883686065674,-1.4323638677597046
1663862554966468600,0.661468505859375,9.385431289672852,2.471982717514038,-1.404763102531433
1663862554976356400,0.6713564453125,9.385293006896973,2.5142552852630615,-1.3286051750183105
1663862554986244000,0.681244140625,9.393953323364258,2.550449848175049,-1.1913245916366577
1663862554996101400,0.691101318359375,9.411361694335938,2.5699970722198486,-0.995880663394928
1663862555006019600,0.70101953125,9.4280424118042,2.5802695751190186,-0.7903251647949219
1663862555015907000,0.710906982421875,9.435065269470215,2.596933126449585,-0.6370748281478882
1663862555025794800,0.720794921875,9.432510375976562,2.6255030632019043,-0.5521385073661804
1663862555035682600,0.7306826171875,9.425963401794434,2.658885955810547,-0.501946747303009
1663862555045570300,0.7405703125,9.421269416809082,2.687194585800171,-0.4348040223121643
1663862555055458000,0.7504580078125,9.417750358581543,2.71002197265625,-0.36351239681243896
1663862555065345800,0.760345703125,9.416004180908203,2.7240097522735596,-0.2983752191066742
1663862555075202800,0.770202880859375,9.415349006652832,2.729527473449707,-0.26696786284446716
1663862555085060000,0.78006005859375,9.413801193237305,2.7345433235168457,-0.2702229917049408
1663862555094947800,0.78994775390625,9.411333084106445,2.742663621902466,-0.27384549379348755
1663862555104835300,0.79983544921875,9.40590763092041,2.764704465866089,-0.23600426316261292
1663862555114692600,0.809692626953125,9.394122123718262,2.8098926544189453,-0.15924718976020813
1663862555124610800,0.81961083984375,9.377394676208496,2.868983030319214,-0.06157039850950241
1663862555134498600,0.82949853515625,9.359787940979004,2.926546335220337,0.00853131152689457
1663862555144386300,0.83938623046875,9.349008560180664,2.960630178451538,0.03324640169739723
1663862555154273800,0.849273681640625,9.345558166503906,2.9714467525482178,0.037949878722429276
1663862555164161500,0.85916162109375,9.343276023864746,2.9785797595977783,0.0404200442135334
1663862555174049300,0.86904931640625,9.336313247680664,2.999918222427368,0.06425609439611435
1663862555183906600,0.878906494140625,9.321257591247559,3.044278144836426,0.13014192879199982
1663862555193794000,0.8887939453125,9.294525146484375,3.116934061050415,0.25866273045539856
1663862555203681800,0.898681884765625,9.252695083618164,3.2185072898864746,0.44634348154067993
1663862555213569500,0.908569580078125,9.194003105163574,3.347111701965332,0.6614693403244019
1663862555223457300,0.918457275390625,9.131888389587402,3.474721908569336,0.8398250937461853
1663862555233305000,0.92830517578125,9.07648754119873,3.5761828422546387,0.9993459582328796
1663862555243192600,0.938192626953125,9.030377388000488,3.647481918334961,1.1482734680175781
1663862555253080300,0.948080322265625,8.991582870483398,3.694430112838745,1.2934484481811523
1663862555262968000,0.957968017578125,8.9498872756958,3.7266345024108887,1.477197527885437
1663862555272855800,0.967855712890625,8.894744873046875,3.7470896244049072,1.7358636856079102
1663862555282712800,0.977712890625,8.821142196655273,3.7533926963806152,2.0663726329803467
1663862555292570000,0.987570068359375,8.729351043701172,3.7416131496429443,2.4431841373443604
1663862555302457900,0.997457763671875,8.613631248474121,3.715763568878174,2.8581185340881348
1663862555312345600,1.007345703125,8.460677146911621,3.68835186958313,3.314117908477783
1663862555322233000,1.017233154296875,8.27148151397705,3.6570520401000977,3.7919580936431885
1663862555332120800,1.027120849609375,8.070791244506836,3.606581926345825,4.245620250701904
1663862555342008600,1.037008544921875,7.862717628479004,3.5446393489837646,4.667290687561035
1663862555351896300,1.046896240234375,7.653361797332764,3.4623770713806152,5.060473442077637
1663862555361784000,1.0567841796875,7.466282844543457,3.3441762924194336,5.407540321350098
1663862555371671600,1.066671630859375,7.296765327453613,3.190700054168701,5.722503662109375
1663862555381559300,1.076559326171875,7.120840072631836,3.0011868476867676,6.037954807281494
1663862555391416600,1.08641650390625,6.918990612030029,2.7798259258270264,6.369500160217285
1663862555401304300,1.09630419921875,6.66416072845459,2.526503801345825,6.736179828643799
1663862555411161300,1.106161376953125,6.288895130157471,2.24433970451355,7.1821393966674805
1663862555421049000,1.116049072265625,5.802309036254883,1.8825042247772217,7.678526401519775
1663862555430936800,1.125936767578125,5.366899013519287,1.4242775440216064,8.083205223083496
1663862555440824600,1.135824462890625,5.054159164428711,0.8979635834693909,8.35580825805664
1663862555450681600,1.145681640625,4.840259075164795,0.33996328711509705,8.522130012512207
1663862555460539000,1.155538818359375,4.660725116729736,-0.19230803847312927,8.62618350982666
1663862555470457000,1.16545703125,4.438951015472412,-0.6816390156745911,8.71788215637207
1663862555480314400,1.175314453125,4.173253536224365,-1.1436408758163452,8.800365447998047
1663862555490232600,1.185232666015625,3.92277193069458,-1.5902928113937378,8.846084594726562
1663862555500089600,1.195089599609375,3.7229459285736084,-2.0125198364257812,8.846457481384277
1663862555509947000,1.20494677734375,3.5656559467315674,-2.401859998703003,8.814054489135742
1663862555519865000,1.214864990234375,3.429992914199829,-2.7588934898376465,8.76322078704834
1663862555529752800,1.2247529296875,3.3177084922790527,-3.066693067550659,8.703940391540527
1663862555539640300,1.234640380859375,3.2405266761779785,-3.30047869682312,8.64732551574707
1663862555549528000,1.244528076171875,3.1940765380859375,-3.4472239017486572,8.607258796691895
1663862555559415800,1.254415771484375,3.1604745388031006,-3.5198872089385986,8.59023666381836
1663862555569303600,1.264303466796875,3.136319875717163,-3.5474236011505127,8.587762832641602
1663862555579160600,1.27416064453125,3.128941059112549,-3.553642988204956,8.587882995605469
1663862555589048300,1.28404833984375,3.136915922164917,-3.5489439964294434,8.58691692352295
1663862555598905600,1.293905517578125,3.1366868019104004,-3.529071807861328,8.595187187194824
1663862555608793300,1.30379345703125,3.107628345489502,-3.47308611869812,8.6284818649292
1663862555618680800,1.313680908203125,3.0441997051239014,-3.366041660308838,8.693273544311523
1663862555628568600,1.323568603515625,2.9479336738586426,-3.2143290042877197,8.783402442932129
1663862555638456300,1.333456298828125,2.837958812713623,-3.0357232093811035,8.882609367370605
1663862555648344000,1.343343994140625,2.742216110229492,-2.858180522918701,8.971145629882812
1663862555658201000,1.353201171875,2.6631181240081787,-2.7011213302612305,9.043346405029297
1663862555668088800,1.3630888671875,2.574553966522217,-2.5706238746643066,9.106807708740234
1663862555677946000,1.372946044921875,2.456697940826416,-2.4806835651397705,9.164127349853516
1663862555687833900,1.382833740234375,2.3088550567626953,-2.4442741870880127,9.212224960327148
1663862555697721600,1.3927216796875,2.165226697921753,-2.4506404399871826,9.245351791381836
1663862555707639800,1.402639892578125,2.06306529045105,-2.4867348670959473,9.259064674377441
1663862555717527300,1.41252734375,1.9883475303649902,-2.549591302871704,9.258317947387695
1663862555727415000,1.4224150390625,1.923410415649414,-2.6176609992980957,9.25303840637207
1663862555737272300,1.432272216796875,1.8517473936080933,-2.681658983230591,9.2493314743042
1663862555747129300,1.44212939453125,1.7134462594985962,-2.7145540714263916,9.266373634338379
1663862555757017000,1.45201708984375,1.484322428703308,-2.696425437927246,9.311094284057617
1663862555766904800,1.46190478515625,1.2292808294296265,-2.670708417892456,9.35556411743164
1663862555776792600,1.47179248046875,1.1226727962493896,-2.713592767715454,9.356622695922852
1663862555786680300,1.481680419921875,1.1599864959716797,-2.7609357833862305,9.338203430175781
1663862555796567800,1.49156787109375,1.196733832359314,-2.7367639541625977,9.340682029724121
1663862555806455600,1.50145556640625,1.1739851236343384,-2.659834384918213,9.365757942199707
1663862555816343300,1.51134326171875,1.1159751415252686,-2.557624578475952,9.401251792907715
1663862555826231000,1.52123095703125,1.0654605627059937,-2.4543800354003906,9.434575080871582
1663862555836118800,1.531118896484375,1.0617343187332153,-2.3413901329040527,9.463667869567871
1663862555846006300,1.54100634765625,1.0885977745056152,-2.209890604019165,9.492192268371582
1663862555855894000,1.55089404296875,1.1288506984710693,-2.059587001800537,9.521249771118164
1663862555865781800,1.56078173828125,1.1509538888931274,-1.9517450332641602,9.541298866271973
1663862555875639000,1.57063916015625,1.1761386394500732,-1.9767900705337524,9.53306770324707
1663862555885526500,1.580526611328125,1.0931726694107056,-2.0582523345947266,9.525700569152832
1663862555895414300,1.590414306640625,0.9164972901344299,-2.1320037841796875,9.528115272521973
1663862555905302000,1.600302001953125,0.7522974610328674,-2.2412686347961426,9.517413139343262
1663862555915189800,1.610189697265625,0.588457465171814,-2.420797348022461,9.4849271774292
1663862555925047000,1.620047119140625,0.35381433367729187,-2.6712560653686523,9.429187774658203
1663862555934934500,1.6299345703125,0.0003338629030622542,-3.0185091495513916,9.330540657043457
1663862555944822300,1.639822265625,-0.366048127412796,-3.491542339324951,9.156720161437988
1663862555954679600,1.649679443359375,-0.6679704189300537,-4.046787261962891,8.907732963562012
1663862555964567300,1.6595673828125,-0.8798530101776123,-4.590270519256592,8.621233940124512
1663862555974454800,1.669454833984375,-0.9406881928443909,-5.099741458892822,8.323348999023438
1663862555984342500,1.679342529296875,-0.8432942032814026,-5.578631401062012,8.021103858947754
1663862555994199800,1.68919970703125,-0.7755707502365112,-6.006653785705566,7.7129106521606445
1663862556004087600,1.699087646484375,-0.8483030200004578,-6.409467697143555,7.3735671043396
1663862556013975000,1.70897509765625,-0.9629221558570862,-6.820314884185791,6.980434417724609
1663862556023862800,1.71886279296875,-0.9773987531661987,-7.21380090713501,6.570856094360352
1663862556033750500,1.72875048828125,-0.9179105162620544,-7.5427565574646,6.199569225311279
1663862556043638300,1.73863818359375,-0.8785226941108704,-7.773838043212891,5.9132080078125
1663862556053526000,1.748526123046875,-0.8839825391769409,-7.869479179382324,5.784483909606934
1663862556063413500,1.75841357421875,-0.8811378479003906,-7.880867958068848,5.769392967224121
1663862556073301200,1.76830126953125,-0.8608248233795166,-7.897714138031006,5.749388217926025
1663862556083158500,1.778158447265625,-0.855322003364563,-7.923834800720215,5.714162349700928
1663862556093046300,1.78804638671875,-0.8605043292045593,-7.944089412689209,5.685188293457031
1663862556102933800,1.797933837890625,-0.8478981256484985,-7.961244583129883,5.663041114807129
1663862556112821500,1.807821533203125,-0.8218510150909424,-7.978428840637207,5.642660140991211
1663862556122709200,1.817709228515625,-0.8004842400550842,-7.995901107788086,5.620959758758545
1663862556132597000,1.827596923828125,-0.792133629322052,-8.01790714263916,5.590713024139404
1663862556142454000,1.8374541015625,-0.7947592735290527,-8.044684410095215,5.551739692687988
1663862556152341800,1.847341796875,-0.8013731837272644,-8.070937156677246,5.512544631958008
1663862556162229500,1.8572294921875,-0.8078688979148865,-8.090499877929688,5.482840538024902
1663862556172117200,1.8671171875,-0.8124898076057434,-8.103837966918945,5.462423324584961
1663862556182005000,1.8770048828125,-0.8201534152030945,-8.1185302734375,5.439411640167236
1663862556191862000,1.886862060546875,-0.8283321857452393,-8.132558822631836,5.417171955108643
1663862556201749800,1.896749755859375,-0.8343448638916016,-8.137474060058594,5.40886116027832
1663862556211637500,1.906637451171875,-0.8385197520256042,-8.120572090148926,5.433559894561768
1663862556221525200,1.916525146484375,-0.8378980159759521,-8.090429306030273,5.47843599319458
1663862556231413000,1.9264130859375,-0.8226078152656555,-8.066822052001953,5.515440464019775
1663862556241270000,1.93627001953125,-0.8008017539978027,-8.058089256286621,5.531393527984619
1663862556251157800,1.94615771484375,-0.7781051993370056,-8.073094367980957,5.512721538543701
1663862556261045500,1.95604541015625,-0.7647629380226135,-8.121187210083008,5.443513870239258
1663862556270933200,1.965933349609375,-0.7779585123062134,-8.199734687805176,5.322547435760498
1663862556280820700,1.97582080078125,-0.8180676698684692,-8.293693542480469,5.1687331199646
1663862556290708500,1.98570849609375,-0.8759099245071411,-8.394247055053711,4.993971824645996
1663862556300565800,1.995565673828125,-0.9690020084381104,-8.498260498046875,4.79697847366333
1663862556310453500,2.00545361328125,-1.099421739578247,-8.602158546447754,4.578702926635742
1663862556320341000,2.015341064453125,-1.2861336469650269,-8.692419052124023,4.354089736938477
1663862556330228700,2.025228759765625,-1.5699472427368164,-8.765880584716797,4.106699466705322
1663862556340116500,2.035116455078125,-1.7892179489135742,-8.848151206970215,3.8313584327697754
1663862556349973800,2.044973876953125,-1.836135983467102,-8.956189155578613,3.5476295948028564
1663862556359861200,2.054861328125,-1.8222482204437256,-9.071452140808105,3.249391794204712
1663862556369749000,2.0647490234375,-1.8422338962554932,-9.176288604736328,2.9278435707092285
1663862556379636700,2.07463671875,-1.886071801185608,-9.26779556274414,2.5925073623657227
1663862556389524500,2.0845244140625,-1.9115195274353027,-9.346053123474121,2.273270845413208
1663862556399412200,2.094412109375,-1.9138158559799194,-9.411211013793945,1.9841355085372925
1663862556409269200,2.104269287109375,-1.9053412675857544,-9.461283683776855,1.7390170097351074
1663862556419157000,2.114156982421875,-1.8624056577682495,-9.505017280578613,1.5350840091705322
1663862556429044700,2.124044677734375,-1.7684518098831177,-9.548909187316895,1.3642983436584473
1663862556438932500,2.133932373046875,-1.6358128786087036,-9.590065956115723,1.2349685430526733
1663862556448820200,2.1438203125,-1.4809656143188477,-9.624892234802246,1.1569701433181763
1663862556458677200,2.15367724609375,-1.29827082157135,-9.656463623046875,1.1124733686447144
1663862556468534500,2.163534423828125,-1.1100482940673828,-9.691323280334473,1.0081853866577148
1663862556478391600,2.1733916015625,-0.9518280625343323,-9.730019569396973,0.7688531875610352
1663862556488279300,2.183279296875,-0.8234082460403442,-9.76022720336914,0.47994038462638855
1663862556498167000,2.1931669921875,-0.7009443044662476,-9.77728271484375,0.289486289024353
1663862556508085200,2.203085205078125,-0.5723787546157837,-9.788520812988281,0.16626623272895813
1663862556517973000,2.212972900390625,-0.4859119653701782,-9.794519424438477,0.040644362568855286
1663862556527830000,2.222830078125,-0.43125399947166443,-9.796708106994629,-0.09439413994550705
1663862556537687300,2.232687255859375,-0.37454721331596375,-9.797157287597656,-0.214009627699852
1663862556547575000,2.242574951171875,-0.3285796642303467,-9.796772956848145,-0.29264357686042786
1663862556557462800,2.252462890625,-0.30475112795829773,-9.796140670776367,-0.3363777995109558
1663862556567319800,2.26231982421875,-0.29656437039375305,-9.795345306396484,-0.36558160185813904
1663862556577238000,2.272238037109375,-0.2997090816497803,-9.794818878173828,-0.3769288659095764
1663862556587125800,2.282125732421875,-0.31607383489608765,-9.794815063476562,-0.363441526889801
1663862556596983000,2.291983154296875,-0.34304291009902954,-9.795228958129883,-0.3258725702762604
1663862556606870500,2.30187060546875,-0.37770894169807434,-9.79561996459961,-0.2712402045726776
1663862556616758300,2.31175830078125,-0.42160770297050476,-9.795411109924316,-0.2062787264585495
1663862556626646000,2.32164599609375,-0.4722987413406372,-9.794363021850586,-0.13332262635231018
1663862556636533800,2.33153369140625,-0.5260630249977112,-9.79238510131836,-0.053322192281484604
1663862556646390800,2.341390869140625,-0.577347457408905,-9.789617538452148,0.021432828158140182
1663862556656309200,2.351309326171875,-0.5872258543968201,-9.788783073425293,0.07256630063056946
1663862556666196700,2.36119677734375,-0.541819155216217,-9.791303634643555,0.08470799773931503
1663862556676084500,2.37108447265625,-0.4760976731777191,-9.794832229614258,0.070631243288517
1663862556685972200,2.38097216796875,-0.4380126893520355,-9.796745300292969,0.0483151450753212
1663862556695860000,2.39085986328125,-0.43620172142982483,-9.796908378601074,0.026234913617372513
1663862556705747700,2.400747802734375,-0.46159878373146057,-9.795771598815918,0.013132110238075256
1663862556715635200,2.41063525390625,-0.5052169561386108,-9.79361343383789,0.016397852450609207
1663862556725492500,2.420492431640625,-0.5438433885574341,-9.791513442993164,0.02941804751753807
1663862556735380200,2.430380126953125,-0.5631126165390015,-9.790365219116211,0.045105382800102234
1663862556745268000,2.44026806640625,-0.5611591339111328,-9.790359497070312,0.06587285548448563
1663862556755155500,2.450155517578125,-0.5459297895431519,-9.790995597839355,0.09357766807079315
1663862556765043200,2.460043212890625,-0.5277814269065857,-9.791648864746094,0.12427492439746857
1663862556774900500,2.469900390625,-0.5179134011268616,-9.7918119430542,0.1502467542886734
1663862556784788200,2.479788330078125,-0.5162767767906189,-9.79167366027832,0.16423726081848145
1663862556794645200,2.489645263671875,-0.5267878770828247,-9.790998458862305,0.17099492251873016
1663862556804533000,2.499532958984375,-0.5428575277328491,-9.79002857208252,0.176123708486557
1663862556814420700,2.509420654296875,-0.5571147203445435,-9.789164543151855,0.17961983382701874
1663862556824308500,2.51930859375,-0.564814567565918,-9.788747787475586,0.17830602824687958
1663862556834196000,2.529196044921875,-0.5627612471580505,-9.788934707641602,0.17442350089550018
1663862556844083700,2.539083740234375,-0.5556488037109375,-9.789368629455566,0.1729353666305542
1663862556853971500,2.548971435546875,-0.5489585399627686,-9.789716720581055,0.1745617389678955
1663862556863859200,2.558859130859375,-0.5460838079452515,-9.789839744567871,0.1766863316297531
1663862556873747000,2.568746826171875,-0.5489886403083801,-9.789649963378906,0.17822954058647156
1663862556883604000,2.57860400390625,-0.5586559176445007,-9.789068222045898,0.1801198422908783
1663862556893491700,2.58849169921875,-0.5747827887535095,-9.78805923461914,0.1841307133436203
1663862556903379500,2.59837939453125,-0.597198486328125,-9.786588668823242,0.1908840537071228
1663862556913267200,2.60826708984375,-0.6253091096878052,-9.784660339355469,0.1994839906692505
1663862556923155000,2.618155029296875,-0.656582236289978,-9.782398223876953,0.20972533524036407
1663862556933042400,2.62804248046875,-0.6905243396759033,-9.779818534851074,0.2207185924053192
1663862556942899700,2.637899658203125,-0.7285733819007874,-9.776825904846191,0.23076049983501434
1663862556952787500,2.647787353515625,-0.7749143242835999,-9.773018836975098,0.24082592129707336
1663862556962675200,2.65767529296875,-0.8327975869178772,-9.767952919006348,0.25285694003105164
1663862556972562700,2.667562744140625,-0.9030535221099854,-9.761309623718262,0.2677948474884033
1663862556982450400,2.677450439453125,-0.9843121767044067,-9.752928733825684,0.2861906886100769
1663862556992307700,2.6873076171875,-1.074468970298767,-9.742768287658691,0.3072310984134674
1663862557002195500,2.697195556640625,-1.1721011400222778,-9.730785369873047,0.3292332887649536
1663862557012083000,2.7070830078125,-1.2754871845245361,-9.716928482055664,0.35331204533576965
1663862557021970700,2.716970703125,-1.3859803676605225,-9.700770378112793,0.38012805581092834
1663862557031858400,2.7268583984375,-1.5049257278442383,-9.681946754455566,0.4068140983581543
1663862557041715700,2.7367158203125,-1.6268186569213867,-9.66125774383545,0.42891091108322144
1663862557051603200,2.746603271484375,-1.744857668876648,-9.639862060546875,0.44602569937705994
1663862557061491000,2.756490966796875,-1.8563629388809204,-9.618263244628906,0.4618624150753021
1663862557071378700,2.766378662109375,-1.957729697227478,-9.597084045410156,0.4833870232105255
1663862557081266400,2.776266357421875,-2.04689884185791,-9.576791763305664,0.5154140591621399
1663862557091154200,2.786154296875,-2.1307411193847656,-9.556207656860352,0.5560770630836487
1663862557101011200,2.79601123046875,-2.224335193634033,-9.53227424621582,0.5987380743026733
1663862557110899000,2.80589892578125,-2.3411312103271484,-9.50185489654541,0.6358020901679993
1663862557120786700,2.81578662109375,-2.472444772720337,-9.466676712036133,0.6628978848457336
1663862557130674400,2.82567431640625,-2.596811056137085,-9.431843757629395,0.6835659742355347
1663862557140562200,2.835562255859375,-2.700812339782715,-9.401139259338379,0.7032651901245117
1663862557150419200,2.845419189453125,-2.7890572547912598,-9.373677253723145,0.7250754833221436
1663862557160307000,2.855306884765625,-2.8764407634735107,-9.345434188842773,0.7478774189949036
1663862557170194700,2.865194580078125,-2.9724280834198,-9.313939094543457,0.765241265296936
1663862557180082400,2.87508251953125,-3.0803699493408203,-9.278349876403809,0.7706732153892517
1663862557189970000,2.884969970703125,-3.1939616203308105,-9.240301132202148,0.7653967142105103
1663862557199857700,2.894857666015625,-3.3085734844207764,-9.200958251953125,0.7523955702781677
1663862557209715000,2.90471484375,-3.4221434593200684,-9.16108226776123,0.7306863069534302
1663862557219602700,2.914602783203125,-3.546081781387329,-9.116061210632324,0.702221155166626
1663862557229459700,2.924459716796875,-3.6994168758392334,-9.05766487121582,0.6658992767333984
1663862557239347500,2.934347412109375,-3.9024012088775635,-8.975586891174316,0.6168357133865356
1663862557249235200,2.944235107421875,-4.164742946624756,-8.861108779907227,0.5532110333442688
1663862557259123000,2.954123046875,-4.470767498016357,-8.715096473693848,0.4792827367782593
1663862557269010400,2.964010498046875,-4.79006814956665,-8.547765731811523,0.4016774594783783
1663862557278867700,2.97386767578125,-5.101504325866699,-8.369193077087402,0.3188458979129791
1663862557288755500,2.98375537109375,-5.404836177825928,-8.179865837097168,0.21889156103134155
1663862557298643200,2.993643310546875,-5.698788642883301,-7.980325698852539,0.09273436665534973
1663862557308530700,3.00353076171875,-5.975341320037842,-7.775722026824951,-0.061994001269340515
1663862557318418400,3.01341845703125,-6.225436210632324,-7.573389053344727,-0.24107196927070618
1663862557328306200,3.02330615234375,-6.443475246429443,-7.380298137664795,-0.4280433654785156
1663862557338194000,3.03319384765625,-6.627451419830322,-7.202585220336914,-0.608306884765625
1663862557348081700,3.04308154296875,-6.776783466339111,-7.046030521392822,-0.7739858031272888
1663862557357969200,3.05296923828125,-6.8913774490356445,-6.9166460037231445,-0.9161427617073059
1663862557367826400,3.062826416015625,-6.977138042449951,-6.816108703613281,-1.0151853561401367
1663862557377683700,3.07268359375,-7.03993034362793,-6.742302417755127,-1.0729011297225952
1663862557387571500,3.082571533203125,-7.080511569976807,-6.691080093383789,-1.1252467632293701
1663862557397428500,3.092428466796875,-7.099244594573975,-6.659974575042725,-1.189895510673523
1663862557407346700,3.1023466796875,-7.099301815032959,-6.6490936279296875,-1.2489451169967651
1663862557417204000,3.112203857421875,-7.085723876953125,-6.657869338989258,-1.2789371013641357
1663862557427091700,3.122091796875,-7.060223579406738,-6.684479713439941,-1.2811522483825684
1663862557436979200,3.131979248046875,-7.0220160484313965,-6.726638317108154,-1.2704404592514038
1663862557446867000,3.141866943359375,-6.971264839172363,-6.781272888183594,-1.2594374418258667
1663862557456724200,3.15172412109375,-6.90743350982666,-6.847705841064453,-1.2516710758209229
1663862557466612000,3.161612060546875,-6.828968524932861,-6.927459239959717,-1.243338704109192
1663862557476499500,3.17149951171875,-6.736230373382568,-7.02032470703125,-1.2282588481903076
1663862557486356700,3.181356689453125,-6.630385398864746,-7.124905586242676,-1.201704978942871
1663862557506132200,3.20113232421875,-6.3728227615356445,-7.373472690582275,-1.0906003713607788
1663862557516019700,3.211019775390625,-6.229995250701904,-7.502694129943848,-1.0330151319503784
1663862557525907500,3.220907470703125,-6.076326370239258,-7.635074138641357,-0.9768831729888916
1663862557535795200,3.230795166015625,-5.9123711585998535,-7.768312454223633,-0.9314411878585815
1663862557545683000,3.240682861328125,-5.737151622772217,-7.901882648468018,-0.9031800627708435
1663862557555570700,3.25057080078125,-5.548079013824463,-8.036996841430664,-0.892133355140686
1663862557565458200,3.260458251953125,-5.345655918121338,-8.172863006591797,-0.8936734795570374
1663862557575315500,3.2703154296875,-5.1370062828063965,-8.304227828979492,-0.9062913656234741
1663862557585203200,3.280203125,-4.927919864654541,-8.426958084106445,-0.9340152144432068
1663862557595091000,3.290091064453125,-4.721146583557129,-8.539711952209473,-0.9769708514213562
1663862557604948000,3.299947998046875,-4.517508029937744,-8.644099235534668,-1.020816445350647
1663862557614835700,3.309835693359375,-4.316560745239258,-8.743973731994629,-1.0395208597183228
1663862557624723500,3.319723388671875,-4.126663684844971,-8.838299751281738,-1.0126720666885376
1663862557634611200,3.329611083984375,-3.953214168548584,-8.924976348876953,-0.9419485330581665
1663862557644499000,3.3394990234375,-3.801523447036743,-9.001063346862793,-0.8364574313163757
1663862557654356000,3.34935595703125,-3.6764819622039795,-9.063275337219238,-0.7147776484489441
1663862557664243700,3.35924365234375,-3.5690267086029053,-9.11493968963623,-0.5918678641319275
1663862557674131500,3.36913134765625,-3.4659130573272705,-9.161388397216797,-0.47624897956848145
1663862557684019200,3.379019287109375,-3.360830068588257,-9.205180168151855,-0.37398436665534973
1663862557693906700,3.38890673828125,-3.2576920986175537,-9.245217323303223,-0.28946352005004883
1663862557703794400,3.39879443359375,-3.1588430404663086,-9.281237602233887,-0.22521787881851196
1663862557713651700,3.408651611328125,-3.0711803436279297,-9.31162166595459,-0.1787126660346985
1663862557723539500,3.41853955078125,-2.9962854385375977,-9.33659553527832,-0.1436644196510315
1663862557733427000,3.428427001953125,-2.930576801300049,-9.357843399047852,-0.11349081248044968
1663862557743314700,3.438314697265625,-2.8688583374023438,-9.377288818359375,-0.08070041984319687
1663862557753172000,3.448171875,-2.8085880279541016,-9.395770072937012,-0.04156944900751114
1663862557763059700,3.458059814453125,-2.749587059020996,-9.413297653198242,0.0006224949029274285
1663862557772947200,3.467947265625,-2.691525936126709,-9.429986953735352,0.0375702828168869
1663862557782835000,3.4778349609375,-2.6216683387756348,-9.449478149414062,0.06800803542137146
1663862557792722700,3.48772265625,-2.5433669090270996,-9.4707670211792,0.07898265868425369
1663862557802610400,3.4976103515625,-2.4601690769195557,-9.492773056030273,0.07211839407682419
1663862557812498200,3.507498291015625,-2.3778045177459717,-9.513856887817383,0.05437716096639633
1663862557822385700,3.5173857421875,-2.299246311187744,-9.533246040344238,0.032736632972955704
1663862557832273400,3.5272734375,-2.2235519886016846,-9.551236152648926,0.009971346706151962
1663862557842161200,3.5371611328125,-2.1517982482910156,-9.567651748657227,-0.013724260963499546
1663862557852049000,3.547048828125,-2.0962398052215576,-9.579923629760742,-0.03497009724378586
1663862557871763200,3.56676318359375,-2.124192953109741,-9.573790550231934,-0.026993539184331894
1663862557881651000,3.57665087890625,-2.185106039047241,-9.56010913848877,0.00504485797137022
1663862557891538700,3.58653857421875,-2.26124906539917,-9.54211711883545,0.07155478000640869
1663862557901426400,3.596426513671875,-2.328413724899292,-9.524759292602539,0.16686762869358063
1663862557911283500,3.606283447265625,-2.3723466396331787,-9.511816024780273,0.26020151376724243
1663862557921171200,3.616171142578125,-2.399655818939209,-9.503233909606934,0.3171510100364685
1663862557931059000,3.626058837890625,-2.4166641235351562,-9.49864673614502,0.3253173530101776
1663862557940946700,3.63594677734375,-2.418769598007202,-9.499091148376465,0.2953368127346039
1663862557950834200,3.645834228515625,-2.422701597213745,-9.499504089355469,0.24561019241809845
1663862557960691500,3.65569140625,-2.463477849960327,-9.49020004272461,0.194333016872406
1663862557970579200,3.6655791015625,-2.5275380611419678,-9.47385025024414,0.16764022409915924
1663862557980436200,3.675436279296875,-2.556340456008911,-9.46579360961914,0.18514494597911835
1663862557990324000,3.685323974609375,-2.542701482772827,-9.468863487243652,0.21374259889125824
1663862558000211700,3.695211669921875,-2.5182676315307617,-9.475306510925293,0.21743839979171753
1663862558010099500,3.705099365234375,-2.4779536724090576,-9.485966682434082,0.21580612659454346
1663862558019987200,3.7149873046875,-2.4028215408325195,-9.504714012145996,0.2392442226409912
1663862558029874700,3.724874755859375,-2.2969629764556885,-9.529336929321289,0.2934176027774811
1663862558039762400,3.734762451171875,-2.1727030277252197,-9.555917739868164,0.36634185910224915
1663862558049650200,3.744650146484375,-2.035951614379883,-9.582700729370117,0.4439825117588043
1663862558059507500,3.754507568359375,-1.8956093788146973,-9.607843399047852,0.5161343216896057
1663862558069395000,3.76439501953125,-1.7616360187530518,-9.629668235778809,0.5801050662994385
1663862558079282700,3.77428271484375,-1.6400707960128784,-9.64790153503418,0.6312981843948364
1663862558089140000,3.784139892578125,-1.5322142839431763,-9.66349983215332,0.6629244089126587
1663862558099058200,3.79405810546875,-1.4374321699142456,-9.677431106567383,0.6719531416893005
1663862558108946000,3.80394580078125,-1.3563488721847534,-9.689820289611816,0.6618709564208984
1663862558128721200,3.82372119140625,-1.2567691802978516,-9.70815658569336,0.5853422284126282
1663862558138578400,3.833578369140625,-1.2213177680969238,-9.71521282196045,0.5416961312294006
1663862558148466200,3.843466064453125,-1.1985290050506592,-9.720182418823242,0.501954197883606
1663862558158384400,3.85338427734375,-1.189243197441101,-9.723043441772461,0.46745193004608154
1663862558168272100,3.863272216796875,-1.1919775009155273,-9.724068641662598,0.4382670223712921
1663862558178159600,3.87315966796875,-1.2054024934768677,-9.72341251373291,0.4155123829841614
1663862558188047400,3.88304736328125,-1.2318300008773804,-9.720664978027344,0.4020489454269409
1663862558197935000,3.89293505859375,-1.2756984233856201,-9.715058326721191,0.40078625082969666
1663862558207792400,3.90279248046875,-1.3387967348098755,-9.705977439880371,0.4147503674030304
1663862558217649400,3.9126494140625,-1.4184558391571045,-9.693300247192383,0.44532322883605957
1663862558227537200,3.922537109375,-1.5106768608093262,-9.677138328552246,0.4911632537841797
1663862558237394400,3.93239453125,-1.6141916513442993,-9.657368659973145,0.5477185249328613
1663862558247312600,3.942312744140625,-1.7327357530593872,-9.633265495300293,0.6068128347396851
1663862558257169700,3.952169677734375,-1.8655251264572144,-9.605095863342285,0.6575192213058472
1663862558267088000,3.962087890625,-2.007950782775879,-9.573643684387207,0.6956040859222412
1663862558276945200,3.971945068359375,-2.157539129257202,-9.539253234863281,0.7197632789611816
1663862558286802200,3.98180224609375,-2.319561243057251,-9.500375747680664,0.7299848794937134
1663862558296690000,3.99168994140625,-2.4852848052978516,-9.458549499511719,0.7277302145957947
1663862558306577700,4.00157763671875,-2.6311917304992676,-9.41943359375,0.7221418023109436
1663862558316465400,4.01146533203125,-2.7468793392181396,-9.38629150390625,0.7228921055793762
1663862558326353200,4.021353271484375,-2.844363212585449,-9.356890678405762,0.7270435690879822
1663862558336240600,4.03124072265625,-2.9405291080474854,-9.327167510986328,0.7263768315315247
1663862558346098000,4.041097900390625,-3.0406386852264404,-9.295609474182129,0.7187034487724304
1663862558356016000,4.05101611328125,-3.143958568572998,-9.26194953918457,0.7086650729179382
1663862558365904000,4.06090380859375,-3.252681016921997,-9.224863052368164,0.7016796469688416
1663862558375791600,4.07079150390625,-3.376070976257324,-9.180560111999512,0.699894905090332
1663862558385679400,4.080679443359375,-3.5203773975372314,-9.12612247467041,0.7008777856826782
1663862558395536400,4.090536376953125,-3.6893084049224854,-9.059369087219238,0.6980136036872864
1663862558405424000,4.100424072265625,-3.8988170623779297,-8.972455978393555,0.6816419959068298
1663862558415281400,4.110281494140625,-4.161165714263916,-8.856649398803711,0.6440743803977966
1663862558425199600,4.12019970703125,-4.476311206817627,-8.706033706665039,0.581387460231781
1663862558435087000,4.130087158203125,-4.826080322265625,-8.522982597351074,0.48796549439430237
1663862558444974800,4.139974853515625,-5.186665058135986,-8.314963340759277,0.3609476089477539
1663862558454862600,4.149862548828125,-5.538911819458008,-8.090216636657715,0.19809235632419586
1663862558474577000,4.169576904296875,-6.192501068115234,-7.601970672607422,-0.18266582489013672
1663862558484464600,4.179464599609375,-6.482937335968018,-7.349639892578125,-0.35315239429473877
1663862558494352400,4.189352294921875,-6.740942478179932,-7.1040425300598145,-0.5125128030776978
1663862558504240000,4.199240234375,-6.9620361328125,-6.873651027679443,-0.6733213067054749
1663862558514127600,4.209127685546875,-7.145488262176514,-6.663888454437256,-0.8396283984184265
1663862558524015400,4.219015380859375,-7.290904998779297,-6.481265544891357,-1.003138780593872
1663862558533872600,4.22887255859375,-7.402818202972412,-6.329319477081299,-1.1438415050506592
1663862558543760400,4.238760498046875,-7.490466117858887,-6.20512056350708,-1.2489118576049805
1663862558553647900,4.24864794921875,-7.556670188903809,-6.108608722686768,-1.323638916015625
1663862558563535600,4.25853564453125,-7.599712371826172,-6.041091442108154,-1.3856257200241089
1663862558573393000,4.268392822265625,-7.616386890411377,-6.005232334136963,-1.4485187530517578
1663862558583280600,4.27828076171875,-7.609961986541748,-5.9996747970581055,-1.5042498111724854
1663862558593168100,4.288168212890625,-7.5880255699157715,-6.019204616546631,-1.5366915464401245
1663862558603055900,4.298055908203125,-7.555685997009277,-6.058717727661133,-1.540759563446045
1663862558612943600,4.307943603515625,-7.5131378173828125,-6.115981578826904,-1.522469401359558
1663862558622831400,4.317831298828125,-7.458298206329346,-6.190732002258301,-1.4896386861801147
1663862558632688600,4.327688720703125,-7.388457298278809,-6.283658504486084,-1.448000192642212
1663862558642576100,4.337576171875,-7.300502777099609,-6.396191596984863,-1.4006367921829224
1663862558652463900,4.3474638671875,-7.193151950836182,-6.52711820602417,-1.3511707782745361
1663862558662351600,4.3573515625,-7.066913604736328,-6.673433780670166,-1.3016908168792725
1663862558672209000,4.367208984375,-6.923610210418701,-6.831105709075928,-1.253000259399414
1663862558682096400,4.377096435546875,-6.765364170074463,-6.996588706970215,-1.2033246755599976
1663862558691984100,4.386984130859375,-6.595438003540039,-7.165748596191406,-1.150060772895813
1663862558701871900,4.396871826171875,-6.413346767425537,-7.337701797485352,-1.0943005084991455
1663862558711729200,4.406729248046875,-6.219024181365967,-7.510951042175293,-1.0391039848327637
1663862558731504400,4.42650439453125,-5.795337200164795,-7.857961654663086,-0.914814829826355
1663862558741392100,4.43639208984375,-5.57604455947876,-8.021997451782227,-0.851862907409668
1663862558751310300,4.446310302734375,-5.355257034301758,-8.177446365356445,-0.7880262732505798
1663862558761167600,4.456167724609375,-5.133747577667236,-8.323744773864746,-0.7282087802886963
1663862558771024600,4.466024658203125,-4.908697605133057,-8.462759017944336,-0.6758562922477722
1663862558780912400,4.475912353515625,-4.6834917068481445,-8.592846870422363,-0.6310961246490479
1663862558790830600,4.48583056640625,-4.46852445602417,-8.709389686584473,-0.5909336805343628
1663862558800718300,4.49571826171875,-4.276479244232178,-8.808238983154297,-0.5450056791305542
1663862558810606000,4.505606201171875,-4.113532066345215,-8.889029502868652,-0.4841550290584564
1663862558820493600,4.51549365234375,-3.981271743774414,-8.952791213989258,-0.4091589152812958
1663862558830381300,4.52538134765625,-3.8754756450653076,-9.002474784851074,-0.3264029026031494
1663862558840269000,4.53526904296875,-3.785831928253174,-9.04305362701416,-0.24708478152751923
1663862558850126300,4.545126220703125,-3.7027652263641357,-9.078994750976562,-0.1782076507806778
1663862558859983400,4.5549833984375,-3.619158983230591,-9.113577842712402,-0.12155833840370178
1663862558869840600,4.564840576171875,-3.5328426361083984,-9.147880554199219,-0.0755126029253006
1663862558879758800,4.5747587890625,-3.444061756134033,-9.18190860748291,-0.03714252635836601
1663862558889646600,4.584646484375,-3.355552911758423,-9.214695930480957,-0.0054130651988089085
1663862558899534300,4.594534423828125,-3.268714189529419,-9.245837211608887,0.019842423498630524
1663862558909421800,4.604421875,-3.184659004211426,-9.275068283081055,0.03799976035952568
1663862558919309600,4.6143095703125,-3.1022305488586426,-9.302898406982422,0.05137163773179054
1663862558929197300,4.624197265625,-3.0191256999969482,-9.330138206481934,0.061430033296346664
1663862558939085000,4.6340849609375,-2.9381158351898193,-9.35594654083252,0.06417776644229889
1663862558948972800,4.643972900390625,-2.865041494369507,-9.378633499145508,0.05619040131568909
1663862558958860300,4.6538603515625,-2.8078560829162598,-9.396023750305176,0.03271659463644028
1663862558968717600,4.663717529296875,-2.7838833332061768,-9.403204917907715,-0.011152052320539951
1663862558978605300,4.673605224609375,-2.8163366317749023,-9.393328666687012,-0.06336434930562973
1663862558988493000,4.6834931640625,-2.9018971920013428,-9.366974830627441,-0.09568750113248825
1663862558998380500,4.693380615234375,-3.005840301513672,-9.334240913391113,-0.08531332015991211
1663862559008268300,4.703268310546875,-3.103442907333374,-9.302583694458008,-0.031021950766444206
1663862559018125600,4.71312548828125,-3.194110870361328,-9.271746635437012,0.05257488787174225
1663862559028013300,4.723013427734375,-3.289821147918701,-9.237521171569824,0.12518757581710815
1663862559037900800,4.73290087890625,-3.4138519763946533,-9.192233085632324,0.13732345402240753
1663862559047788500,4.74278857421875,-3.5808186531066895,-9.129205703735352,0.07561324536800385
1663862559057676300,4.75267626953125,-3.750505208969116,-9.061128616333008,-0.007428842596709728
1663862559067533600,4.762533447265625,-3.8672494888305664,-9.011800765991211,-0.04708517715334892
1663862559077421000,4.772421142578125,-3.937742233276367,-8.981219291687012,-0.04768235608935356
1663862559087278300,4.7822783203125,-3.990264415740967,-8.957968711853027,-0.05450916662812233
1663862559097166000,4.792166015625,-4.015768527984619,-8.946453094482422,-0.07046477496623993
1663862559107023400,4.8020234375,-3.9981040954589844,-8.95439338684082,-0.0662924274802208
1663862559116941600,4.811941650390625,-3.949923276901245,-8.975955963134766,-0.026649625971913338
1663862559126829000,4.8218291015625,-3.88861346244812,-9.002635955810547,0.040072597563266754
1663862559136686300,4.831686279296875,-3.8251748085021973,-9.02922534942627,0.10727051645517349
1663862559146574000,4.841573974609375,-3.766578435897827,-9.053018569946289,0.16162541508674622
1663862559156461800,4.8514619140625,-3.7135872840881348,-9.073877334594727,0.21069160103797913
1663862559166349300,4.861349365234375,-3.6579346656799316,-9.095146179199219,0.26115888357162476
1663862559176206600,4.87120654296875,-3.5904083251953125,-9.120383262634277,0.3129861056804657
1663862559186094300,4.88109423828125,-3.514469623565674,-9.148398399353027,0.35454022884368896
1663862559195982000,4.890982177734375,-3.4458653926849365,-9.17387580871582,0.3693166673183441
1663862559205869600,4.90086962890625,-3.391939163208008,-9.194478034973145,0.3559655547142029
1663862559215757300,4.91075732421875,-3.3446457386016846,-9.212907791137695,0.32566162943840027
1663862559225645000,4.92064501953125,-3.293823719024658,-9.232362747192383,0.2908354699611664
1663862559235532800,4.93053271484375,-3.2365012168884277,-9.253532409667969,0.25997406244277954
1663862559245420500,4.940420654296875,-3.1769416332244873,-9.27486801147461,0.23292070627212524
1663862559255277600,4.950277587890625,-3.1198666095733643,-9.294929504394531,0.20274393260478973
1663862559265134800,4.960134765625,-3.0679309368133545,-9.312946319580078,0.16496719419956207
1663862559275053000,4.970052978515625,-3.022986888885498,-9.328306198120117,0.12098664790391922
1663862559284940800,4.97994091796875,-2.9871554374694824,-9.340324401855469,0.07516610622406006
1663862559294797800,4.9897978515625,-2.9630508422851562,-9.348245620727539,0.03189251571893692
1663862559304685600,4.999685546875,-2.9556312561035156,-9.350646018981934,-0.007526169531047344
1663862559314573300,5.0095732421875,-2.9667530059814453,-9.347025871276855,-0.04322460666298866
1663862559324461000,5.0194609375,-2.990560531616211,-9.339224815368652,-0.07630223780870438
1663862559334348800,5.029348876953125,-3.022495985031128,-9.328615188598633,-0.10874234139919281
1663862559344236300,5.039236328125,-3.05960750579834,-9.31607723236084,-0.14104709029197693
1663862559354124000,5.0491240234375,-3.100097417831421,-9.302200317382812,-0.16989420354366302
1663862559364011800,5.05901171875,-3.143984317779541,-9.286970138549805,-0.19477207958698273
1663862559373899500,5.0688994140625,-3.1912317276000977,-9.270331382751465,-0.21770329773426056
1663862559383787300,5.078787353515625,-3.239135265350342,-9.253253936767578,-0.23599304258823395
1663862559393674800,5.0886748046875,-3.2807040214538574,-9.238386154174805,-0.24408915638923645
1663862559413389300,5.108389404296875,-3.337308645248413,-9.218591690063477,-0.2243618667125702
1663862559423276800,5.11827685546875,-3.368638038635254,-9.207489013671875,-0.21165485680103302
1663862559433134000,5.128134033203125,-3.4056150913238525,-9.194158554077148,-0.19905897974967957
1663862559443021800,5.138021728515625,-3.4503653049468994,-9.177760124206543,-0.1846349984407425
1663862559452909600,5.14790966796875,-3.5017507076263428,-9.158584594726562,-0.16867172718048096
1663862559462797000,5.157797119140625,-3.5603983402252197,-9.136248588562012,-0.151412695646286
1663862559472684800,5.167684814453125,-3.625605821609497,-9.110854148864746,-0.1330580860376358
1663862559482572500,5.177572509765625,-3.693760395050049,-9.083701133728027,-0.11356490105390549
1663862559492460300,5.187460205078125,-3.764511823654175,-9.054872512817383,-0.09006823599338531
1663862559502317300,5.1973173828125,-3.8416922092437744,-9.022607803344727,-0.06577694416046143
1663862559512205000,5.207205078125,-3.927945613861084,-8.985509872436523,-0.04719123989343643
1663862559522092800,5.2170927734375,-4.0179643630981445,-8.945664405822754,-0.03797436133027077
1663862559531980500,5.22698046875,-4.105471134185791,-8.905831336975098,-0.040780164301395416
1663862559541868300,5.236868408203125,-4.189848899841309,-8.866362571716309,-0.05641702935099602
1663862559551725300,5.246725341796875,-4.2784576416015625,-8.823715209960938,-0.08498227596282959
1663862559561613000,5.256613037109375,-4.383269786834717,-8.77160930633545,-0.12724259495735168
1663862559571500800,5.266500732421875,-4.516133785247803,-8.702973365783691,-0.18219037353992462
1663862559581388500,5.276388427734375,-4.693938255310059,-8.606768608093262,-0.24669525027275085
1663862559591245600,5.28624560546875,-4.926372528076172,-8.473490715026855,-0.31808680295944214
1663862559601133300,5.29613330078125,-5.206384658813477,-8.300589561462402,-0.4051700532436371
1663862559611021000,5.30602099609375,-5.510701656341553,-8.095133781433105,-0.5209200978279114
1663862559620878300,5.31587841796875,-5.821951389312744,-7.863232612609863,-0.6669708490371704
1663862559630765800,5.325765869140625,-6.1345438957214355,-7.606232166290283,-0.8264344930648804
1663862559640653600,5.335653564453125,-6.440880298614502,-7.329948425292969,-0.9784195423126221
1663862559650541300,5.345541259765625,-6.725682735443115,-7.048694133758545,-1.1187025308609009
1663862559660429000,5.355428955078125,-6.972883224487305,-6.7813005447387695,-1.250300645828247
1663862559670316800,5.36531689453125,-7.16027307510376,-6.557984352111816,-1.3761276006698608
1663862559680204300,5.375204345703125,-7.313866138458252,-6.364787578582764,-1.472152590751648
1663862559690061600,5.3850615234375,-7.448539733886719,-6.191347599029541,-1.535205602645874
1663862559699979800,5.394979736328125,-7.570772647857666,-6.030140399932861,-1.57834792137146
1663862559709837000,5.404837158203125,-7.664005279541016,-5.900928974151611,-1.6163053512573242
1663862559719755300,5.41475537109375,-7.723024845123291,-5.8129730224609375,-1.6536670923233032
1663862559729612300,5.4246123046875,-7.756129741668701,-5.75930643081665,-1.6861870288848877
1663862559739500000,5.4345,-7.768352508544922,-5.734393119812012,-1.7145931720733643
1663862559749387800,5.4443876953125,-7.760941982269287,-5.738827705383301,-1.7332141399383545
1663862559759244800,5.454244873046875,-7.736461162567139,-5.7720136642456055,-1.7324552536010742
1663862559769163000,5.4641630859375,-7.698597431182861,-5.829911231994629,-1.707084059715271
1663862559779050800,5.47405078125,-7.651838779449463,-5.90397310256958,-1.6621800661087036
1663862559788938500,5.4839384765625,-7.598439693450928,-5.9879069328308105,-1.6059490442276
1663862559798826200,5.493826171875,-7.537161827087402,-6.080987453460693,-1.5437524318695068
1663862559808714000,5.5037138671875,-7.465768814086914,-6.185097694396973,-1.4755518436431885
1663862559818601700,5.513601806640625,-7.383588790893555,-6.301212787628174,-1.3956120014190674
1663862559828458800,5.523458740234375,-7.29134464263916,-6.427665710449219,-1.3006856441497803
1663862559838316000,5.53331591796875,-7.18730354309082,-6.564125061035156,-1.1938680410385132
1663862559848173000,5.543173095703125,-7.067741870880127,-6.7113447189331055,-1.08409583568573
1663862559858060800,5.553060791015625,-6.929993152618408,-6.8690009117126465,-0.9810241460800171
1663862559867979000,5.56297900390625,-6.776466369628906,-7.032456398010254,-0.8913227915763855
1663862559877866800,5.57286669921875,-6.612548828125,-7.195683479309082,-0.8165295124053955
1663862559887724000,5.58272412109375,-6.440454006195068,-7.3564581871032715,-0.7572715282440186
1663862559897581000,5.5925810546875,-6.260184288024902,-7.514395713806152,-0.7171685099601746
1663862559907499300,5.602499267578125,-6.0710601806640625,-7.670003414154053,-0.695453405380249
1663862559917356500,5.6123564453125,-5.875990867614746,-7.821274757385254,-0.6861311793327332
1663862559927274800,5.622274658203125,-5.675381660461426,-7.968505859375,-0.6807045936584473
1663862559937162500,5.63216259765625,-5.474968433380127,-8.10827922821045,-0.6715099811553955
1663862559947050000,5.642050048828125,-5.277353763580322,-8.239612579345703,-0.6547617316246033
1663862559956907300,5.6519072265625,-5.0851826667785645,-8.361490249633789,-0.6299095749855042
1663862559966795000,5.661794921875,-4.899369239807129,-8.47435188293457,-0.5932360887527466
1663862559976682800,5.671682861328125,-4.721724033355713,-8.578069686889648,-0.5407631993293762
1663862559986539800,5.681539794921875,-4.55430793762207,-8.67219066619873,-0.47092458605766296
1663862559996397000,5.69139697265625,-4.398274898529053,-8.756568908691406,-0.3847976624965668
1663862560006315300,5.701315185546875,-4.252735137939453,-8.831864356994629,-0.2877427339553833
1663862560016172300,5.71117236328125,-4.115957260131836,-8.898975372314453,-0.1936662644147873
1663862560026090500,5.721090576171875,-3.9809117317199707,-8.961557388305664,-0.1150076687335968
1663862560035947800,5.73094775390625,-3.845189094543457,-9.021159172058105,-0.060020484030246735
1663862560045835500,5.74083544921875,-3.7056329250335693,-9.079533576965332,-0.027084268629550934
1663862560055723300,5.75072314453125,-3.561701536178589,-9.13698673248291,-0.012298009358346462
1663862560065610800,5.76061083984375,-3.4137954711914062,-9.193273544311523,-0.010122621431946754
1663862560075468000,5.770468017578125,-3.265678644180298,-9.246923446655273,-0.012169523164629936
1663862560085386200,5.78038623046875,-3.1244864463806152,-9.295580863952637,-0.012047682888805866
1663862560095243500,5.790243408203125,-3.0009350776672363,-9.336199760437012,-0.0122948894277215
1663862560105131300,5.80013134765625,-2.895883321762085,-9.369305610656738,-0.018801992759108543
1663862560115018800,5.810018798828125,-2.804598331451416,-9.396991729736328,-0.034122832119464874
1663862560124906500,5.819906494140625,-2.7174623012542725,-9.422466278076172,-0.05400332063436508
1663862560134794200,5.829794189453125,-2.627446174621582,-9.447876930236816,-0.06751296669244766
1663862560144682000,5.839681884765625,-2.540419101715088,-9.47162914276123,-0.07000496983528137
1663862560154569700,5.84956982421875,-2.4791789054870605,-9.487854957580566,-0.06826020777225494
1663862560164457200,5.859457275390625,-2.4716947078704834,-9.489747047424316,-0.07632648944854736
1663862560174345000,5.869344970703125,-2.526439666748047,-9.475107192993164,-0.09917327016592026
1663862560184232700,5.879232666015625,-2.614826202392578,-9.450864791870117,-0.11931940913200378
1663862560194090000,5.889090087890625,-2.7014517784118652,-9.426608085632324,-0.10772038996219635
1663862560203977500,5.8989775390625,-2.7851269245147705,-9.402741432189941,-0.04365720972418785
1663862560213865200,5.908865234375,-2.892000913619995,-9.370423316955566,0.043448079377412796
1663862560223753000,5.9187529296875,-3.035365343093872,-9.324666976928711,0.08680383116006851
1663862560233640700,5.928640625,-3.204005241394043,-9.268304824829102,0.05711894482374191
1663862560243528400,5.938528564453125,-3.359457015991211,-9.213266372680664,-0.012791167013347149
1663862560253385500,5.948385498046875,-3.4640109539031982,-9.174208641052246,-0.07013274729251862
1663862560263273200,5.958273193359375,-3.521571159362793,-9.151997566223145,-0.09925630688667297
1663862560273161000,5.968160888671875,-3.5557305812835693,-9.138490676879883,-0.12309500575065613
1663862560283048700,5.978048583984375,-3.56649112701416,-9.133882522583008,-0.15071460604667664
1663862560292905700,5.98790576171875,-3.543757200241089,-9.142577171325684,-0.1595054268836975
1663862560302793500,5.99779345703125,-3.4943931102752686,-9.162081718444824,-0.12592069804668427
1663862560312681200,6.00768115234375,-3.4318196773529053,-9.186386108398438,-0.057630185037851334
1663862560322569000,6.01756884765625,-3.36541485786438,-9.211091041564941,0.013091194443404675
1663862560332456700,6.027456787109375,-3.308683156967163,-9.231338500976562,0.07335272431373596
1663862560342344200,6.03734423828125,-3.2647221088409424,-9.246343612670898,0.13078361749649048
1663862560352232000,6.04723193359375,-3.2265377044677734,-9.258831977844238,0.18399396538734436
1663862560362119700,6.05711962890625,-3.191857099533081,-9.270027160644531,0.2214573472738266
1663862560371977000,6.06697705078125,-3.1597108840942383,-9.280571937561035,0.2400379329919815
1663862560381864400,6.076864501953125,-3.126875162124634,-9.291500091552734,0.2470960170030594
1663862560391752200,6.086752197265625,-3.0913045406341553,-9.303345680236816,0.24897374212741852
1663862560401640000,6.096639892578125,-3.0535242557525635,-9.315845489501953,0.24780036509037018
1663862560411497200,6.106497314453125,-3.0176620483398438,-9.32766056060791,0.24262011051177979
1663862560421384700,6.116384765625,-2.9903228282928467,-9.336716651916504,0.23252351582050323
1663862560431272400,6.1262724609375,-2.974456548690796,-9.3421049118042,0.21921533346176147
1663862560441160200,6.13616015625,-2.966201066970825,-9.345047950744629,0.20522727072238922
1663862560451048000,6.1460478515625,-2.9684693813323975,-9.344620704650879,0.19140583276748657
1663862560460935700,6.155935791015625,-2.991516590118408,-9.337602615356445,0.1743004471063614
1663862560470792700,6.165792724609375,-3.033998489379883,-9.324295043945312,0.150920569896698
1663862560480650000,6.17564990234375,-3.0870368480682373,-9.307273864746094,0.12350861728191376
1663862560490507000,6.185507080078125,-3.142359972000122,-9.289036750793457,0.09871913492679596
1663862560500425200,6.19542529296875,-3.1968464851379395,-9.27060317993164,0.08038622885942459
1663862560510282500,6.205282470703125,-3.2504801750183105,-9.252039909362793,0.06719546765089035
1663862560520200700,6.21520068359375,-3.3057665824890137,-9.232502937316895,0.05646907165646553
1663862560530058000,6.22505810546875,-3.365712881088257,-9.210881233215332,0.04504535347223282
1663862560539945500,6.234945556640625,-3.4351258277893066,-9.185297966003418,0.024608714506030083
1663862560549833200,6.244833251953125,-3.5080270767211914,-9.157734870910645,-0.005199626088142395
1663862560559721000,6.254720947265625,-3.5739638805389404,-9.132131576538086,-0.03645709529519081
1663862560569578200,6.264578125,-3.630417823791504,-9.109689712524414,-0.06313495337963104
1663862560579466000,6.274466064453125,-3.684440851211548,-9.087785720825195,-0.08624759316444397
1663862560589323000,6.284322998046875,-3.743030309677124,-9.063566207885742,-0.10901322215795517
1663862560599241200,6.2942412109375,-3.8105804920196533,-9.035067558288574,-0.13195231556892395
1663862560609129000,6.30412890625,-3.8901491165161133,-9.00070858001709,-0.15614035725593567
1663862560619016700,6.3140166015625,-3.9792563915252686,-8.96108627319336,-0.18668325245380402
1663862560628904400,6.323904541015625,-4.062860012054443,-8.922584533691406,-0.22590972483158112
1663862560638792000,6.3337919921875,-4.136434555053711,-8.88746452331543,-0.2706712782382965
1663862560648679700,6.3436796875,-4.214184761047363,-8.849372863769531,-0.3156529664993286
1663862560658567400,6.3535673828125,-4.315747261047363,-8.798797607421875,-0.35477516055107117
1663862560668455200,6.363455078125,-4.461741924285889,-8.724377632141113,-0.385328084230423
1663862560678343000,6.373343017578125,-4.66414737701416,-8.61653995513916,-0.4139314889907837
1663862560688200000,6.383199951171875,-4.918398380279541,-8.472001075744629,-0.45268890261650085
1663862560698087700,6.393087646484375,-5.204777717590332,-8.295331954956055,-0.5178378820419312
1663862560707975400,6.402975341796875,-5.499797344207764,-8.095549583435059,-0.6202350854873657
1663862560717863200,6.41286328125,-5.791930198669434,-7.877773761749268,-0.7514101266860962
1663862560727750700,6.422750732421875,-6.074531078338623,-7.646374702453613,-0.8963363766670227
1663862560737608000,6.43260791015625,-6.33721923828125,-7.410355567932129,-1.0472220182418823
1663862560747495700,6.44249560546875,-6.574100017547607,-7.177318572998047,-1.1990398168563843
1663862560757383400,6.452383544921875,-6.779946327209473,-6.956386089324951,-1.3458871841430664
1663862560767271000,6.46227099609375,-6.952756881713867,-6.754181385040283,-1.4868087768554688
1663862560777158700,6.47215869140625,-7.094290256500244,-6.575584888458252,-1.6134194135665894
1663862560787046400,6.48204638671875,-7.213799476623535,-6.418164253234863,-1.714248538017273
1663862560796903700,6.491903564453125,-7.317604064941406,-6.2781171798706055,-1.7911733388900757
1663862560806760700,6.5017607421875,-7.401693820953369,-6.158985137939453,-1.858018398284912
1663862560816648400,6.5116484375,-7.458640098571777,-6.071425437927246,-1.9175175428390503
1663862560826536200,6.5215361328125,-7.490149021148682,-6.024035453796387,-1.9439762830734253
1663862560836424000,6.531423828125,-7.500953197479248,-6.014880180358887,-1.9306224584579468
1663862560846311700,6.541311767578125,-7.491976261138916,-6.035793781280518,-1.899967074394226
1663862560856168700,6.551168701171875,-7.464186668395996,-6.081745624542236,-1.8624378442764282
1663862560866056400,6.561056396484375,-7.420248508453369,-6.150196552276611,-1.8125637769699097
1663862560875944200,6.570944091796875,-7.3617353439331055,-6.237542629241943,-1.751656174659729
1663862560885832000,6.58083203125,-7.289196014404297,-6.34025239944458,-1.6849923133850098
1663862560895689000,6.59068896484375,-7.202846527099609,-6.455974578857422,-1.615484595298767
1663862560905576700,6.60057666015625,-7.101759433746338,-6.5846734046936035,-1.541909098625183
1663862560915464400,6.61046435546875,-6.985670566558838,-6.725700855255127,-1.46141517162323
1663862560925321500,6.620321533203125,-6.854437828063965,-6.877997398376465,-1.3712158203125
1663862560935209200,6.630209228515625,-6.70770263671875,-7.041098594665527,-1.2649245262145996
1663862560945127400,6.64012744140625,-6.544780254364014,-7.213744640350342,-1.1393564939498901
1663862560954984700,6.649984619140625,-6.3639421463012695,-7.39298152923584,-1.007196068763733
1663862560964841700,6.659841796875,-6.162302017211914,-7.5768351554870605,-0.8876885175704956
1663862560974760000,6.669760009765625,-5.939658164978027,-7.762717247009277,-0.7943975925445557
1663862560984647700,6.679647705078125,-5.704004764556885,-7.943508625030518,-0.7317055463790894
1663862560994535400,6.689535400390625,-5.461998462677002,-8.114665985107422,-0.6994026303291321
1663862561004423200,6.699423095703125,-5.218351364135742,-8.273594856262207,-0.6977211833000183
1663862561014280200,6.7092802734375,-4.9776716232299805,-8.418644905090332,-0.7208238244056702
1663862561024168000,6.71916796875,-4.744931221008301,-8.549029350280762,-0.7550476789474487
1663862561034055700,6.7290556640625,-4.529257774353027,-8.662859916687012,-0.7817062735557556
1663862561043943400,6.738943359375,-4.337973117828369,-8.760444641113281,-0.7790940999984741
1663862561053831200,6.7488310546875,-4.174544334411621,-8.843705177307129,-0.7296799421310425
1663862561063719000,6.758718994140625,-4.040188789367676,-8.912369728088379,-0.6456947922706604
1663862561073606400,6.7686064453125,-3.925553560256958,-8.969128608703613,-0.5613769888877869
1663862561083494100,6.778494140625,-3.816251516342163,-9.019969940185547,-0.49676305055618286
1663862561093382000,6.7883818359375,-3.700054407119751,-9.070579528808594,-0.45229703187942505
1663862561103269600,6.79826953125,-3.571986675262451,-9.123150825500488,-0.42356351017951965
1663862561113126700,6.808126708984375,-3.4354608058929443,-9.176447868347168,-0.40099865198135376
1663862561123014400,6.818014404296875,-3.2974512577056885,-9.22809886932373,-0.37336301803588867
1663862561132902100,6.827902099609375,-3.166379690170288,-9.275397300720215,-0.33382633328437805
1663862561142790000,6.837789794921875,-3.047917366027832,-9.316564559936523,-0.286710262298584
1663862561152677600,6.847677734375,-2.9426958560943604,-9.351531982421875,-0.24450793862342834
1663862561162565000,6.857565185546875,-2.8469784259796143,-9.38187026977539,-0.21354199945926666
1663862561172422400,6.86742236328125,-2.7564587593078613,-9.40934944152832,-0.19092905521392822
1663862561182310100,6.87731005859375,-2.666764497756958,-9.435515403747559,-0.1726447343826294
1663862561192198000,6.887197998046875,-2.5750882625579834,-9.461204528808594,-0.15780332684516907
1663862561202085400,6.89708544921875,-2.4804036617279053,-9.486650466918945,-0.14647801220417023
1663862561221800000,6.916800048828125,-2.374907970428467,-9.513812065124512,-0.13254646956920624
1663862561231687400,6.9266875,-2.388296365737915,-9.510270118713379,-0.14553087949752808
1663862561241575200,6.9365751953125,-2.4951813220977783,-9.481995582580566,-0.1902894228696823
1663862561251463000,6.946462890625,-2.68034029006958,-9.429309844970703,-0.27257490158081055
1663862561261320200,6.9563203125,-2.865288734436035,-9.371737480163574,-0.36201390624046326
1663862561271207700,6.966207763671875,-3.007789373397827,-9.324711799621582,-0.4163564443588257
1663862561281095400,6.976095458984375,-3.141537666320801,-9.27867317199707,-0.45536527037620544
1663862561290983200,6.985983154296875,-3.2860593795776367,-9.225953102111816,-0.5039590001106262
1663862561300871000,6.995870849609375,-3.4173641204833984,-9.175406455993652,-0.5512972474098206
1663862561310728200,7.005728271484375,-3.515380382537842,-9.135475158691406,-0.5963209271430969
1663862561320615700,7.01561572265625,-3.577903985977173,-9.10823917388916,-0.6394979953765869
1663862561330503400,7.02550341796875,-3.592346429824829,-9.100907325744629,-0.6624937653541565
1663862561340360700,7.035360595703125,-3.552445650100708,-9.118199348449707,-0.6394966244697571
1663862561350248400,7.04524853515625,-3.4652576446533203,-9.156835556030273,-0.5610052943229675
1663862561360136000,7.055135986328125,-3.353806734085083,-9.204333305358887,-0.45011740922927856
1663862561370023700,7.065023681640625,-3.254767894744873,-9.244501113891602,-0.3406845033168793
1663862561379911400,7.074911376953125,-3.1836163997650146,-9.272300720214844,-0.2437657117843628
1663862561389799200,7.084799072265625,-3.1337227821350098,-9.29110336303711,-0.1598847508430481
1663862561399687000,7.09468701171875,-3.097907543182373,-9.303914070129395,-0.1026245579123497
1663862561409544000,7.1045439453125,-3.0700786113739014,-9.313353538513184,-0.08034086972475052
1663862561419431700,7.114431640625,-3.0424325466156006,-9.322405815124512,-0.08213634788990021
1663862561429319400,7.1243193359375,-3.0074398517608643,-9.333634376525879,-0.094716876745224
1663862561439207200,7.134207275390625,-2.968473196029663,-9.345924377441406,-0.11069290339946747
1663862561449064200,7.144064208984375,-2.931293249130249,-9.357464790344238,-0.12554815411567688
1663862561458952000,7.153951904296875,-2.8997788429260254,-9.367056846618652,-0.1411166489124298
1663862561478727400,7.1737275390625,-2.8785135746002197,-9.373029708862305,-0.1756838709115982
1663862561488615000,7.183614990234375,-2.880072832107544,-9.372166633605957,-0.1950840801000595
1663862561498472200,7.19347216796875,-2.8974924087524414,-9.366375923156738,-0.2142730951309204
1663862561508390400,7.203390380859375,-2.9337234497070312,-9.354606628417969,-0.23450727760791779
1663862561518278100,7.213278076171875,-2.983339548110962,-9.338457107543945,-0.25158408284187317
1663862561528166000,7.223165771484375,-3.038630962371826,-9.320426940917969,-0.2583308219909668
1663862561538053600,7.2330537109375,-3.093813896179199,-9.302457809448242,-0.2509746849536896
1663862561547941000,7.242941162109375,-3.1476683616638184,-9.284754753112793,-0.2364477515220642
1663862561557828900,7.252828857421875,-3.2040019035339355,-9.265764236450195,-0.22446438670158386
1663862561567716600,7.262716552734375,-3.2685773372650146,-9.243277549743652,-0.2204790860414505
1663862561577604400,7.272604248046875,-3.3400542736053467,-9.21751594543457,-0.22764289379119873
1663862561587492000,7.2824921875,-3.412238121032715,-9.190526962280273,-0.24744431674480438
1663862561597349000,7.29234912109375,-3.4804351329803467,-9.164115905761719,-0.27558770775794983
1663862561607236900,7.30223681640625,-3.542696714401245,-9.139154434204102,-0.3091135323047638
1663862561617124600,7.31212451171875,-3.6001083850860596,-9.115179061889648,-0.3508736491203308
1663862561626981600,7.321981689453125,-3.6559054851531982,-9.090910911560059,-0.4000861942768097
1663862561636839000,7.3318388671875,-3.7180769443511963,-9.063226699829102,-0.45190560817718506
1663862561646726700,7.3417265625,-3.7964954376220703,-9.027945518493652,-0.5031925439834595
1663862561656614400,7.351614501953125,-3.8940136432647705,-8.983268737792969,-0.5549076795578003
1663862561666502000,7.361501953125,-4.002893447875977,-8.931952476501465,-0.6061729192733765
1663862561676389600,7.3713896484375,-4.113887786865234,-8.878114700317383,-0.6522279381752014
1663862561686277400,7.38127734375,-4.232944965362549,-8.818574905395508,-0.6966357827186584
1663862561696165000,7.3911650390625,-4.382230758666992,-8.741403579711914,-0.7445248961448669
1663862561706052900,7.401052978515625,-4.578519821166992,-8.635623931884766,-0.7959582209587097
1663862561715940400,7.4109404296875,-4.816978454589844,-8.499032974243164,-0.8564730286598206
1663862561725828000,7.420828125,-5.0846076011657715,-8.333998680114746,-0.9282270073890686
1663862561735715800,7.4307158203125,-5.368284702301025,-8.144048690795898,-1.0130959749221802
1663862561745603600,7.440603515625,-5.6458587646484375,-7.940996170043945,-1.1114152669906616
1663862561755460600,7.450460693359375,-5.8983473777771,-7.739665985107422,-1.2155051231384277
1663862561765348400,7.460348388671875,-6.1246795654296875,-7.544782638549805,-1.3171706199645996
1663862561775205600,7.47020556640625,-6.327777862548828,-7.355824947357178,-1.4217764139175415
1663862561785063000,7.48006298828125,-6.510356426239014,-7.168875694274902,-1.546889066696167
1663862561794950400,7.489950439453125,-6.675386905670166,-6.98270845413208,-1.6886028051376343
1663862561804868600,7.49986865234375,-6.8187031745910645,-6.807955265045166,-1.824120044708252
1663862561814726000,7.509725830078125,-6.9295854568481445,-6.663493633270264,-1.936257004737854
1663862561824613600,7.519613525390625,-7.012854099273682,-6.550513744354248,-2.020155191421509
1663862561834501400,7.52950146484375,-7.075993061065674,-6.464662075042725,-2.0757787227630615
1663862561844358400,7.5393583984375,-7.120352745056152,-6.4061994552612305,-2.1051275730133057
1663862561854246100,7.54924609375,-7.142845153808594,-6.379647254943848,-2.1095597743988037
1663862561864164400,7.559164306640625,-7.140538692474365,-6.388020992279053,-2.0919532775878906
1663862561874052000,7.569052001953125,-7.115850448608398,-6.4263596534729,-2.058389663696289
1663862561883909000,7.5789091796875,-7.073418617248535,-6.488550662994385,-2.0089428424835205
1663862561893766400,7.588766357421875,-7.016984462738037,-6.569746494293213,-1.94184410572052
1663862561903684600,7.5986845703125,-6.947474002838135,-6.666757583618164,-1.859391689300537
1663862561913542000,7.6085419921875,-6.865900993347168,-6.775955677032471,-1.7652772665023804
1663862561923429400,7.618429443359375,-6.771221160888672,-6.896937370300293,-1.6592813730239868
1663862561933317000,7.628317138671875,-6.662707328796387,-7.028625011444092,-1.5418044328689575
1663862561943174400,7.63817431640625,-6.540331840515137,-7.168400287628174,-1.4172075986862183
1663862561953062100,7.648062255859375,-6.405107498168945,-7.312848091125488,-1.2912176847457886
1663862561962949600,7.65794970703125,-6.25796365737915,-7.458706378936768,-1.1730173826217651
1663862561972837400,7.66783740234375,-6.095113754272461,-7.6064019203186035,-1.0782506465911865
1663862561982694700,7.677694580078125,-5.914672374725342,-7.755714416503906,-1.0178147554397583
1663862561992612900,7.68761279296875,-5.714227676391602,-7.908034324645996,-0.9904489517211914
1663862562002500600,7.69750048828125,-5.497398853302002,-8.060087203979492,-0.9919636845588684
1663862562012397800,7.707397705078125,-5.269937038421631,-8.207508087158203,-1.0173250436782837
1663862562022285600,7.71728564453125,-5.041449546813965,-8.345090866088867,-1.0552895069122314
1663862562032173300,7.72717333984375,-4.825599193572998,-8.467952728271484,-1.0852476358413696
1663862562042061000,7.73706103515625,-4.63534688949585,-8.573932647705078,-1.082414984703064
1663862562051948800,7.74694873046875,-4.475035667419434,-8.66525936126709,-1.028459906578064
1663862562061836500,7.75683642578125,-4.335677623748779,-8.74776840209961,-0.9213290214538574
1663862562071693600,7.766693603515625,-4.201685905456543,-8.82676887512207,-0.7774218916893005
1663862562081581300,7.776581298828125,-4.058208465576172,-8.906068801879883,-0.6190942525863647
1663862562091469000,7.786468994140625,-3.897092580795288,-8.987085342407227,-0.46406540274620056
1663862562101356800,7.796356689453125,-3.716655969619751,-9.069145202636719,-0.3278237283229828
1663862562111213800,7.8062138671875,-3.523207426071167,-9.1491117477417,-0.2261565625667572
1663862562121071000,7.816071044921875,-3.33000111579895,-9.222480773925781,-0.16535088419914246
1663862562130958800,7.825958740234375,-3.150404691696167,-9.285746574401855,-0.14232492446899414
1663862562140846300,7.835846435546875,-2.992694854736328,-9.337661743164062,-0.14911319315433502
1663862562150703600,7.84570361328125,-2.8564839363098145,-9.37974739074707,-0.1767742931842804
1663862562160621800,7.855621826171875,-2.7348709106445312,-9.415138244628906,-0.2145949900150299
1663862562170479000,7.86547900390625,-2.6240804195404053,-9.445743560791016,-0.2500770092010498
1663862562180397300,7.875397216796875,-2.521322727203369,-9.473042488098145,-0.27347126603126526
1663862562190254300,7.88525439453125,-2.4246127605438232,-9.497957229614258,-0.2836429178714752
1663862562200111600,7.895111572265625,-2.325993537902832,-9.522546768188477,-0.28502538800239563
1663862562210029800,7.90502978515625,-2.220766305923462,-9.547910690307617,-0.27566543221473694
1663862562219886800,7.914886962890625,-2.113508462905884,-9.572846412658691,-0.2531064748764038
1663862562229805000,7.92480517578125,-2.020015001296997,-9.593830108642578,-0.2198687195777893
1663862562239662300,7.934662353515625,-1.9742351770401,-9.603979110717773,-0.1907123178243637
1663862562249550000,7.944550048828125,-2.009629487991333,-9.596610069274902,-0.19193676114082336
1663862562259437800,7.954437744140625,-2.1231484413146973,-9.571280479431152,-0.23069901764392853
1663862562269294800,7.964294921875,-2.2610132694244385,-9.538190841674805,-0.2848210334777832
1663862562279213000,7.974213134765625,-2.3661746978759766,-9.511405944824219,-0.3236675560474396
1663862562289100800,7.984100830078125,-2.4399821758270264,-9.492830276489258,-0.3209924101829529
1663862562298988500,7.993988525390625,-2.526693344116211,-9.470991134643555,-0.29418084025382996
1663862562308876300,8.003876220703125,-2.6590828895568848,-9.434977531433105,-0.2843541204929352
1663862562318764000,8.013763916015625,-2.8308098316192627,-9.384296417236328,-0.3031040132045746
1663862562328621000,8.02362109375,-2.993506908416748,-9.333283424377441,-0.31481900811195374
1663862562338508800,8.0335087890625,-3.0984714031219482,-9.299840927124023,-0.2877996265888214
1663862562348396500,8.043396484375,-3.1538541316986084,-9.282358169555664,-0.2478504627943039
1663862562358284300,8.0532841796875,-3.1932430267333984,-9.269421577453613,-0.22676077485084534
1663862562368141300,8.063141357421875,-3.2155630588531494,-9.261714935302734,-0.2262181043624878
1663862562377998600,8.07299853515625,-3.202756404876709,-9.266236305236816,-0.22274120151996613
1663862562387916800,8.082916748046875,-3.1569180488586426,-9.28260612487793,-0.1935693919658661
1663862562397804500,8.092804443359375,-3.0970826148986816,-9.303657531738281,-0.14292533695697784
1663862562407661600,8.10266162109375,-3.0410211086273193,-9.322822570800781,-0.08682215958833694
1663862562417518800,8.112518798828125,-2.997218608856201,-9.337325096130371,-0.03805973380804062
1663862562427406600,8.122406494140625,-2.963167667388916,-9.348262786865234,-0.0020985030569136143
1663862562437324800,8.13232470703125,-2.932353973388672,-9.357946395874023,0.022774972021579742
1663862562447181800,8.142181884765625,-2.904280424118042,-9.366645812988281,0.03832809627056122
1663862562457069600,8.152069580078125,-2.8801069259643555,-9.374075889587402,0.04545627534389496
1663862562466926800,8.1619267578125,-2.8584063053131104,-9.380703926086426,0.04778868332505226
1663862562476814300,8.171814453125,-2.83819580078125,-9.386825561523438,0.05041304603219032
1663862562486702000,8.1817021484375,-2.821761131286621,-9.391753196716309,0.055206622928380966
1663862562496589800,8.19158984375,-2.8146979808807373,-9.393840789794922,0.06002644822001457
1663862562506508000,8.201508056640625,-2.82368540763855,-9.391132354736328,0.06181033328175545
1663862562516395800,8.211395751953125,-2.8546924591064453,-9.381776809692383,0.05823492631316185
1663862562526283500,8.221283447265625,-2.9069504737854004,-9.365771293640137,0.04867270588874817
1663862562536171000,8.2311708984375,-2.9724202156066895,-9.345254898071289,0.03643937408924103
1663862562546058800,8.241058837890625,-3.0412685871124268,-9.32310962677002,0.026744738221168518
1663862562555946500,8.250946533203125,-3.1088271141052246,-9.300809860229492,0.02269544079899788
1663862562565803800,8.2608037109375,-3.1754233837127686,-9.278279304504395,0.02476009540259838
1663862562575691500,8.27069140625,-3.2411835193634033,-9.255487442016602,0.0324784591794014
1663862562585548500,8.280548583984375,-3.305449962615967,-9.23267650604248,0.045667700469493866
1663862562595405800,8.29040576171875,-3.3726089000701904,-9.208270072937012,0.06050245836377144
1663862562605293600,8.30029345703125,-3.4499073028564453,-9.179491996765137,0.07393577694892883
1663862562615181000,8.31018115234375,-3.53832745552063,-9.145655632019043,0.08710017055273056
1663862562625038300,8.320038330078125,-3.6352779865264893,-9.107373237609863,0.10437976568937302
1663862562634926000,8.329926025390625,-3.736280679702759,-9.06614875793457,0.12464357912540436
1663862562644813800,8.339813720703125,-3.8335208892822266,-9.02519702911377,0.1425919532775879
1663862562654701300,8.349701416015625,-3.924346923828125,-8.985871315002441,0.1549423635005951
1663862562664589000,8.359589111328125,-4.012375354766846,-8.946799278259277,0.16128359735012054
1663862562674476800,8.369476806640625,-4.104264259338379,-8.905001640319824,0.16234806180000305
1663862562684364500,8.379364501953125,-4.204300880432129,-8.858327865600586,0.15581297874450684
1663862562694252300,8.389252197265625,-4.315890789031982,-8.804777145385742,0.13914212584495544
1663862562704109300,8.399109375,-4.443746566772461,-8.741314888000488,0.11365718394517899
1663862562713997000,8.4089970703125,-4.595040321350098,-8.663098335266113,0.08200579881668091
1663862562723884800,8.418884765625,-4.781163692474365,-8.562050819396973,0.04630988463759422
1663862562733741800,8.428741943359375,-5.015890598297119,-8.4268159866333,0.0035603120923042297
1663862562743629600,8.438629638671875,-5.296154022216797,-8.253315925598145,-0.06270826607942581
1663862562753547800,8.4485478515625,-5.592871189117432,-8.05366039276123,-0.1695028841495514
1663862562763405000,8.458405029296875,-5.878839015960693,-7.843064308166504,-0.3098013699054718
1663862562773323300,8.4683232421875,-6.156755447387695,-7.618985176086426,-0.4645504653453827
1663862562783211000,8.4782109375,-6.42867374420166,-7.379443645477295,-0.6215887069702148
1663862562793098800,8.4880986328125,-6.685627460479736,-7.1313323974609375,-0.7854166626930237
1663862562802986200,8.497986328125,-6.910775661468506,-6.891410827636719,-0.9591765999794006
1663862562812843500,8.507843505859375,-7.094653606414795,-6.6733903884887695,-1.1411118507385254
1663862562822731300,8.517731201171875,-7.2443013191223145,-6.477858066558838,-1.3144744634628296
1663862562832588300,8.52758837890625,-7.365236759185791,-6.304989337921143,-1.4733556509017944
1663862562842445600,8.537445556640625,-7.458010673522949,-6.156259536743164,-1.6275529861450195
1663862562852333300,8.547333251953125,-7.527828216552734,-6.033026218414307,-1.7620410919189453
1663862562862251500,8.55725146484375,-7.58214807510376,-5.93552827835083,-1.8576656579971313
1663862562872139300,8.56713916015625,-7.623157978057861,-5.8636884689331055,-1.91703200340271
1663862562882026800,8.57702685546875,-7.6488447189331055,-5.81820821762085,-1.9529484510421753
1663862562891914500,8.58691455078125,-7.654149532318115,-5.803313732147217,-1.976341962814331
1663862562901802200,8.59680224609375,-7.6408796310424805,-5.814945697784424,-1.993427038192749
1663862562911690000,8.60668994140625,-7.612086296081543,-5.847263336181641,-2.00898814201355
1663862562921547000,8.616547119140625,-7.568742752075195,-5.898888111114502,-2.021792411804199
1663862562931434800,8.626434814453125,-7.511014938354492,-5.969334602355957,-2.030294179916382
1663862562941322500,8.636322509765625,-7.438059329986572,-6.057973384857178,-2.0363259315490723
1663862562951179800,8.6461796875,-7.351170539855957,-6.163089275360107,-2.0364198684692383
1663862562961067300,8.6560673828125,-7.24714994430542,-6.284233570098877,-2.0390217304229736
1663862562970955000,8.665955078125,-7.12448787689209,-6.421614170074463,-2.0432636737823486
1663862562980842800,8.6758427734375,-6.9860711097717285,-6.573148250579834,-2.039344549179077
1663862562990730500,8.68573046875,-6.839322090148926,-6.73292350769043,-2.015392780303955
1663862563000618200,8.6956181640625,-6.691629409790039,-6.894431114196777,-1.9645144939422607
1663862563010505700,8.705505615234374,-6.545975208282471,-7.053483009338379,-1.8891726732254028
1663862563020363000,8.715363037109375,-6.399712085723877,-7.209478855133057,-1.7993003129959106
1663862563030220300,8.72522021484375,-6.246469020843506,-7.365514755249023,-1.7032952308654785
1663862563040138500,8.735138427734375,-6.078370571136475,-7.525137424468994,-1.6112438440322876
1663862563049995500,8.74499560546875,-5.892169952392578,-7.687734127044678,-1.5334473848342896
1663862563059883300,8.75488330078125,-5.685187339782715,-7.853442192077637,-1.4739322662353516
1663862563069740500,8.764740478515625,-5.465207576751709,-8.015532493591309,-1.4328784942626953
1663862563079658800,8.77465869140625,-5.242125034332275,-8.16730785369873,-1.4091085195541382
1663862563089546500,8.78454638671875,-5.026316165924072,-8.303319931030273,-1.4005030393600464
1663862563099434000,8.79443408203125,-4.820576190948486,-8.4252347946167,-1.3956551551818848
1663862563109291300,8.804291259765625,-4.628488063812256,-8.534950256347656,-1.3791686296463013
1663862563119148500,8.8141484375,-4.455064296722412,-8.63410472869873,-1.332301139831543
1663862563129036000,8.8240361328125,-4.305887699127197,-8.721278190612793,-1.2526037693023682
1663862563138954200,8.833954345703125,-4.183917045593262,-8.794014930725098,-1.1534843444824219
1663862563148811500,8.8438115234375,-4.090843200683594,-8.850719451904297,-1.0488849878311157
1663862563158699300,8.85369921875,-4.021156311035156,-8.894556999206543,-0.9420912861824036
1663862563168587000,8.8635869140625,-3.9597842693328857,-8.932692527770996,-0.8351604342460632
1663862563178444000,8.873444091796875,-3.891925573348999,-8.971853256225586,-0.7274348139762878
1663862563188362200,8.8833623046875,-3.808055877685547,-9.015844345092773,-0.619393527507782
1663862563198219500,8.893219482421875,-3.7047297954559326,-9.065092086791992,-0.51910799741745
1663862563208107300,8.903107177734375,-3.5819056034088135,-9.11892032623291,-0.4308356046676636
1663862563217964300,8.91296435546875,-3.4477145671844482,-9.173672676086426,-0.356905460357666
1663862563227882500,8.922882568359375,-3.309727430343628,-9.226428031921387,-0.29852747917175293
1663862563237770200,8.932770263671875,-3.1771981716156006,-9.274181365966797,-0.25565433502197266
1663862563247627500,8.94262744140625,-3.0549724102020264,-9.316021919250488,-0.22192731499671936
1663862563257545700,8.952545654296875,-2.942784070968628,-9.352725982666016,-0.19217708706855774
1663862563267433200,8.96243310546875,-2.8405258655548096,-9.38473892211914,-0.16877977550029755
1663862563277321000,8.972321044921875,-2.742790460586548,-9.413982391357422,-0.15624575316905975
1663862563287178200,8.98217822265625,-2.6406118869781494,-9.443154335021973,-0.15620377659797668
1663862563297066000,8.99206591796875,-2.537714958190918,-9.471081733703613,-0.170297771692276
1663862563306923000,9.001923095703125,-2.4665374755859375,-9.489179611206055,-0.20508156716823578
1663862563316841200,9.01184130859375,-2.4738075733184814,-9.486071586608887,-0.25519460439682007
1663862563326698500,9.021698486328125,-2.574516773223877,-9.458060264587402,-0.29552391171455383
1663862563336586200,9.031586181640625,-2.7330033779144287,-9.413832664489746,-0.2843169867992401
1663862563346474000,9.041473876953125,-2.8918519020080566,-9.368553161621094,-0.1943558007478714
1663862563356361500,9.051361572265625,-3.0060019493103027,-9.33430290222168,-0.07168003916740417
1663862563366218800,9.06121875,-3.0855987071990967,-9.308562278747559,0.011552730575203896
1663862563376106500,9.0711064453125,-3.161985397338867,-9.282891273498535,0.013604279607534409
1663862563385963500,9.080963623046875,-3.2426862716674805,-9.254788398742676,-0.06536069512367249
1663862563395881700,9.0908818359375,-3.3249549865722656,-9.224224090576172,-0.16958428919315338
1663862563405739000,9.100739013671875,-3.396050214767456,-9.196479797363281,-0.24897867441177368
1663862563415657200,9.1106572265625,-3.425621747970581,-9.184798240661621,-0.2738538682460785
1663862563425514500,9.120514404296875,-3.4023680686950684,-9.194323539733887,-0.24226921796798706
1663862563435402000,9.130402099609375,-3.351741313934326,-9.214195251464844,-0.18660791218280792
1663862563445259300,9.14025927734375,-3.2965152263641357,-9.235142707824707,-0.12458279728889465
1663862563455177500,9.150177490234375,-3.235365867614746,-9.25739574432373,-0.058393992483615875
1663862563465034800,9.16003466796875,-3.163283109664917,-9.282452583312988,0.009710041806101799
1663862563474953000,9.169952880859375,-3.077094316482544,-9.311039924621582,0.0800299197435379
1663862563484810000,9.17981005859375,-2.9786291122436523,-9.342077255249023,0.15407316386699677
1663862563494697700,9.18969775390625,-2.869584083557129,-9.37462043762207,0.22883649170398712
1663862563504555000,9.199554931640625,-2.7551562786102295,-9.407215118408203,0.28946396708488464
1663862563514442500,9.2094423828125,-2.644339084625244,-9.437542915344238,0.33262860774993896
1663862563524360700,9.219360595703124,-2.5460879802703857,-9.463268280029297,0.3665798008441925
1663862563534218000,9.229218017578125,-2.4572012424468994,-9.485685348510742,0.3928467035293579
1663862563544105700,9.239105712890625,-2.371281623840332,-9.506733894348145,0.4116291403770447
1663862563553993500,9.248993408203125,-2.2878148555755615,-9.526583671569824,0.4248430132865906
1663862563563881200,9.258881103515625,-2.210211753845215,-9.544533729553223,0.43268823623657227
1663862563573738200,9.26873828125,-2.141183853149414,-9.560314178466797,0.43139904737472534
1663862563583656400,9.278656494140625,-2.0808305740356445,-9.574111938476562,0.4206031262874603
1663862563593513700,9.288513671875,-2.0311036109924316,-9.585522651672363,0.4034382998943329
1663862563603370800,9.298370849609375,-1.9939403533935547,-9.59424877166748,0.38076451420783997
1663862563613289000,9.3082890625,-1.9724891185760498,-9.59971809387207,0.35366323590278625
1663862563623176700,9.3181767578125,-1.9704291820526123,-9.601170539855957,0.32452091574668884
1663862563633064400,9.328064453125,-1.987488031387329,-9.598662376403809,0.29319390654563904
1663862563642921700,9.337921630859375,-2.0220775604248047,-9.592424392700195,0.258821964263916
1663862563652809200,9.347809326171875,-2.070659875869751,-9.582923889160156,0.22433049976825714
1663862563662697000,9.357697021484375,-2.1316609382629395,-9.570159912109375,0.19609150290489197
1663862563672584700,9.367584716796875,-2.207479476928711,-9.553369522094727,0.17480474710464478
1663862563682442000,9.37744189453125,-2.302257776260376,-9.531250953674316,0.15893979370594025
1663862563692329500,9.38732958984375,-2.4176025390625,-9.502802848815918,0.14934109151363373
1663862563702217200,9.39721728515625,-2.545259475708008,-9.46938419342041,0.1509827822446823
1663862563712074500,9.407074462890625,-2.67116379737854,-9.434338569641113,0.16890579462051392
1663862563721992700,9.41699267578125,-2.7863128185272217,-9.40037727355957,0.19941000640392303
1663862563731849700,9.426849609375,-2.8892056941986084,-9.368398666381836,0.23662453889846802
1663862563741768000,9.436767822265624,-2.986588716506958,-9.336583137512207,0.2808593213558197
1663862563751655700,9.44665576171875,-3.0779504776000977,-9.30516242980957,0.332508385181427
1663862563761543400,9.45654345703125,-3.161855936050415,-9.274781227111816,0.3892243504524231
1663862563771431200,9.46643115234375,-3.24330472946167,-9.24409008026123,0.44514328241348267
1663862563781288400,9.476288330078125,-3.331740617752075,-9.210046768188477,0.49490827322006226
1663862563791145500,9.4861455078125,-3.4332494735717773,-9.17042350769043,0.5352619886398315
1663862563801033200,9.496033203125,-3.547959089279175,-9.125099182128906,0.5612069964408875
1663862563810921000,9.5059208984375,-3.6737072467803955,-9.074858665466309,0.5667392015457153
1663862563820778000,9.515778076171875,-3.8052186965942383,-9.021666526794434,0.5479346513748169
1663862563830665700,9.525665771484375,-3.935425281524658,-8.9680757522583,0.5063987374305725
1663862563840584000,9.535583984375,-4.065156936645508,-8.913131713867188,0.44827738404273987
1663862563850441200,9.545441162109375,-4.20493745803833,-8.851227760314941,0.3803246021270752
1663862563860298200,9.55529833984375,-4.373088836669922,-8.772290229797363,0.3056071400642395
1663862563870186000,9.56518603515625,-4.590690612792969,-8.662880897521973,0.22456741333007812
1663862563880073700,9.57507373046875,-4.864420413970947,-8.514165878295898,0.12952356040477753
1663862563889992000,9.584991943359375,-5.172446250915527,-8.331631660461426,0.010318573564291
1663862563899849200,9.59484912109375,-5.479154109954834,-8.132143020629883,-0.1323225498199463
1663862563909736700,9.60473681640625,-5.774957180023193,-7.920065879821777,-0.30464568734169006
1663862563919594000,9.614593994140625,-6.06437349319458,-7.690176010131836,-0.504930853843689
1663862563929512200,9.62451220703125,-6.346559047698975,-7.4412617683410645,-0.7205533981323242
1663862563939400000,9.63439990234375,-6.599806308746338,-7.193004131317139,-0.9346889853477478
1663862563949257000,9.644257080078125,-6.814591884613037,-6.961214542388916,-1.1283670663833618
1663862563959175200,9.654175048828124,-6.994764804840088,-6.752231597900391,-1.2849208116531372
1663862563969063000,9.66406298828125,-7.145889759063721,-6.567656993865967,-1.4044651985168457
1663862563978920200,9.673920166015625,-7.273993968963623,-6.402774810791016,-1.5046228170394897
1663862563988777200,9.683777099609374,-7.382928371429443,-6.252421855926514,-1.6031129360198975
1663862563998695400,9.6936953125,-7.4769110679626465,-6.112349033355713,-1.7045176029205322
1663862564008552700,9.703552734375,-7.551458358764648,-5.992178916931152,-1.799902319908142
1663862564018440400,9.7134404296875,-7.603933811187744,-5.900740146636963,-1.8793210983276367
1663862564028297500,9.72329736328125,-7.634435176849365,-5.84399938583374,-1.932218074798584
1663862564038216000,9.7332158203125,-7.645803928375244,-5.819405555725098,-1.9612712860107422
1663862564048103400,9.743103515625,-7.638365268707275,-5.821966648101807,-1.9825412034988403
1663862564057991200,9.7529912109375,-7.610256195068359,-5.854083061218262,-1.996019721031189
1663862564067848400,9.762848388671875,-7.560153007507324,-5.915041923522949,-2.006678342819214
1663862564077736200,9.772736083984375,-7.497466087341309,-5.98900842666626,-2.022413730621338
1663862564087593200,9.78259326171875,-7.4199371337890625,-6.077764511108398,-2.0434510707855225
1663862564097511400,9.792511474609375,-7.323838710784912,-6.187069892883301,-2.062023401260376
1663862564107368700,9.80236865234375,-7.210597515106201,-6.314557075500488,-2.074617624282837
1663862564117256400,9.81225634765625,-7.0825514793396,-6.456711769104004,-2.0781571865081787
1663862564127144000,9.82214404296875,-6.9438629150390625,-6.608617782592773,-2.0686545372009277
1663862564137031700,9.83203173828125,-6.8001861572265625,-6.764466285705566,-2.0420238971710205
1663862564146919400,9.84191943359375,-6.6568169593811035,-6.918126106262207,-1.9991776943206787
1663862564156807200,9.85180712890625,-6.513178825378418,-7.068755626678467,-1.9446266889572144
1663862564166695000,9.86169482421875,-6.364549160003662,-7.2201337814331055,-1.8795115947723389
1663862564176582400,9.87158251953125,-6.205110549926758,-7.375710964202881,-1.8071751594543457
1663862564186439700,9.881439697265625,-6.034317970275879,-7.53396463394165,-1.7311146259307861
1663862564196327400,9.891327392578125,-5.8556904792785645,-7.692096710205078,-1.6470953226089478
1663862564206215200,9.901215087890625,-5.674898147583008,-7.8463592529296875,-1.5493745803833008
1663862564216072200,9.911072265625,-5.491990089416504,-7.9958109855651855,-1.4406405687332153
1663862564225960000,9.9209599609375,-5.308897018432617,-8.137592315673828,-1.3287502527236938
1663862564235847700,9.93084765625,-5.140744209289551,-8.260433197021484,-1.228162407875061
1663862564245735400,9.9407353515625,-4.97799825668335,-8.369452476501465,-1.158530831336975
1663862564255623000,9.950622802734374,-4.821606159210205,-8.465683937072754,-1.1201382875442505
1663862564265480200,9.960480224609375,-4.671161651611328,-8.552120208740234,-1.100849986076355
1663862564275398400,9.9703984375,-4.52079439163208,-8.635419845581055,-1.0781182050704956
1663862564285286100,9.9802861328125,-4.368521213531494,-8.718498229980469,-1.036439061164856
1663862564295174000,9.990173828125,-4.211009502410889,-8.801945686340332,-0.9816022515296936
1663862564305061600,10.0000615234375,-4.0485453605651855,-8.88331413269043,-0.9308043718338013
1663862564314949000,10.00994921875,-3.8906590938568115,-8.95775032043457,-0.8898729681968689
1663862564324836900,10.0198369140625,-3.745788812637329,-9.02255630493164,-0.8561115860939026
1663862564334724600,10.029724609375,-3.6141717433929443,-9.0787992477417,-0.8267803192138672
1663862564344582000,10.039581787109375,-3.4892091751098633,-9.129596710205078,-0.8039073944091797
1663862564354469400,10.049469482421875,-3.3561854362487793,-9.179951667785645,-0.7968086004257202
1663862564364326700,10.05932666015625,-3.2028818130493164,-9.233142852783203,-0.8130285739898682
1663862564374214400,10.06921435546875,-3.030341386795044,-9.288012504577637,-0.8486640453338623
1663862564384102100,10.07910205078125,-2.853811264038086,-9.339444160461426,-0.8949467539787292
1663862564393959200,10.088959228515625,-2.6979639530181885,-9.380911827087402,-0.9433358907699585
1663862564403847000,10.098846923828125,-2.5798494815826416,-9.409772872924805,-0.985360324382782
1663862564413734700,10.108734619140625,-2.4905364513397217,-9.430463790893555,-1.0168495178222656
1663862564423622400,10.118622314453125,-2.4197452068328857,-9.444963455200195,-1.0525649785995483
1663862564433510000,10.128510009765625,-2.394960641860962,-9.44459056854248,-1.110972285270691
1663862564443367200,10.1383671875,-2.451817274093628,-9.422136306762695,-1.175726056098938
1663862564453255000,10.1482548828125,-2.570483684539795,-9.386992454528809,-1.2030665874481201
1663862564463112000,10.15811181640625,-2.6891303062438965,-9.357111930847168,-1.1761888265609741
1663862564472999700,10.167999755859375,-2.74533748626709,-9.344900131225586,-1.142957329750061
1663862564482887400,10.177887451171875,-2.7575745582580566,-9.343512535095215,-1.124698281288147
1663862564492775200,10.187775146484375,-2.7783944606781006,-9.337278366088867,-1.125227928161621
1663862564502663000,10.197662841796875,-2.8317604064941406,-9.31566333770752,-1.1704418659210205
1663862564512520000,10.20752001953125,-2.9189867973327637,-9.280355453491211,-1.2348781824111938
1663862564522407700,10.21740771484375,-3.0052077770233154,-9.249131202697754,-1.2620140314102173
1663862564532295400,10.22729541015625,-3.049471616744995,-9.236953735351562,-1.2449091672897339
1663862564542213600,10.237213623046875,-3.0563225746154785,-9.23974323272705,-1.2068305015563965
1663862564552071000,10.24707080078125,-3.039486885070801,-9.249874114990234,-1.17121160030365
1663862564561928000,10.256927978515625,-2.999293565750122,-9.2669038772583,-1.139791488647461
1663862564571846100,10.26684619140625,-2.9313716888427734,-9.293479919433594,-1.09939706325531
1663862564581734000,10.27673388671875,-2.8394970893859863,-9.328784942626953,-1.0399092435836792
1663862564601509400,10.29650927734375,-2.6434133052825928,-9.406766891479492,-0.8339715003967285
1663862564611366400,10.306366455078125,-2.5526673793792725,-9.440911293029785,-0.7235153913497925
1663862564621254100,10.316254150390625,-2.4713287353515625,-9.4696044921875,-0.6241046786308289
1663862564631142000,10.326141845703125,-2.3998703956604004,-9.493236541748047,-0.5380129814147949
1663862564641029600,10.336029541015625,-2.3149287700653076,-9.517986297607422,-0.4684232175350189
1663862564650917000,10.345917236328125,-2.1930510997772217,-9.548901557922363,-0.42354831099510193
1663862564660774400,10.3557744140625,-2.066462993621826,-9.578802108764648,-0.38297533988952637
1663862564670662100,10.365662109375,-1.9487947225570679,-9.605268478393555,-0.33378562331199646
1663862564680550000,10.3755498046875,-1.8279976844787598,-9.630631446838379,-0.2823989689350128
1663862564690437400,10.385437255859374,-1.706270456314087,-9.654315948486328,-0.2307012677192688
1663862564700294700,10.395294677734375,-1.5924749374389648,-9.67484188079834,-0.17843177914619446
1663862564710182400,10.405182373046875,-1.4863817691802979,-9.692584991455078,-0.12190941721200943
1663862564720070100,10.415070068359375,-1.3874845504760742,-9.707806587219238,-0.06135735660791397
1663862564729927200,10.42492724609375,-1.303882360458374,-9.719582557678223,0.00020132865756750107
1663862564739815000,10.43481494140625,-1.2424964904785156,-9.727413177490234,0.06343748420476913
1663862564749702700,10.44470263671875,-1.2068768739700317,-9.731200218200684,0.13260920345783234
1663862564759590400,10.45459033203125,-1.1953972578048706,-9.731122016906738,0.21604172885417938
1663862564769478100,10.46447802734375,-1.2038276195526123,-9.72711181640625,0.3232397139072418
1663862564779365600,10.47436572265625,-1.224570870399475,-9.719045639038086,0.45932888984680176
1663862564789253400,10.48425341796875,-1.2457144260406494,-9.707159042358398,0.6242198348045349
1663862564799110700,10.494110595703125,-1.2663990259170532,-9.68997859954834,0.8190938830375671
1663862564808998400,10.503998291015625,-1.292113184928894,-9.665663719177246,1.0371946096420288
1663862564818886000,10.513885986328125,-1.32291579246521,-9.634603500366211,1.262810468673706
1663862564828773600,10.523773681640625,-1.3597493171691895,-9.59950065612793,1.4734536409378052
1663862564838661400,10.533661376953125,-1.4157902002334595,-9.562192916870117,1.6523874998092651
1663862564848549000,10.543549072265625,-1.4991711378097534,-9.52298355102539,1.7987972497940063
1663862564858436900,10.553436767578125,-1.5922960042953491,-9.48277473449707,1.926645278930664
1663862564868294000,10.5632939453125,-1.6629241704940796,-9.442977905273438,2.0579679012298584
1663862564888069400,10.5830693359375,-1.652305245399475,-9.38556957244873,2.3133010864257812
1663862564897926400,10.592926513671875,-1.6373828649520874,-9.362577438354492,2.4148507118225098
1663862564907814100,10.602814208984375,-1.6207937002182007,-9.342940330505371,2.500576972961426
1663862564917732400,10.612732421875,-1.596733808517456,-9.328047752380371,2.5706708431243896
1663862564927589600,10.622589599609375,-1.5628663301467896,-9.318532943725586,2.625410318374634
1663862564937477400,10.632477294921875,-1.5268629789352417,-9.309182167053223,2.6792163848876953
1663862564947364900,10.64236474609375,-1.4814324378967285,-9.298056602478027,2.7426066398620605
1663862564957252600,10.652252685546875,-1.401484727859497,-9.2846040725708,2.828843832015991
1663862564967110000,10.66210986328125,-1.2920743227005005,-9.266752243041992,2.9373817443847656
1663862564976997600,10.67199755859375,-1.1772871017456055,-9.243415832519531,3.05673885345459
1663862564986885000,10.681885009765624,-1.051055669784546,-9.218548774719238,3.1755337715148926
1663862564996772900,10.69177294921875,-0.8935616612434387,-9.199422836303711,3.2775816917419434
1663862565006660600,10.70166064453125,-0.7103758454322815,-9.191513061523438,3.3439247608184814
1663862565016548400,10.71154833984375,-0.533064603805542,-9.191832542419434,3.3758623600006104
1663862565026436000,10.72143603515625,-0.411024808883667,-9.193830490112305,3.3874666690826416
1663862565036323800,10.73132373046875,-0.39673498272895813,-9.190887451171875,3.3971424102783203
1663862565046211300,10.74121142578125,-0.4380137324333191,-9.172748565673828,3.440816640853882
1663862565056099000,10.75109912109375,-0.4034729599952698,-9.135358810424805,3.542994976043701
1663862565065956400,10.760956298828125,-0.17636756598949432,-9.084640502929688,3.6889808177948
1663862565075813400,10.7708134765625,0.23590441048145294,-9.023588180541992,3.832700252532959
1663862565085731600,10.780731689453125,0.6668860912322998,-8.947032928466797,3.9593255519866943
1663862565095619300,10.790619384765625,0.9750441908836365,-8.860157012939453,4.08867883682251
1663862565105507000,10.800507080078125,1.194671392440796,-8.78212833404541,4.1973042488098145
1663862565115394800,10.810394775390625,1.4746912717819214,-8.732498168945312,4.211787223815918
1663862565125282600,10.820282470703125,1.8972612619400024,-8.718140602111816,4.06998872756958
1663862565135170000,10.830170166015625,2.3651123046875,-8.732009887695312,3.7853188514709473
1663862565145057800,10.840057861328125,2.7477993965148926,-8.773422241210938,3.4127774238586426
1663862565154915000,10.8499150390625,3.0551435947418213,-8.83202838897705,2.9718267917633057
1663862565164802800,10.859802734375,3.358473062515259,-8.88470458984375,2.4398910999298096
1663862565174690300,10.869690185546874,3.668593406677246,-8.910205841064453,1.8220967054367065
1663862565184578000,10.879578125,3.943746566772461,-8.902608871459961,1.1665397882461548
1663862565194435300,10.889435302734375,4.160469055175781,-8.86482048034668,0.525200366973877
1663862565204292400,10.899292236328124,4.336704730987549,-8.7953519821167,-0.07191736251115799
1663862565214180000,10.90918017578125,4.503634929656982,-8.689986228942871,-0.6097558736801147
1663862565224067800,10.91906787109375,4.682944297790527,-8.544265747070312,-1.1117299795150757
1663862565233955600,10.92895556640625,4.910359859466553,-8.339937210083008,-1.5824706554412842
1663862565243843300,10.93884326171875,5.220767021179199,-8.049030303955078,-2.0315253734588623
1663862565253700400,10.948700439453125,5.626279354095459,-7.639736175537109,-2.479879140853882
1663862565263588000,10.958588134765625,6.082565784454346,-7.081436634063721,-3.0043349266052246
1663862565273445400,10.9684453125,6.424016952514648,-6.397883415222168,-3.7375786304473877
1663862565283363600,10.978363525390625,6.529830455780029,-5.622702121734619,-4.681552410125732
1663862565293220600,10.988220703125,6.4289679527282715,-4.797217845916748,-5.641406059265137
1663862565303138800,10.998138916015625,6.3746514320373535,-3.9473841190338135,-6.320788860321045
1663862565313026600,11.008026611328125,6.56998872756958,-3.1261961460113525,-6.575145244598389
1663862565322914300,11.017914306640625,6.972886562347412,-2.36087703704834,-6.478850364685059
1663862565332771600,11.027771484375,7.439133644104004,-1.6495455503463745,-6.17322301864624
1663862565342659000,11.0376591796875,7.834963321685791,-0.9811407923698425,-5.815591335296631
1663862565352516400,11.047516357421875,8.073738098144531,-0.35462963581085205,-5.555123329162598
1663862565362434600,11.0574345703125,8.160176277160645,0.2493799477815628,-5.433207035064697
1663862565372322300,11.067322265625,8.149191856384277,0.8191160559654236,-5.393526077270508
1663862565382210000,11.0772099609375,8.106273651123047,1.3310171365737915,-5.356034755706787
1663862565392097500,11.08709765625,8.097752571105957,1.7739884853363037,-5.239252090454102
1663862565401985300,11.0969853515625,8.200904846191406,2.0893478393554688,-4.954813003540039
1663862565411842600,11.106842529296875,8.337448120117188,2.269843101501465,-4.637366771697998
1663862565421730300,11.116730224609375,8.451786041259766,2.3764188289642334,-4.369248390197754
1663862565431587300,11.12658740234375,8.581598281860352,2.378480911254883,-4.107234954833984
1663862565441444600,11.136444580078125,8.716550827026367,2.286360502243042,-3.868422508239746
1663862565451332400,11.146332275390625,8.847270965576172,2.1209876537323,-3.660273790359497
1663862565461250600,11.15625048828125,9.002488136291504,1.8903729915618896,-3.3988356590270996
1663862565471138000,11.166137939453124,9.184406280517578,1.582135796546936,-3.0518696308135986
1663862565481025800,11.17602587890625,9.361798286437988,1.202701449394226,-2.6609466075897217
1663862565490883000,11.185883056640625,9.509539604187012,0.776107907295227,-2.2664272785186768
1663862565500770800,11.195770751953125,9.621190071105957,0.31497815251350403,-1.87186861038208
1663862565510658600,11.205658447265625,9.692496299743652,-0.17317286133766174,-1.4818639755249023
1663862565520546000,11.215546142578125,9.718549728393555,-0.6836164593696594,-1.1193077564239502
1663862565530433800,11.225433837890625,9.703139305114746,-1.181923508644104,-0.7890113592147827
1663862565540321500,11.235321533203125,9.659124374389648,-1.620966911315918,-0.4941336214542389
1663862565550209300,11.245209228515625,9.602540016174316,-1.9717446565628052,-0.2716927230358124
1663862565560097000,11.255096923828125,9.550867080688477,-2.219846248626709,-0.1536736786365509
1663862565569984500,11.264984619140625,9.516451835632324,-2.363959550857544,-0.1386309415102005
1663862565579841800,11.274841796875,9.504435539245605,-2.4093546867370605,-0.17637652158737183
1663862565589729500,11.2847294921875,9.517204284667969,-2.3580267429351807,-0.18144457042217255
1663862565599617300,11.2946171875,9.556081771850586,-2.201131820678711,-0.08188004046678543
1663862565609504800,11.3045048828125,9.609456062316895,-1.9539129734039307,0.10469618439674377
1663862565619392500,11.314392578125,9.661517143249512,-1.654052495956421,0.29929518699645996
1663862565629280300,11.3242802734375,9.705567359924316,-1.3245182037353516,0.4669077694416046
1663862565639137500,11.334137451171875,9.738956451416016,-0.9617830514907837,0.6309314966201782
1663862565649025000,11.34402490234375,9.757365226745605,-0.5590621829032898,0.8072457313537598
1663862565658912800,11.353912841796875,9.758087158203125,-0.12397322803735733,0.9668295383453369
1663862565668800500,11.363800537109375,9.742323875427246,0.34319132566452026,1.0675816535949707
1663862565678688300,11.373688232421875,9.707615852355957,0.8230388164520264,1.1203564405441284
1663862565688545300,11.383545166015624,9.641261100769043,1.2625468969345093,1.2737544775009155
1663862565698433000,11.39343310546875,9.535088539123535,1.6855621337890625,1.5528579950332642
1663862565708320800,11.40332080078125,9.390707969665527,2.103696584701538,1.8866502046585083
1663862565718208500,11.41320849609375,9.216325759887695,2.5016937255859375,2.2296314239501953
1663862565728096300,11.42309619140625,9.03262996673584,2.8500895500183105,2.5414512157440186
1663862565737953300,11.432953369140625,8.86777114868164,3.141150712966919,2.7687885761260986
1663862565747841000,11.442841064453125,8.741588592529297,3.385485887527466,2.87984561920166
1663862565757728800,11.452728759765625,8.648366928100586,3.5987625122070312,2.9025940895080566
1663862565767616500,11.462616455078125,8.569417953491211,3.7988028526306152,2.8817639350891113
1663862565777504300,11.472504150390625,8.493886947631836,3.9807522296905518,2.8596994876861572
1663862565787391700,11.482391845703125,8.41783332824707,4.140106678009033,2.8583149909973145
1663862565797249000,11.4922490234375,8.326688766479492,4.282131671905518,2.9154741764068604
1663862565807106300,11.502106201171875,8.204263687133789,4.410609722137451,3.0670785903930664
1663862565816993800,11.511993896484375,8.038079261779785,4.529027938842773,3.323789596557617
1663862565826881500,11.521881591796875,7.824828624725342,4.640588760375977,3.6616086959838867
1663862565836769300,11.531769287109375,7.622057914733887,4.778753757476807,3.903604745864868
1663862565846657000,11.541656982421875,7.446613788604736,5.074763298034668,3.8684775829315186
1663862565856544800,11.551544677734375,7.228740692138672,5.415310859680176,3.819699287414551
1663862565866432300,11.561432373046875,6.978299140930176,5.724987030029297,3.8338301181793213
1663862565876320000,11.571320068359375,6.715583801269531,6.019134998321533,3.8524465560913086
1663862565886207700,11.581207763671875,6.443968296051025,6.3122968673706055,3.8471508026123047
1663862565896095500,11.591095458984375,6.173745632171631,6.595266819000244,3.815457582473755
1663862565905952500,11.600952392578124,5.941596031188965,6.85259485244751,3.7295784950256348
1663862565915840300,11.61084033203125,5.78956937789917,7.077814102172852,3.5434181690216064
1663862565925728000,11.62072802734375,5.724283218383789,7.267964839935303,3.252638101577759
1663862565935615700,11.63061572265625,5.723072052001953,7.421910285949707,2.8865339756011963
1663862565945503500,11.64050341796875,5.77297830581665,7.532773971557617,2.469900608062744
1663862565955391200,11.65039111328125,5.8326616287231445,7.60292387008667,2.0847091674804688
1663862565965248300,11.660248291015625,5.8754072189331055,7.635977268218994,1.828062891960144
1663862565975136000,11.670135986328125,5.920848369598389,7.643826961517334,1.638855218887329
1663862565985023700,11.680023681640625,5.9548420906066895,7.641304016113281,1.5233885049819946
1663862565994911500,11.689911376953125,5.978662490844727,7.63383674621582,1.4664652347564697
1663862566004799000,11.699799072265625,5.999269485473633,7.624541282653809,1.4302183389663696
1663862566014656300,11.70965625,6.0083770751953125,7.621945381164551,1.4056135416030884
1663862566024544000,11.7195439453125,6.006577014923096,7.627151012420654,1.3849142789840698
1663862566034431700,11.729431640625,6.012714862823486,7.6284003257751465,1.3509808778762817
1663862566044288800,11.739288818359375,6.039328575134277,7.61754846572876,1.2922258377075195
1663862566054167300,11.749167236328125,6.083637237548828,7.59818696975708,1.1946953535079956
1663862566064024300,11.7590244140625,6.124040603637695,7.586878299713135,1.0515645742416382
1663862566073912000,11.768912109375,6.134303092956543,7.601808547973633,0.8678796887397766
1663862566083769300,11.778769287109375,6.0971198081970215,7.652362823486328,0.6609509587287903
1663862566093656800,11.78865673828125,6.001799583435059,7.741576671600342,0.4655991494655609
1663862566103575000,11.798574951171876,5.857086181640625,7.859287261962891,0.3106960356235504
1663862566113462800,11.808462890625,5.694614887237549,7.981535911560059,0.19190950691699982
1663862566123350500,11.8183505859375,5.526999473571777,8.100133895874023,0.10250367969274521
1663862566133216000,11.828216064453125,5.369560718536377,8.205896377563477,0.03846890106797218
1663862566143073300,11.8380732421875,5.238722324371338,8.290120124816895,-0.008992883376777172
1663862566152961000,11.8479609375,5.14415168762207,8.349032402038574,-0.041937801986932755
1663862566162848800,11.857848876953126,5.087573528289795,8.383536338806152,-0.057369619607925415
1663862566172736300,11.867736328125,5.063807010650635,8.397882461547852,-0.06179094687104225
1663862566182624000,11.8776240234375,5.062668800354004,8.398530960083008,-0.06683334708213806
1663862566192511700,11.88751171875,5.074287414550781,8.391380310058594,-0.0820857584476471
1663862566202369000,11.897369140625,5.094417095184326,8.378947257995605,-0.10272013396024704
1663862566212256500,11.907256591796875,5.122708320617676,8.361446380615234,-0.12026355415582657
1663862566222174700,11.9171748046875,5.161098480224609,8.337567329406738,-0.1356959193944931
1663862566232032000,11.927031982421875,5.208706855773926,8.307685852050781,-0.1487361192703247
1663862566241889300,11.93688916015625,5.260326862335205,8.274909019470215,-0.15884560346603394
1663862566251807500,11.946807373046875,5.30972146987915,8.243172645568848,-0.1653890758752823
1663862566261695000,11.956695068359375,5.350374221801758,8.21680736541748,-0.16719496250152588
1663862566271582700,11.966582763671875,5.379989147186279,8.197460174560547,-0.1665709763765335
1663862566281470500,11.976470458984375,5.398759841918945,8.185073852539062,-0.16837136447429657
1663862566291358200,11.986358154296875,5.4110493659973145,8.176968574523926,-0.16763930022716522
1663862566301246000,11.996245849609375,5.426479816436768,8.166959762573242,-0.1564609855413437
1663862566311133400,12.006133544921875,5.451263904571533,8.150779724121094,-0.13741159439086914
1663862566321021200,12.016021240234375,5.487092018127441,8.127016067504883,-0.1175597757101059
1663862566330909000,12.025908935546875,5.532252788543701,8.096565246582031,-0.10093018412590027
1663862566340766200,12.03576611328125,5.58676290512085,8.059196472167969,-0.08841422945261002
1663862566350653700,12.04565380859375,5.653731346130371,8.012466430664062,-0.07799313217401505
1663862566360541400,12.05554150390625,5.736064434051514,7.95379638671875,-0.07129127532243729
1663862566370429200,12.06542919921875,5.8362250328063965,7.8805623054504395,-0.07477930933237076
1663862566380317000,12.07531689453125,5.954945087432861,7.791117191314697,-0.08662885427474976
1663862566390174200,12.08517431640625,6.089831829071045,7.686000347137451,-0.09863796085119247
1663862566400031200,12.09503125,6.236307144165039,7.5675554275512695,-0.10470540076494217
1663862566409919000,12.1049189453125,6.3942413330078125,7.434554100036621,-0.1071460098028183
1663862566419806700,12.114806640625,6.564852714538574,7.284268856048584,-0.11192595958709717
1663862566429694500,12.124694580078126,6.747028827667236,7.115782737731934,-0.11677350103855133
1663862566439582000,12.13458203125,6.936091899871826,6.931560516357422,-0.12038299441337585
1663862566449469700,12.1444697265625,7.123547554016113,6.738546371459961,-0.132118821144104
1663862566459357400,12.154357421875,7.299732208251953,6.546880722045898,-0.1504763811826706
1663862566469245200,12.1642451171875,7.4583845138549805,6.36510705947876,-0.16826416552066803
1663862566479133000,12.1741328125,7.596571445465088,6.199206829071045,-0.17976784706115723
1663862566488990000,12.183989990234375,7.713797092437744,6.052718639373779,-0.17979364097118378
1663862566498847200,12.19384716796875,7.816926956176758,5.91926908493042,-0.1682281494140625
1663862566508735000,12.20373486328125,7.913618564605713,5.789707183837891,-0.15595676004886627
1663862566518592000,12.213592041015625,8.004327774047852,5.664126396179199,-0.13713480532169342
1663862566528510200,12.22351025390625,8.089699745178223,5.542206287384033,-0.10534023493528366
1663862566538367500,12.233367431640625,8.167447090148926,5.4275946617126465,-0.06629648059606552
1663862566548285700,12.24328564453125,8.23850154876709,5.3194475173950195,-0.030928397551178932
1663862566558173400,12.25317333984375,8.30267333984375,5.218810558319092,-0.00464256014674902
1663862566568061000,12.26306103515625,8.361202239990234,5.124514102935791,0.00730361882597208
1663862566577918200,12.272918212890625,8.412906646728516,5.039185047149658,-0.0007849317044019699
1663862566587806000,12.282805908203125,8.45560073852539,4.967149257659912,-0.024978546425700188
1663862566597693700,12.292693603515625,8.48928451538086,4.909167766571045,-0.05002455785870552
1663862566607550700,12.30255078125,8.51769733428955,4.859317302703857,-0.07911601662635803
1663862566617438500,12.3124384765625,8.541956901550293,4.815920829772949,-0.11068110913038254
1663862566627326200,12.322326171875,8.56131362915039,4.780625343322754,-0.14108410477638245
1663862566637214000,12.3322138671875,8.57568645477295,4.753951549530029,-0.16717056930065155
1663862566647101700,12.342101806640626,8.585482597351074,4.735411643981934,-0.18904928863048553
1663862566656989200,12.3519892578125,8.591391563415527,4.7236809730529785,-0.21268363296985626
1663862566666877000,12.361876953125,8.592992782592773,4.719491958618164,-0.2393241971731186
1663862566676764700,12.3717646484375,8.589046478271484,4.72514009475708,-0.26778629422187805
1663862566686652400,12.38165234375,8.580023765563965,4.739887714385986,-0.29505038261413574
1663862566696540200,12.3915400390625,8.566606521606445,4.762499809265137,-0.3197599947452545
1663862566706427600,12.401427734375,8.549013137817383,4.792364120483398,-0.3435102701187134
1663862566716285000,12.411284912109375,8.527528762817383,4.828954696655273,-0.3644791841506958
1663862566726172700,12.421172607421875,8.50379467010498,4.86907958984375,-0.38461828231811523
1663862566736060400,12.431060302734375,8.481916427612305,4.905397891998291,-0.4056578576564789
1663862566745948000,12.440947998046875,8.463964462280273,4.934561252593994,-0.42638519406318665
1663862566755835600,12.450835693359375,8.447662353515625,4.960916519165039,-0.4435127377510071
1663862566765662500,12.460662353515625,8.431319236755371,4.987844467163086,-0.4523906111717224
1663862566775550000,12.470550048828125,8.415764808654785,5.014014720916748,-0.4527318477630615
1663862566785437700,12.480437744140625,8.40418529510498,5.033427715301514,-0.4524053633213043
1663862566795325400,12.490325439453125,8.400403022766113,5.0390706062316895,-0.4597744941711426
1663862566805213200,12.500213134765625,8.404765129089355,5.02996826171875,-0.4792977571487427
1663862566815101000,12.510100830078125,8.41363525390625,5.012216091156006,-0.5087465047836304
1663862566824958000,12.5199580078125,8.42174243927002,4.9953460693359375,-0.5395781397819519
1663862566834845700,12.529845703125,8.424600601196289,4.987441539764404,-0.5673813223838806
1663862566844733400,12.5397333984375,8.419753074645996,4.993007183074951,-0.5899314284324646
1663862566854621200,12.54962109375,8.407736778259277,5.011092185974121,-0.6077018976211548
1663862566864508700,12.5595087890625,8.389760971069336,5.03880500793457,-0.6266843676567078
1663862566874396400,12.569396484375,8.367703437805176,5.072014808654785,-0.653136134147644
1663862566884284200,12.5792841796875,8.340132713317871,5.113006591796875,-0.6853668689727783
1663862566894141400,12.589141357421875,8.305704116821289,5.164298057556152,-0.7181133031845093
1663862566904029200,12.599029296875,8.264842987060547,5.225093364715576,-0.7491112351417542
1663862566913916700,12.608916748046875,8.22113037109375,5.289372444152832,-0.778435468673706
1663862566923804400,12.618804443359375,8.17434024810791,5.3569560050964355,-0.8084385395050049
1663862566933692200,12.628692138671875,8.121981620788574,5.432130813598633,-0.834112823009491
1663862566943580000,12.638579833984375,8.064810752868652,5.513415336608887,-0.8552671074867249
1663862566953467600,12.648467529296875,7.999186038970947,5.60533332824707,-0.873866081237793
1663862566963355100,12.658355224609375,7.920553684234619,5.712777137756348,-0.8940911293029785
1663862566973243000,12.668242919921875,7.832818508148193,5.8283610343933105,-0.9206286668777466
1663862566983100200,12.67810009765625,7.744596481323242,5.93982458114624,-0.9539878368377686
1663862566992988000,12.68798779296875,7.665194511413574,6.03630256652832,-0.989058256149292
1663862567002875400,12.69787548828125,7.600024700164795,6.112516403198242,-1.0233036279678345
1663862567012732700,12.707732666015625,7.5457658767700195,6.173196792602539,-1.0599232912063599
1663862567022620400,12.717620361328125,7.497043609619141,6.225838661193848,-1.097112774848938
1663862567032477400,12.7274775390625,7.4481282234191895,6.277562618255615,-1.1348925828933716
1663862567042365200,12.737365234375,7.388588905334473,6.3393096923828125,-1.1799558401107788
1663862567052253000,12.7472529296875,7.313724517822266,6.416259288787842,-1.2294038534164429
1663862567062140700,12.757140625,7.226041316986084,6.5061726570129395,-1.2745338678359985
1663862567072028400,12.7670283203125,7.1329264640808105,6.601093292236328,-1.310461163520813
1663862567081916000,12.776916015625,7.044569969177246,6.689886093139648,-1.3378562927246094
1663862567091773200,12.786773193359375,6.969391822814941,6.763360500335693,-1.361958622932434
1663862567101661000,12.796660888671875,6.912888050079346,6.8163275718688965,-1.3856580257415771
1663862567111518000,12.80651806640625,6.875706195831299,6.849969387054443,-1.404621958732605
1663862567121436400,12.8164365234375,6.854511737823486,6.869199275970459,-1.4142698049545288
1663862567131324000,12.826323974609375,6.848847389221191,6.875511169433594,-1.4110366106033325
1663862567141211600,12.836211669921875,6.857446670532227,6.869595050811768,-1.3980236053466797
1663862567151099400,12.846099365234375,6.875543594360352,6.854391098022461,-1.3836945295333862
