time,seconds_elapsed,z,y,x
1663862554551429600,0.2464296875,0.6249237060546875,-0.6559600830078125,0.440521240234375
1663862554561317400,0.2563173828125,0.435302734375,-0.618682861328125,0.6738128662109375
1663862554571205000,0.266205078125,0.0496826171875,-0.66448974609375,0.790985107421875
1663862554581092900,0.2760927734375,-0.3071746826171875,-0.7603607177734375,0.849578857421875
1663862554590980400,0.28598046875,-0.522369384765625,-0.8700714111328125,0.8836669921875
1663862554600868000,0.2958681640625,-0.613983154296875,-0.90203857421875,0.92840576171875
1663862554610755800,0.305755859375,-0.6395416259765625,-0.8381195068359375,0.9816741943359375
1663862554620643600,0.3156435546875,-0.6374053955078125,-0.7283935546875,0.9827423095703125
1663862554630531300,0.32553125,-0.5830841064453125,-0.548370361328125,0.88580322265625
1663862554640418800,0.335418701171875,-0.39453125,-0.3140106201171875,0.677001953125
1663862554650306600,0.345306640625,-0.06109619140625,-0.080718994140625,0.3638153076171875
1663862554660133400,0.35513330078125,0.2062835693359375,0.1131591796875,0.0889892578125
1663862554669990400,0.364990478515625,0.290435791015625,0.2548370361328125,0.03997802734375
1663862554679908600,0.37490869140625,0.3181304931640625,0.3240814208984375,0.1944427490234375
1663862554689796400,0.38479638671875,0.3415679931640625,0.318756103515625,0.3553009033203125
1663862554699684000,0.39468408203125,0.2957611083984375,0.2676239013671875,0.3968505859375
1663862554709571800,0.40457177734375,0.1487579345703125,0.27508544921875,0.3212127685546875
1663862554719428900,0.414428955078125,-0.0334014892578125,0.320892333984375,0.1848602294921875
1663862554729316600,0.424316650390625,-0.1399383544921875,0.31982421875,0.064483642578125
1663862554739174000,0.434173828125,-0.097320556640625,0.2676239013671875,0.0485076904296875
1663862554749092000,0.444092041015625,0.0667266845703125,0.2015838623046875,0.1507720947265625
1663862554758979600,0.4539794921875,0.2595367431640625,0.0982513427734375,0.3031005859375
1663862554768867300,0.463867431640625,0.389495849609375,0.04498291015625,0.427734375
1663862554778724600,0.473724609375,0.3969573974609375,0.1131591796875,0.43731689453125
1663862554788581600,0.48358154296875,0.3202667236328125,0.2346038818359375,0.2956390380859375
1663862554798469400,0.493469482421875,0.22332763671875,0.4497833251953125,0.0442352294921875
1663862554808357000,0.503357177734375,0.11785888671875,0.612762451171875,-0.2028961181640625
1663862554818214400,0.51321435546875,0.039031982421875,0.64898681640625,-0.356292724609375
1663862554828132600,0.523132568359375,0.0102691650390625,0.57122802734375,-0.4319305419921875
1663862554838020400,0.533020263671875,0.07098388671875,0.37841796875,-0.393585205078125
1663862554847907800,0.542907958984375,0.210540771484375,0.1099700927734375,-0.2412567138671875
1663862554857795600,0.552795654296875,0.321319580078125,-0.1126708984375,-0.095306396484375
1663862554867683300,0.562683349609375,0.3277130126953125,-0.193634033203125,-0.0910491943359375
1663862554877571000,0.572571044921875,0.2638092041015625,-0.146759033203125,-0.21142578125
1663862554887458800,0.582458740234375,0.23291015625,0.0279388427734375,-0.3531036376953125
1663862554897315800,0.59231591796875,0.2265167236328125,0.21649169921875,-0.4308624267578125
1663862554907203600,0.60220361328125,0.2286529541015625,0.2654876708984375,-0.4191436767578125
1663862554917060900,0.612060791015625,0.2968292236328125,0.1642913818359375,-0.3168792724609375
1663862554926948400,0.6219482421875,0.3756561279296875,0.0045013427734375,-0.1592254638671875
1663862554936836000,0.631836181640625,0.3735198974609375,-0.09136962890625,-0.003692626953125
1663862554946723800,0.641723876953125,0.401214599609375,-0.1126708984375,0.099639892578125
1663862554956611600,0.651611572265625,0.5215911865234375,-0.1414337158203125,0.0943145751953125
1663862554966468600,0.661468505859375,0.6579437255859375,-0.2692718505859375,0.0335845947265625
1663862554976356400,0.6713564453125,0.722930908203125,-0.5675506591796875,-0.0132904052734375
1663862554986244000,0.681244140625,0.6963043212890625,-1.0650177001953125,-0.029266357421875
1663862554996101400,0.691101318359375,0.5929718017578125,-1.5209503173828125,0.0335845947265625
1663862555006019600,0.70101953125,0.3756561279296875,-1.6285400390625,0.1848602294921875
1663862555015907000,0.710906982421875,0.1359710693359375,-1.3611602783203125,0.370208740234375
1663862555025794800,0.720794921875,0.0198516845703125,-0.95635986328125,0.4916534423828125
1663862555035682600,0.7306826171875,0.0901641845703125,-0.698577880859375,0.452239990234375
1663862555045570300,0.7405703125,0.2297210693359375,-0.661285400390625,0.325469970703125
1663862555055458000,0.7504580078125,0.28936767578125,-0.639984130859375,0.2626190185546875
1663862555065345800,0.760345703125,0.2840423583984375,-0.5025634765625,0.2423858642578125
1663862555075202800,0.770202880859375,0.2606048583984375,-0.2447662353515625,0.2423858642578125
1663862555085060000,0.78006005859375,0.3064117431640625,0.0172882080078125,0.243438720703125
1663862555094947800,0.78994775390625,0.4203948974609375,0.023681640625,0.23492431640625
1663862555104835300,0.79983544921875,0.504547119140625,-0.20428466796875,0.31695556640625
1663862555114692600,0.809692626953125,0.482177734375,-0.4908447265625,0.4575653076171875
1663862555124610800,0.81961083984375,0.3927001953125,-0.6783294677734375,0.521484375
1663862555134498600,0.82949853515625,0.23291015625,-0.49298095703125,0.50762939453125
1663862555144386300,0.83938623046875,0.1562042236328125,-0.2351837158203125,0.384063720703125
1663862555154273800,0.849273681640625,0.2169342041015625,-0.066864013671875,0.2317352294921875
1663862555164161500,0.85916162109375,0.288299560546875,0.0620269775390625,0.2210693359375
1663862555174049300,0.86904931640625,0.3287811279296875,-0.0413055419921875,0.391510009765625
1663862555183906600,0.878906494140625,0.3884429931640625,-0.4983062744140625,0.6812744140625
1663862555193794000,0.8887939453125,0.4907073974609375,-1.1779327392578125,0.999786376953125
1663862555203681800,0.898681884765625,0.5706024169921875,-1.8170928955078125,1.2991180419921875
1663862555213569500,0.908569580078125,0.6238555908203125,-2.029083251953125,1.4525146484375
1663862555223457300,0.918457275390625,0.652618408203125,-1.781951904296875,1.40032958984375
1663862555233305000,0.92830517578125,0.7761993408203125,-1.5252227783203125,1.237335205078125
1663862555243192600,0.938192626953125,0.9146728515625,-1.2631683349609375,0.9955291748046875
1663862555253080300,0.948080322265625,1.051025390625,-1.18646240234375,0.7675628662109375
1663862555262968000,0.957968017578125,1.211883544921875,-1.515625,0.59710693359375
1663862555272855800,0.967855712890625,1.29071044921875,-2.1835479736328125,0.4703521728515625
1663862555282712800,0.977712890625,1.22467041015625,-2.9366912841796875,0.3755340576171875
1663862555292570000,0.987570068359375,1.112823486328125,-3.570526123046875,0.30523681640625
1663862555302457900,0.997457763671875,1.1298675537109375,-4.1574859619140625,0.2977752685546875
1663862555312345600,1.007345703125,1.284332275390625,-4.811553955078125,0.3734130859375
1663862555322233000,1.017233154296875,1.496307373046875,-5.2568359375,0.5033721923828125
1663862555332120800,1.027120849609375,1.78179931640625,-5.201446533203125,0.6983184814453125
1663862555342008600,1.037008544921875,2.22601318359375,-4.8072967529296875,1.046661376953125
1663862555351896300,1.046896240234375,2.8491973876953125,-4.4056854248046875,1.4972686767578125
1663862555361784000,1.0567841796875,3.563995361328125,-3.7132720947265625,1.967041015625
1663862555371671600,1.066671630859375,4.2755889892578125,-2.8322906494140625,2.4229736328125
1663862555381559300,1.076559326171875,4.8806610107421875,-2.2176361083984375,2.7723846435546875
1663862555391416600,1.08641650390625,5.3003692626953125,-2.054656982421875,2.9875640869140625
1663862555401304300,1.09630419921875,5.54644775390625,-2.32415771484375,3.074920654296875
1663862555411161300,1.106161376953125,5.580535888671875,-3.054931640625,2.800079345703125
1663862555421049000,1.116049072265625,5.1991729736328125,-4.4514923095703125,1.683685302734375
1663862555430936800,1.125936767578125,4.838043212890625,-5.14605712890625,0.6407928466796875
1663862555440824600,1.135824462890625,5.1757354736328125,-4.472808837890625,0.5949859619140625
1663862555450681600,1.145681640625,5.8010406494140625,-2.95587158203125,1.0391998291015625
1663862555460539000,1.155538818359375,6.046051025390625,-1.6818084716796875,1.317230224609375
1663862555470457000,1.16545703125,5.7701568603515625,-1.6136322021484375,1.1659698486328125
1663862555480314400,1.175314453125,5.309967041015625,-2.439208984375,0.837860107421875
1663862555490232600,1.185232666015625,5.0478973388671875,-2.929229736328125,0.8453216552734375
1663862555500089600,1.195089599609375,5.03619384765625,-2.61285400390625,1.11163330078125
1663862555509947000,1.20494677734375,5.0148773193359375,-2.0365447998046875,1.2852783203125
1663862555519865000,1.214864990234375,4.862548828125,-1.7371978759765625,1.3140411376953125
1663862555529752800,1.2247529296875,4.621795654296875,-1.6913909912109375,1.354522705078125
1663862555539640300,1.234640380859375,4.2287139892578125,-1.598724365234375,1.615509033203125
1663862555549528000,1.244528076171875,3.631103515625,-1.3270721435546875,2.038421630859375
1663862555559415800,1.254415771484375,2.9173736572265625,-1.062896728515625,2.31219482421875
1663862555569303600,1.264303466796875,2.2547760009765625,-0.8477020263671875,2.3249664306640625
1663862555579160600,1.27416064453125,1.8126983642578125,-0.6240081787109375,2.193939208984375
1663862555589048300,1.28404833984375,1.5719451904296875,-0.4162750244140625,2.071441650390625
1663862555598905600,1.293905517578125,1.4153594970703125,-0.4269256591796875,1.990478515625
1663862555608793300,1.30379345703125,1.176727294921875,-0.732666015625,2.0192413330078125
1663862555618680800,1.313680908203125,0.725067138671875,-1.0756683349609375,2.1342926025390625
1663862555628568600,1.323568603515625,0.18603515625,-1.3739471435546875,2.1928863525390625
1663862555638456300,1.333456298828125,-0.3178253173828125,-1.4517059326171875,2.114044189453125
1663862555648344000,1.343343994140625,-0.6491241455078125,-1.172607421875,1.86370849609375
1663862555658201000,1.353201171875,-0.738616943359375,-0.7933807373046875,1.547332763671875
1663862555668088800,1.3630888671875,-0.713043212890625,-0.6889801025390625,1.2202911376953125
1663862555677946000,1.372946044921875,-0.6619110107421875,-0.94677734375,0.90496826171875
1663862555687833900,1.382833740234375,-0.442474365234375,-1.197113037109375,0.62054443359375
1663862555697721600,1.3927216796875,-0.1143646240234375,-1.1459808349609375,0.35955810546875
1663862555707639800,1.402639892578125,0.097625732421875,-0.8572998046875,0.247711181640625
1663862555717527300,1.41252734375,0.2851104736328125,-0.57073974609375,0.3297271728515625
1663862555727415000,1.4224150390625,0.5013580322265625,-0.515350341796875,0.46075439453125
1663862555737272300,1.432272216796875,0.57379150390625,-0.6911163330078125,0.6855316162109375
1663862555747129300,1.44212939453125,0.5109405517578125,-1.347320556640625,0.9827423095703125
1663862555757017000,1.45201708984375,0.37884521484375,-2.1377410888671875,1.018951416015625
1663862555766904800,1.46190478515625,0.313873291015625,-2.65972900390625,0.79205322265625
1663862555776792600,1.47179248046875,0.4193267822265625,-2.3774261474609375,0.8357391357421875
1663862555786680300,1.481680419921875,0.551422119140625,-1.620025634765625,1.3822174072265625
1663862555796567800,1.49156787109375,0.2861785888671875,-1.2855377197265625,1.888214111328125
1663862555806455600,1.50145556640625,-0.4094390869140625,-0.90203857421875,1.98834228515625
1663862555816343300,1.51134326171875,-0.64593505859375,-0.501495361328125,1.4812774658203125
1663862555826231000,1.52123095703125,-0.80572509765625,-0.1659393310546875,0.830413818359375
1663862555836118800,1.531118896484375,-1.0848236083984375,0.0172882080078125,0.44903564453125
1663862555846006300,1.54100634765625,-1.422515869140625,0.0950469970703125,0.4916534423828125
1663862555855894000,1.55089404296875,-1.7207794189453125,0.1334075927734375,0.7196197509765625
1663862555865781800,1.56078173828125,-1.7080078125,0.1099700927734375,0.8208160400390625
1663862555875639000,1.57063916015625,-0.7790985107421875,-0.078582763671875,0.6972503662109375
1663862555885526500,1.580526611328125,0.393768310546875,-0.9510345458984375,0.85064697265625
1663862555895414300,1.590414306640625,0.8859100341796875,-1.7340087890625,0.72601318359375
1663862555905302000,1.600302001953125,1.1948394775390625,-1.641326904296875,0.3798065185546875
1663862555915189800,1.610189697265625,1.7562408447265625,-1.4730224609375,0.1262664794921875
1663862555925047000,1.620047119140625,2.3836822509765625,-1.9225616455078125,-0.06121826171875
1663862555934934500,1.6299345703125,3.1581268310546875,-3.0602569580078125,-0.175201416015625
1663862555944822300,1.639822265625,4.2766571044921875,-3.775054931640625,-0.219940185546875
1663862555954679600,1.649679443359375,5.39837646484375,-3.4139251708984375,-0.2359161376953125
1663862555964567300,1.6595673828125,5.8820037841796875,-3.067718505859375,-0.325408935546875
1663862555974454800,1.669454833984375,5.9171600341796875,-2.10791015625,-0.0558929443359375
1663862555984342500,1.679342529296875,6.1344757080078125,0.156829833984375,0.304168701171875
1663862555994199800,1.68919970703125,6.0567169189453125,0.8694915771484375,0.1955108642578125
1663862556004087600,1.699087646484375,5.719024658203125,-0.27459716796875,-0.1027679443359375
1663862556013975000,1.70897509765625,5.77655029296875,-0.4876556396484375,-0.450042724609375
1663862556023862800,1.71886279296875,6.026885986328125,0.46575927734375,-0.4436492919921875
1663862556033750500,1.72875048828125,5.549652099609375,0.9834747314453125,0.061279296875
1663862556043638300,1.73863818359375,4.1157989501953125,0.205841064453125,0.47674560546875
1663862556053526000,1.748526123046875,1.7903289794921875,-1.0319976806640625,0.63653564453125
1663862556063413500,1.75841357421875,-0.4350128173828125,-1.50604248046875,0.7281341552734375
1663862556073301200,1.76830126953125,-0.419036865234375,-1.0916595458984375,0.98699951171875
1663862556083158500,1.778158447265625,0.2978973388671875,-0.9883270263671875,1.011505126953125
1663862556093046300,1.78804638671875,0.3223876953125,-1.1353302001953125,0.828277587890625
1663862556102933800,1.797933837890625,0.2478179931640625,-0.750762939453125,0.665283203125
1663862556112821500,1.807821533203125,0.241424560546875,-0.184051513671875,0.510833740234375
1663862556122709200,1.817709228515625,0.2169342041015625,-0.093505859375,0.4128265380859375
1663862556132597000,1.827596923828125,0.2254486083984375,-0.3619537353515625,0.414947509765625
1663862556142454000,1.8374541015625,0.2840423583984375,-0.7113494873046875,0.4671478271484375
1663862556152341800,1.847341796875,0.3096160888671875,-0.8817901611328125,0.487396240234375
1663862556162229500,1.8572294921875,0.1934967041015625,-0.6421051025390625,0.2413177490234375
1663862556172117200,1.8671171875,0.0358428955078125,0.090789794921875,-0.13897705078125
1663862556182005000,1.8770048828125,0.083770751953125,0.5051727294921875,-0.3712158203125
1663862556191862000,1.886862060546875,0.2041473388671875,0.490264892578125,-0.4692230224609375
1663862556201749800,1.896749755859375,0.1604766845703125,0.5882720947265625,-0.539520263671875
1663862556211637500,1.906637451171875,-0.0216827392578125,0.8055877685546875,-0.62261962890625
1663862556221525200,1.916525146484375,-0.2858734130859375,0.9387359619140625,-0.65350341796875
1663862556231413000,1.9264130859375,-0.395599365234375,1.04632568359375,-0.5384521484375
1663862556241270000,1.93627001953125,-0.29119873046875,1.00372314453125,-0.372283935546875
1663862556251157800,1.94615771484375,0.0315704345703125,0.5999908447265625,-0.1368560791015625
1663862556261045500,1.95604541015625,0.629180908203125,0.013031005859375,0.19976806640625
1663862556270933200,1.965933349609375,1.3471832275390625,-0.663421630859375,0.362762451171875
1663862556280820700,1.97582080078125,1.8265380859375,-1.0341339111328125,0.179534912109375
1663862556290708500,1.98570849609375,2.090728759765625,-0.96807861328125,0.02081298828125
1663862556300565800,1.995565673828125,2.24945068359375,-1.28021240234375,-0.1368560791015625
1663862556310453500,2.00545361328125,2.434814453125,-1.7957916259765625,-0.38079833984375
1663862556320341000,2.015341064453125,2.2771453857421875,-2.5009918212890625,-0.553375244140625
1663862556330228700,2.025228759765625,2.162109375,-4.095703125,-0.9113006591796875
1663862556340116500,2.035116455078125,1.9607696533203125,-5.347381591796875,-0.6982421875
1663862556349973800,2.044973876953125,2.100311279296875,-4.0307159423828125,0.7302703857421875
1663862556359861200,2.054861328125,2.59246826171875,-2.7353515625,1.272491455078125
1663862556369749000,2.0647490234375,3.0420074462890625,-2.157989501953125,0.841064453125
1663862556379636700,2.07463671875,3.411651611328125,-1.7840728759765625,0.1614227294921875
1663862556389524500,2.0845244140625,3.3168487548828125,-1.610443115234375,0.1017608642578125
1663862556399412200,2.094412109375,2.959991455078125,-1.8639678955078125,0.4564971923828125
1663862556409269200,2.104269287109375,2.4603729248046875,-1.62109375,0.3659515380859375
1663862556419157000,2.114156982421875,2.0523834228515625,-1.013885498046875,0.46502685546875
1663862556429044700,2.124044677734375,1.6944580078125,-0.9041748046875,1.0860748291015625
1663862556438932500,2.133932373046875,1.260894775390625,-1.0565032958984375,1.502593994140625
1663862556448820200,2.1438203125,0.69097900390625,-1.004302978515625,1.72735595703125
1663862556458677200,2.15367724609375,0.1444854736328125,-1.1768798828125,2.0298919677734375
1663862556468534500,2.163534423828125,0.0795135498046875,-1.64453125,2.1438751220703125
1663862556478391600,2.1733916015625,1.4835357666015625,-2.08660888671875,1.773162841796875
1663862556488279300,2.183279296875,3.3765106201171875,-1.5667572021484375,1.4354705810546875
1663862556498167000,2.1931669921875,2.981292724609375,-1.126800537109375,1.375823974609375
1663862556508085200,2.203085205078125,1.6294708251953125,-0.7688751220703125,1.3342742919921875
1663862556517973000,2.212972900390625,1.1980438232421875,-0.299102783203125,0.939056396484375
1663862556527830000,2.222830078125,1.244903564453125,-0.3576812744140625,0.6269378662109375
1663862556537687300,2.232687255859375,1.0851287841796875,-0.5430450439453125,0.6290740966796875
1663862556547575000,2.242574951171875,0.6238555908203125,-0.2724609375,0.5385284423828125
1663862556557462800,2.252462890625,0.1370391845703125,-0.0658111572265625,0.3148193359375
1663862556567319800,2.26231982421875,0.050750732421875,-0.4013671875,0.1731414794921875
1663862556577238000,2.272238037109375,0.05181884765625,-0.7220001220703125,-0.0228729248046875
1663862556587125800,2.282125732421875,-0.1271514892578125,-0.491912841796875,-0.189056396484375
1663862556596983000,2.291983154296875,-0.36895751953125,-0.1094818115234375,-0.2774658203125
1663862556606870500,2.30187060546875,-0.553253173828125,0.1302032470703125,-0.3296661376953125
1663862556616758300,2.31175830078125,-0.667236328125,0.2569732666015625,-0.4191436767578125
1663862556626646000,2.32164599609375,-0.7631072998046875,0.3123626708984375,-0.507568359375
1663862556636533800,2.33153369140625,-0.8589935302734375,0.3496551513671875,-0.5491180419921875
1663862556646390800,2.341390869140625,-0.851531982421875,0.377349853515625,-0.5384521484375
1663862556656309200,2.351309326171875,-0.6395416259765625,0.38800048828125,-0.29132080078125
1663862556666196700,2.36119677734375,-0.1367340087890625,0.8151702880859375,0.407501220703125
1663862556676084500,2.37108447265625,0.1562042236328125,0.958984375,0.7984466552734375
1663862556685972200,2.38097216796875,0.253143310546875,0.8961334228515625,0.5012359619140625
1663862556695860000,2.39085986328125,0.253143310546875,0.537139892578125,0.0708770751953125
1663862556705747700,2.400747802734375,0.1711273193359375,0.135528564453125,-0.2391204833984375
1663862556715635200,2.41063525390625,-0.0121002197265625,-0.1073455810546875,-0.4340667724609375
1663862556725492500,2.420492431640625,-0.153778076171875,-0.374725341796875,-0.3765411376953125
1663862556735380200,2.430380126953125,-0.1409912109375,-0.673004150390625,-0.1485748291015625
1663862556745268000,2.44026806640625,-0.175079345703125,-0.90203857421875,0.0815277099609375
1663862556755155500,2.450155517578125,-0.2581787109375,-0.980865478515625,0.222137451171875
1663862556765043200,2.460043212890625,-0.3071746826171875,-0.983001708984375,0.243438720703125
1663862556774900500,2.469900390625,-0.280548095703125,-0.92547607421875,0.15289306640625
1663862556784788200,2.479788330078125,-0.17828369140625,-0.8455810546875,0.0453033447265625
1663862556794645200,2.489645263671875,-0.098388671875,-0.557952880859375,-0.0878448486328125
1663862556804533000,2.499532958984375,-0.11224365234375,-0.2927093505859375,-0.140045166015625
1663862556814420700,2.509420654296875,-0.121826171875,-0.16912841796875,-0.1016998291015625
1663862556824308500,2.51930859375,-0.0781402587890625,-0.1531524658203125,-0.038848876953125
1663862556834196000,2.529196044921875,-0.028076171875,-0.090301513671875,0.0453033447265625
1663862556844083700,2.539083740234375,-0.01849365234375,0.0535125732421875,0.0943145751953125
1663862556853971500,2.548971435546875,-0.0131683349609375,0.13873291015625,0.0932464599609375
1663862556863859200,2.558859130859375,-0.0110321044921875,0.147247314453125,0.061279296875
1663862556873747000,2.568746826171875,0.006011962890625,0.0833282470703125,0.0133514404296875
1663862556883604000,2.57860400390625,0.0028076171875,0.001312255859375,-0.0516357421875
1663862556893491700,2.58849169921875,-0.0238189697265625,-0.070068359375,-0.10809326171875
1663862556903379500,2.59837939453125,-0.06536865234375,-0.1329193115234375,-0.15069580078125
1663862556913267200,2.60826708984375,-0.10052490234375,-0.2128143310546875,-0.196502685546875
1663862556923155000,2.618155029296875,-0.1282196044921875,-0.261810302734375,-0.2391204833984375
1663862556933042400,2.62804248046875,-0.145263671875,-0.2490234375,-0.268951416015625
1663862556942899700,2.637899658203125,-0.142059326171875,-0.2117462158203125,-0.299835205078125
1663862556952787500,2.647787353515625,-0.1388702392578125,-0.151031494140625,-0.3754730224609375
1663862556962675200,2.65767529296875,-0.156982421875,-0.0849761962890625,-0.4883880615234375
1663862556972562700,2.667562744140625,-0.1878662109375,-0.033843994140625,-0.6258087158203125
1663862556982450400,2.677450439453125,-0.224090576171875,-0.002960205078125,-0.7515106201171875
1663862556992307700,2.6873076171875,-0.259246826171875,-0.010406494140625,-0.847381591796875
1663862557002195500,2.697195556640625,-0.278411865234375,-0.0626068115234375,-0.938995361328125
1663862557012083000,2.7070830078125,-0.2954559326171875,-0.092437744140625,-1.021026611328125
1663862557021970700,2.716970703125,-0.3220977783203125,-0.069000244140625,-1.10198974609375
1663862557031858400,2.7268583984375,-0.327423095703125,-0.03704833984375,-1.1872100830078125
1663862557041715700,2.7367158203125,-0.2848052978515625,-0.0519561767578125,-1.2415313720703125
1663862557051603200,2.746603271484375,-0.226226806640625,-0.0998992919921875,-1.2063751220703125
1663862557061491000,2.756490966796875,-0.1931915283203125,-0.1307830810546875,-1.136077880859375
1663862557071378700,2.766378662109375,-0.214508056640625,-0.1116180419921875,-1.064697265625
1663862557081266400,2.776266357421875,-0.292266845703125,-0.071136474609375,-0.9635009765625
1663862557091154200,2.786154296875,-0.3892059326171875,-0.116943359375,-0.894256591796875
1663862557101011200,2.79601123046875,-0.4595184326171875,-0.2532958984375,-0.950714111328125
1663862557110899000,2.80589892578125,-0.4701690673828125,-0.44610595703125,-1.143524169921875
1663862557120786700,2.81578662109375,-0.4137115478515625,-0.5899200439453125,-1.338470458984375
1663862557130674400,2.82567431640625,-0.3359375,-0.5441131591796875,-1.3352813720703125
1663862557140562200,2.835562255859375,-0.270965576171875,-0.3502349853515625,-1.157379150390625
1663862557150419200,2.845419189453125,-0.2400665283203125,-0.1435699462890625,-0.9816131591796875
1663862557160307000,2.855306884765625,-0.224090576171875,-0.022125244140625,-0.9432525634765625
1663862557170194700,2.865194580078125,-0.1761474609375,-0.00189208984375,-1.0146331787109375
1663862557180082400,2.87508251953125,-0.086669921875,-0.0615386962890625,-1.13287353515625
1663862557189970000,2.884969970703125,0.0305023193359375,-0.04449462890625,-1.2191619873046875
1663862557199857700,2.894857666015625,0.1466217041015625,0.0417938232421875,-1.2330169677734375
1663862557209715000,2.90471484375,0.25634765625,0.0726776123046875,-1.227691650390625
1663862557219602700,2.914602783203125,0.3543548583984375,0.1365966796875,-1.30438232421875
1663862557229459700,2.924459716796875,0.4534149169921875,0.156829833984375,-1.576019287109375
1663862557239347500,2.934347412109375,0.563140869140625,0.0833282470703125,-2.0724334716796875
1663862557249235200,2.944235107421875,0.6813812255859375,-0.047698974609375,-2.7595367431640625
1663862557259123000,2.954123046875,0.7708740234375,-0.18084716796875,-3.4104156494140625
1663862557269010400,2.964010498046875,0.791107177734375,-0.3118743896484375,-3.7385101318359375
1663862557278867700,2.97386767578125,0.725067138671875,-0.5888519287109375,-3.77685546875
1663862557288755500,2.98375537109375,0.6057586669921875,-1.0639495849609375,-3.791778564453125
1663862557298643200,2.993643310546875,0.5098724365234375,-1.5923309326171875,-3.8397064208984375
1663862557308530700,3.00353076171875,0.471527099609375,-2.02056884765625,-3.801361083984375
1663862557318418400,3.01341845703125,0.485382080078125,-2.29327392578125,-3.6277313232421875
1663862557328306200,3.02330615234375,0.506683349609375,-2.33587646484375,-3.3315887451171875
1663862557338194000,3.03319384765625,0.51947021484375,-2.1824798583984375,-2.945953369140625
1663862557348081700,3.04308154296875,0.574859619140625,-1.8767547607421875,-2.4985504150390625
1663862557357969200,3.05296923828125,0.6057586669921875,-1.474090576171875,-2.0042572021484375
1663862557367826400,3.062826416015625,0.44915771484375,-0.93292236328125,-1.5323486328125
1663862557377683700,3.07268359375,0.1381072998046875,-0.511077880859375,-1.1179656982421875
1663862557387571500,3.082571533203125,-0.0451202392578125,-0.5078887939453125,-0.8037109375
1663862557397428500,3.092428466796875,0.003875732421875,-0.6655426025390625,-0.5480499267578125
1663862557407346700,3.1023466796875,0.0965576171875,-0.5760650634765625,-0.264678955078125
1663862557417204000,3.112203857421875,0.1082763671875,-0.18511962890625,0.0335845947265625
1663862557427091700,3.122091796875,0.11785888671875,0.2335357666015625,0.31695556640625
1663862557436979200,3.131979248046875,0.189239501953125,0.50091552734375,0.576873779296875
1663862557446867000,3.141866943359375,0.3096160888671875,0.61383056640625,0.795257568359375
1663862557456724200,3.15172412109375,0.40655517578125,0.640472412109375,0.99658203125
1663862557466612000,3.161612060546875,0.450225830078125,0.674560546875,1.202178955078125
1663862557476499500,3.17149951171875,0.471527099609375,0.78533935546875,1.4152374267578125
1663862557486356700,3.181356689453125,0.481109619140625,0.969635009765625,1.6304168701171875
1663862557496244500,3.191244384765625,0.470458984375,1.1922760009765625,1.829620361328125
1663862557506132200,3.20113232421875,0.4566192626953125,1.4149169921875,2.0085906982421875
1663862557516019700,3.211019775390625,0.4864349365234375,1.6364898681640625,2.160919189453125
1663862557525907500,3.220907470703125,0.5780487060546875,1.8303680419921875,2.285552978515625
1663862557535795200,3.230795166015625,0.7357177734375,1.9539337158203125,2.3835601806640625
1663862557545683000,3.240682861328125,0.94024658203125,1.9997406005859375,2.47198486328125
1663862557555570700,3.25057080078125,1.133056640625,1.9986724853515625,2.58489990234375
1663862557565458200,3.260458251953125,1.2619476318359375,1.984832763671875,2.70953369140625
1663862557575315500,3.2703154296875,1.3322601318359375,1.9198455810546875,2.7734527587890625
1663862557585203200,3.280203125,1.3876495361328125,1.7632598876953125,2.729766845703125
1663862557595091000,3.290091064453125,1.4558258056640625,1.5938720703125,2.6349639892578125
1663862557604948000,3.299947998046875,1.4835357666015625,1.5906829833984375,2.539093017578125
1663862557614835700,3.309835693359375,1.3514404296875,1.8655242919921875,2.4634552001953125
1663862557624723500,3.319723388671875,1.0457000732421875,2.3544769287109375,2.3516082763671875
1663862557634611200,3.329611083984375,0.6728668212890625,2.795501708984375,2.182220458984375
1663862557644499000,3.3394990234375,0.2989501953125,3.1182708740234375,1.9606475830078125
1663862557654356000,3.34935595703125,0.0347747802734375,3.2652740478515625,1.6474609375
1663862557664243700,3.35924365234375,-0.0941314697265625,3.2759246826171875,1.3907318115234375
1663862557674131500,3.36913134765625,-0.132476806640625,3.206695556640625,1.2884674072265625
1663862557684019200,3.379019287109375,-0.0930633544921875,3.0937652587890625,1.2884674072265625
1663862557693906700,3.38890673828125,0.0006866455078125,2.9148101806640625,1.274627685546875
1663862557703794400,3.39879443359375,0.085906982421875,2.619720458984375,1.194732666015625
1663862557713651700,3.408651611328125,0.1125335693359375,2.212799072265625,1.0509185791015625
1663862557723539500,3.41853955078125,0.1008148193359375,1.8527374267578125,0.8932647705078125
1663862557733427000,3.428427001953125,0.1199951171875,1.7952117919921875,0.7867279052734375
1663862557743314700,3.438314697265625,0.1689910888671875,2.0892333984375,0.7409210205078125
1663862557753172000,3.448171875,0.22119140625,2.544097900390625,0.722808837890625
1663862557763059700,3.458059814453125,0.28936767578125,2.941436767578125,0.6972503662109375
1663862557772947200,3.467947265625,0.3863067626953125,3.1512908935546875,0.6748809814453125
1663862557782835000,3.4778349609375,0.508819580078125,3.112945556640625,0.701507568359375
1663862557792722700,3.48772265625,0.6132049560546875,2.8082733154296875,0.7782135009765625
1663862557802610400,3.4976103515625,0.689910888671875,2.40667724609375,0.8346710205078125
1663862557812498200,3.507498291015625,0.736785888671875,2.11053466796875,0.8346710205078125
1663862557822385700,3.5173857421875,0.7378387451171875,1.9337005615234375,0.814422607421875
1663862557832273400,3.5272734375,0.7048187255859375,1.76751708984375,0.8218841552734375
1663862557842161200,3.5371611328125,0.6462249755859375,1.50439453125,0.8485107421875
1663862557852049000,3.547048828125,0.5237274169921875,1.1315460205078125,0.76861572265625
1663862557861906000,3.556906005859375,0.3085479736328125,0.7235565185546875,0.4479827880859375
1663862557871763200,3.56676318359375,0.0645904541015625,0.4156951904296875,-0.0335235595703125
1663862557881651000,3.57665087890625,-0.1495208740234375,0.4849395751953125,-0.485198974609375
1663862557891538700,3.58653857421875,-0.38067626953125,0.727813720703125,-0.7387237548828125
1663862557901426400,3.596426513671875,-0.6501922607421875,0.811981201171875,-0.7451171875
1663862557911283500,3.606283447265625,-0.7780303955078125,0.75445556640625,-0.5672149658203125
1663862557921171200,3.616171142578125,-0.5117034912109375,0.7949371337890625,-0.3626861572265625
1663862557931059000,3.626058837890625,-0.0600433349609375,0.6351470947265625,-0.219940185546875
1663862557940946700,3.63594677734375,0.253143310546875,0.19091796875,-0.060150146484375
1663862557950834200,3.645834228515625,0.470458984375,0.011962890625,0.0133514404296875
1663862557960691500,3.65569140625,0.633453369140625,0.1280670166015625,-0.264678955078125
1663862557970579200,3.6655791015625,0.55035400390625,0.2910614013671875,-0.699310302734375
1663862557980436200,3.675436279296875,0.187103271484375,0.683074951171875,-0.5906524658203125
1663862557990324000,3.685323974609375,-0.039794921875,0.9270172119140625,-0.0558929443359375
1663862558000211700,3.695211669921875,0.081634521484375,0.5999908447265625,0.1837921142578125
1663862558010099500,3.705099365234375,0.1796417236328125,0.544586181640625,0.2604827880859375
1663862558019987200,3.7149873046875,0.1263885498046875,1.1443328857421875,0.5811309814453125
1663862558029874700,3.724874755859375,-0.05364990234375,1.7291717529296875,0.9582366943359375
1663862558039762400,3.734762451171875,-0.2635040283203125,1.848480224609375,1.17236328125
1663862558049650200,3.744650146484375,-0.41796875,1.5693817138671875,1.3001861572265625
1663862558059507500,3.754507568359375,-0.498931884765625,1.1091766357421875,1.363037109375
1663862558069395000,3.76439501953125,-0.5031890869140625,0.7139739990234375,1.307647705078125
1663862558079282700,3.77428271484375,-0.4211578369140625,0.4796142578125,1.1894073486328125
1663862558089140000,3.784139892578125,-0.24432373046875,0.35284423828125,1.05731201171875
1663862558099058200,3.79405810546875,-0.0206298828125,0.2878570556640625,0.919891357421875
1663862558108946000,3.80394580078125,0.17431640625,0.27294921875,0.782470703125
1663862558118833700,3.813833740234375,0.3191986083984375,0.3368682861328125,0.64398193359375
1663862558128721200,3.82372119140625,0.4076080322265625,0.4934539794921875,0.520416259765625
1663862558138578400,3.833578369140625,0.44915771484375,0.732086181640625,0.4021759033203125
1663862558148466200,3.843466064453125,0.4566192626953125,0.9898681640625,0.266876220703125
1663862558158384400,3.85338427734375,0.450225830078125,1.218902587890625,0.1156158447265625
1663862558168272100,3.863272216796875,0.44915771484375,1.404266357421875,-0.0132904052734375
1663862558178159600,3.87315966796875,0.4299774169921875,1.4884185791015625,-0.10809326171875
1663862558188047400,3.88304736328125,0.35968017578125,1.4308929443359375,-0.2146148681640625
1663862558197935000,3.89293505859375,0.24249267578125,1.2508697509765625,-0.370147705078125
1663862558207792400,3.90279248046875,0.0784454345703125,0.95684814453125,-0.5587005615234375
1663862558217649400,3.9126494140625,-0.1260833740234375,0.56695556640625,-0.7397918701171875
1663862558227537200,3.922537109375,-0.3433990478515625,0.180267333984375,-0.880401611328125
1663862558237394400,3.93239453125,-0.5234222412109375,-0.0977630615234375,-1.006103515625
1663862558247312600,3.942312744140625,-0.6193084716796875,-0.2958984375,-1.1541748046875
1663862558257169700,3.952169677734375,-0.611846923828125,-0.5078887939453125,-1.328887939453125
1663862558267088000,3.962087890625,-0.541534423828125,-0.698577880859375,-1.4503173828125
1663862558276945200,3.971945068359375,-0.4573822021484375,-0.8594207763671875,-1.51104736328125
1663862558286802200,3.98180224609375,-0.3764190673828125,-1.0330657958984375,-1.615447998046875
1663862558296690000,3.99168994140625,-0.30291748046875,-1.197113037109375,-1.683624267578125
1663862558306577700,4.00157763671875,-0.2581787109375,-1.128936767578125,-1.5632476806640625
1663862558316465400,4.01146533203125,-0.2422027587890625,-0.7795257568359375,-1.2756195068359375
1663862558326353200,4.021353271484375,-0.214508056640625,-0.5078887939453125,-1.0465850830078125
1663862558336240600,4.03124072265625,-0.17828369140625,-0.51641845703125,-1.0029144287109375
1663862558346098000,4.041097900390625,-0.156982421875,-0.6570281982421875,-1.052978515625
1663862558356016000,4.05101611328125,-0.1516571044921875,-0.7017669677734375,-1.0923919677734375
1663862558365904000,4.06090380859375,-0.1601715087890625,-0.6229400634765625,-1.1509857177734375
1663862558375791600,4.07079150390625,-0.168701171875,-0.4865875244140625,-1.307586669921875
1663862558385679400,4.080679443359375,-0.1527099609375,-0.34063720703125,-1.55792236328125
1663862558395536400,4.090536376953125,-0.0717620849609375,-0.1829833984375,-1.8444671630859375
1663862558405424000,4.100424072265625,0.0731201171875,-0.127593994140625,-2.23968505859375
1663862558415281400,4.110281494140625,0.25634765625,-0.170196533203125,-2.833038330078125
1663862558425199600,4.12019970703125,0.4992218017578125,-0.1403656005859375,-3.4668731689453125
1663862558435087000,4.130087158203125,0.824127197265625,-0.1222686767578125,-3.9909820556640625
1663862558444974800,4.139974853515625,1.190582275390625,-0.219207763671875,-4.280731201171875
1663862558454862600,4.149862548828125,1.51123046875,-0.5632781982421875,-4.337188720703125
1663862558464720000,4.159719970703125,1.6987152099609375,-0.9553070068359375,-4.3339996337890625
1663862558474577000,4.169576904296875,1.8265380859375,-0.8296051025390625,-4.3201446533203125
1663862558484464600,4.179464599609375,1.897918701171875,-0.4716644287109375,-4.18804931640625
1663862558494352400,4.189352294921875,1.872344970703125,-0.3779296875,-3.8737945556640625
1663862558504240000,4.199240234375,1.7892608642578125,-0.581390380859375,-3.460479736328125
1663862558514127600,4.209127685546875,1.6294708251953125,-0.91162109375,-3.0301055908203125
1663862558524015400,4.219015380859375,1.4217376708984375,-1.1118927001953125,-2.548614501953125
1663862558533872600,4.22887255859375,1.2310638427734375,-0.94464111328125,-2.03302001953125
1663862558543760400,4.238760498046875,1.1042938232421875,-0.5078887939453125,-1.5472564697265625
1663862558553647900,4.24864794921875,0.9924468994140625,-0.137176513671875,-1.1147613525390625
1663862558563535600,4.25853564453125,0.8763275146484375,-0.0285186767578125,-0.73553466796875
1663862558573393000,4.268392822265625,0.7783203125,-0.1073455810546875,-0.35736083984375
1663862558583280600,4.27828076171875,0.711212158203125,-0.069000244140625,0.0250701904296875
1663862558593168100,4.288168212890625,0.6462249755859375,0.182403564453125,0.3531646728515625
1663862558603055900,4.298055908203125,0.5950927734375,0.5168914794921875,0.6152191162109375
1663862558612943600,4.307943603515625,0.5780487060546875,0.7938690185546875,0.85064697265625
1663862558622831400,4.317831298828125,0.587646484375,0.982421875,1.08819580078125
1663862558632688600,4.327688720703125,0.5929718017578125,1.09320068359375,1.3459930419921875
1663862558642576100,4.337576171875,0.5567474365234375,1.1315460205078125,1.6208343505859375
1663862558652463900,4.3474638671875,0.4800567626953125,1.094268798828125,1.8914031982421875
1663862558662351600,4.3573515625,0.3756561279296875,1.012237548828125,2.12896728515625
1663862558672209000,4.367208984375,0.2723236083984375,0.9312896728515625,2.32177734375
1663862558682096400,4.377096435546875,0.20733642578125,0.9057159423828125,2.4698486328125
1663862558691984100,4.386984130859375,0.2137298583984375,0.9951934814453125,2.5880889892578125
1663862558701871900,4.396871826171875,0.280853271484375,1.1422119140625,2.7137908935546875
1663862558711729200,4.406729248046875,0.3852386474609375,1.300933837890625,2.8416290283203125
1663862558721647400,4.4166474609375,0.494964599609375,1.528900146484375,2.9449615478515625
1663862558731504400,4.42650439453125,0.5950927734375,1.8399505615234375,3.0120697021484375
1663862558741392100,4.43639208984375,0.6835174560546875,2.1169281005859375,3.0216522216796875
1663862558751310300,4.446310302734375,0.7602081298828125,2.30548095703125,2.9769134521484375
1663862558761167600,4.456167724609375,0.8081512451171875,2.3970947265625,2.9311065673828125
1663862558771024600,4.466024658203125,0.837982177734375,2.4002838134765625,2.893829345703125
1663862558780912400,4.475912353515625,0.8411712646484375,2.360870361328125,2.821380615234375
1663862558790830600,4.48583056640625,0.7964324951171875,2.28948974609375,2.638153076171875
1663862558800718300,4.49571826171875,0.6504974365234375,2.234100341796875,2.3388214111328125
1663862558810606000,4.505606201171875,0.391632080078125,2.1595306396484375,1.978759765625
1663862558820493600,4.51549365234375,0.0923004150390625,1.9667205810546875,1.6080474853515625
1663862558830381300,4.52538134765625,-0.1931915283203125,1.653533935546875,1.282073974609375
1663862558840269000,4.53526904296875,-0.3572540283203125,1.3403472900390625,1.0637054443359375
1663862558850126300,4.545126220703125,-0.3423309326171875,1.2029266357421875,0.974212646484375
1663862558859983400,4.5549833984375,-0.2272796630859375,1.207183837890625,0.9806060791015625
1663862558869840600,4.564840576171875,-0.0919952392578125,1.275360107421875,1.023223876953125
1663862558879758800,4.5747587890625,0.017730712890625,1.333953857421875,1.05731201171875
1663862558889646600,4.584646484375,0.0923004150390625,1.343536376953125,1.0637054443359375
1663862558899534300,4.594534423828125,0.1455535888671875,1.333953857421875,1.0370635986328125
1663862558909421800,4.604421875,0.21905517578125,1.4031982421875,0.9806060791015625
1663862558919309600,4.6143095703125,0.3085479736328125,1.585357666015625,0.9273529052734375
1663862558929197300,4.624197265625,0.3756561279296875,1.768585205078125,0.9134979248046875
1663862558939085000,4.6340849609375,0.4321136474609375,1.7834930419921875,0.896453857421875
1663862558948972800,4.643972900390625,0.471527099609375,1.6034698486328125,0.8133697509765625
1663862558958860300,4.6538603515625,0.5365142822265625,1.2742919921875,0.6620941162109375
1663862558968717600,4.663717529296875,0.6419677734375,0.77362060546875,0.3659515380859375
1663862558978605300,4.673605224609375,0.6270599365234375,0.2228851318359375,-0.212493896484375
1663862558988493000,4.6834931640625,0.39483642578125,-0.04449462890625,-0.8857269287109375
1663862558998380500,4.693380615234375,0.0688629150390625,0.285736083984375,-1.181884765625
1663862559008268300,4.703268310546875,-0.146331787109375,0.9749603271484375,-1.13287353515625
1663862559018125600,4.71312548828125,-0.268829345703125,1.5533905029296875,-1.077484130859375
1663862559028013300,4.723013427734375,-0.2230224609375,1.5906829833984375,-1.100921630859375
1663862559037900800,4.73290087890625,0.132781982421875,1.0442047119140625,-1.291595458984375
1663862559047788500,4.74278857421875,0.6281280517578125,0.19305419921875,-1.7123870849609375
1663862559057676300,4.75267626953125,0.83905029296875,-0.181915283203125,-1.9733734130859375
1663862559067533600,4.762533447265625,0.709075927734375,0.532867431640625,-1.5866851806640625
1663862559077421000,4.772421142578125,0.6387786865234375,1.411712646484375,-0.9251556396484375
1663862559087278300,4.7822783203125,0.6963043212890625,1.4532623291015625,-0.6279449462890625
1663862559097166000,4.792166015625,0.8081512451171875,1.4383544921875,-0.426605224609375
1663862559107023400,4.8020234375,0.8060150146484375,1.812255859375,0.031463623046875
1663862559116941600,4.811941650390625,0.552490234375,2.086029052734375,0.41815185546875
1663862559126829000,4.8218291015625,0.17645263671875,1.9688568115234375,0.590728759765625
1663862559136686300,4.831686279296875,-0.06536865234375,1.4884185791015625,0.6503753662109375
1663862559146574000,4.841573974609375,-0.142059326171875,0.9387359619140625,0.63653564453125
1663862559156461800,4.8514619140625,-0.2187652587890625,0.5776214599609375,0.59710693359375
1663862559166349300,4.861349365234375,-0.3103790283203125,0.398651123046875,0.6067047119140625
1663862559176206600,4.87120654296875,-0.381744384765625,0.3240814208984375,0.715362548828125
1663862559186094300,4.88109423828125,-0.3860015869140625,0.1515045166015625,0.8336029052734375
1663862559195982000,4.890982177734375,-0.280548095703125,-0.2319793701171875,0.805908203125
1663862559205869600,4.90086962890625,-0.1250152587890625,-0.5856475830078125,0.65570068359375
1663862559215757300,4.91075732421875,0.0315704345703125,-0.65277099609375,0.565155029296875
1663862559225645000,4.92064501953125,0.163665771484375,-0.4397125244140625,0.588592529296875
1663862559235532800,4.93053271484375,0.24462890625,-0.0839080810546875,0.6461181640625
1663862559245420500,4.940420654296875,0.3074798583984375,0.250579833984375,0.670623779296875
1663862559255277600,4.950277587890625,0.379913330078125,0.377349853515625,0.6503753662109375
1663862559265134800,4.960134765625,0.4523468017578125,0.316619873046875,0.598175048828125
1663862559275053000,4.970052978515625,0.5013580322265625,0.2015838623046875,0.5246734619140625
1663862559284940800,4.97994091796875,0.5215911865234375,0.12701416015625,0.4319915771484375
1663862559294797800,4.9897978515625,0.5120086669921875,0.12701416015625,0.315887451171875
1663862559304685600,4.999685546875,0.4779205322265625,0.13446044921875,0.155029296875
1663862559314573300,5.0095732421875,0.4235992431640625,0.0950469970703125,-0.040985107421875
1663862559324461000,5.0194609375,0.3724517822265625,0.046051025390625,-0.184783935546875
1663862559334348800,5.029348876953125,0.3458251953125,0.001312255859375,-0.26788330078125
1663862559344236300,5.039236328125,0.3298492431640625,-0.0498199462890625,-0.33819580078125
1663862559354124000,5.0491240234375,0.302154541015625,-0.043426513671875,-0.39251708984375
1663862559364011800,5.05901171875,0.2606048583984375,-0.0519561767578125,-0.4329986572265625
1663862559373899500,5.0688994140625,0.222259521484375,-0.1297149658203125,-0.47454833984375
1663862559383787300,5.078787353515625,0.17431640625,-0.1787261962890625,-0.5022430419921875
1663862559393674800,5.0886748046875,0.0965576171875,-0.127593994140625,-0.45855712890625
1663862559403532000,5.098531982421875,0.0081329345703125,0.0045013427734375,-0.35736083984375
1663862559413389300,5.108389404296875,-0.0706939697265625,0.0268707275390625,-0.3009033203125
1663862559423276800,5.11827685546875,-0.1473846435546875,-0.181915283203125,-0.3275299072265625
1663862559433134000,5.128134033203125,-0.2507171630859375,-0.468475341796875,-0.402099609375
1663862559443021800,5.138021728515625,-0.372161865234375,-0.7337188720703125,-0.4990386962890625
1663862559452909600,5.14790966796875,-0.48828125,-0.9659576416015625,-0.58746337890625
1663862559462797000,5.157797119140625,-0.56390380859375,-1.0714111328125,-0.675872802734375
1663862559472684800,5.167684814453125,-0.597991943359375,-1.0714111328125,-0.7525787353515625
1663862559482572500,5.177572509765625,-0.6054534912109375,-1.0085601806640625,-0.7866668701171875
1663862559492460300,5.187460205078125,-0.6043853759765625,-0.8455810546875,-0.7919921875
1663862559502317300,5.1973173828125,-0.57562255859375,-0.697509765625,-0.8292694091796875
1663862559512205000,5.207205078125,-0.5042572021484375,-0.6421051025390625,-0.905975341796875
1663862559522092800,5.2170927734375,-0.4105072021484375,-0.6463775634765625,-0.9517822265625
1663862559531980500,5.22698046875,-0.2880096435546875,-0.6559600830078125,-0.9432525634765625
1663862559541868300,5.236868408203125,-0.13140869140625,-0.6133575439453125,-0.92620849609375
1663862559551725300,5.246725341796875,0.0379638671875,-0.5632781982421875,-0.9698944091796875
1663862559561613000,5.256613037109375,0.1956329345703125,-0.55902099609375,-1.1509857177734375
1663862559571500800,5.266500732421875,0.3437042236328125,-0.5558319091796875,-1.4705657958984375
1663862559581388500,5.276388427734375,0.470458984375,-0.538787841796875,-1.977630615234375
1663862559591245600,5.28624560546875,0.5365142822265625,-0.5771331787109375,-2.6700592041015625
1663862559601133300,5.29613330078125,0.5801849365234375,-0.80828857421875,-3.3177337646484375
1663862559611021000,5.30602099609375,0.6483612060546875,-1.231201171875,-3.7480926513671875
1663862559620878300,5.31587841796875,0.6888427734375,-1.6935272216796875,-4.0261383056640625
1663862559630765800,5.325765869140625,0.596160888671875,-1.98541259765625,-4.2413177490234375
1663862559640653600,5.335653564453125,0.428924560546875,-2.0035247802734375,-4.372344970703125
1663862559650541300,5.345541259765625,0.2946929931640625,-1.9087066650390625,-4.2849884033203125
1663862559660429000,5.355428955078125,0.18817138671875,-1.834136962890625,-3.9462432861328125
1663862559670316800,5.36531689453125,0.02838134765625,-1.711639404296875,-3.446624755859375
1663862559680204300,5.375204345703125,-0.1378021240234375,-1.4101715087890625,-2.901214599609375
1663862559690061600,5.3850615234375,-0.200653076171875,-0.9957733154296875,-2.490020751953125
1663862559699979800,5.394979736328125,-0.144195556640625,-0.66448974609375,-2.22796630859375
1663862559709837000,5.404837158203125,-0.03021240234375,-0.522796630859375,-1.7762908935546875
1663862559719755300,5.41475537109375,-0.016357421875,-0.4983062744140625,-1.2085113525390625
1663862559729612300,5.4246123046875,-0.099456787109375,-0.4748687744140625,-0.7738800048828125
1663862559739500000,5.4345,-0.191070556640625,-0.4631500244140625,-0.4106292724609375
1663862559749387800,5.4443876953125,-0.2741546630859375,-0.3821868896484375,-0.0420379638671875
1663862559759244800,5.454244873046875,-0.3402099609375,-0.18084716796875,0.32867431640625
1663862559769163000,5.4641630859375,-0.4137115478515625,0.079071044921875,0.6482391357421875
1663862559779050800,5.47405078125,-0.4840087890625,0.28253173828125,0.864501953125
1663862559788938500,5.4839384765625,-0.5351409912109375,0.3858642578125,0.9944610595703125
1663862559798826200,5.493826171875,-0.5841522216796875,0.41143798828125,1.112701416015625
1663862559808714000,5.5037138671875,-0.633148193359375,0.4369964599609375,1.2671661376953125
1663862559818601700,5.513601806640625,-0.682159423828125,0.548858642578125,1.4503936767578125
1663862559828458800,5.523458740234375,-0.7109222412109375,0.7352752685546875,1.6357421875
1663862559838316000,5.53331591796875,-0.7109222412109375,0.90997314453125,1.820037841796875
1663862559848173000,5.543173095703125,-0.6757659912109375,1.0069122314453125,2.0181732177734375
1663862559858060800,5.553060791015625,-0.5735015869140625,1.0324859619140625,2.2205810546875
1663862559867979000,5.56297900390625,-0.3913421630859375,1.028228759765625,2.3760986328125
1663862559877866800,5.57286669921875,-0.17828369140625,1.023956298828125,2.4623870849609375
1663862559887724000,5.58272412109375,0.0006866455078125,0.9728240966796875,2.5113983154296875
1663862559897581000,5.5925810546875,0.1444854736328125,0.833282470703125,2.5326995849609375
1663862559907499300,5.602499267578125,0.2744598388671875,0.674560546875,2.5422821044921875
1663862559917356500,5.6123564453125,0.368194580078125,0.572296142578125,2.5540008544921875
1663862559927274800,5.622274658203125,0.4161376953125,0.5648345947265625,2.5444183349609375
1663862559937162500,5.63216259765625,0.4097442626953125,0.6425933837890625,2.5007476806640625
1663862559947050000,5.642050048828125,0.3511505126953125,0.7342071533203125,2.4293670654296875
1663862559956907300,5.6519072265625,0.2382354736328125,0.76617431640625,2.332427978515625
1663862559966795000,5.661794921875,0.0731201171875,0.7874755859375,2.20672607421875
1663862559976682800,5.671682861328125,-0.1143646240234375,0.864166259765625,2.0789031982421875
1663862559986539800,5.681539794921875,-0.2816162109375,1.0175628662109375,1.9521331787109375
1663862559996397000,5.69139697265625,-0.403045654296875,1.2391510009765625,1.8253631591796875
1663862560006315300,5.701315185546875,-0.461639404296875,1.4426116943359375,1.704986572265625
1663862560016172300,5.71117236328125,-0.449920654296875,1.4894866943359375,1.615509033203125
1663862560026090500,5.721090576171875,-0.36895751953125,1.3446044921875,1.580352783203125
1663862560035947800,5.73094775390625,-0.2432708740234375,1.1006622314453125,1.59100341796875
1663862560045835500,5.74083544921875,-0.1154327392578125,0.8481903076171875,1.6240234375
1663862560055723300,5.75072314453125,-0.029144287109375,0.591461181640625,1.6538543701171875
1663862560065610800,5.76061083984375,0.017730712890625,0.363494873046875,1.671966552734375
1663862560075468000,5.770468017578125,0.0113372802734375,0.203704833984375,1.6570587158203125
1663862560085386200,5.78038623046875,-0.042999267578125,0.104644775390625,1.5622406005859375
1663862560095243500,5.790243408203125,-0.066436767578125,0.010894775390625,1.373687744140625
1663862560105131300,5.80013134765625,-0.0142364501953125,-0.0743255615234375,1.1531829833984375
1663862560115018800,5.810018798828125,0.09869384765625,-0.0658111572265625,0.98486328125
1663862560124906500,5.819906494140625,0.2180023193359375,0.1174163818359375,0.908172607421875
1663862560134794200,5.829794189453125,0.288299560546875,0.5541839599609375,0.9305419921875
1663862560144682000,5.839681884765625,0.290435791015625,1.016510009765625,0.962493896484375
1663862560154569700,5.84956982421875,0.2371673583984375,1.04632568359375,0.8016510009765625
1663862560164457200,5.859457275390625,0.1317138671875,0.38800048828125,0.304168701171875
1663862560174345000,5.869344970703125,0.0923004150390625,-0.374725341796875,-0.414886474609375
1663862560184232700,5.879232666015625,0.0358428955078125,-0.64849853515625,-0.894256591796875
1663862560194090000,5.889090087890625,-0.1409912109375,-0.3129425048828125,-0.9752197265625
1663862560203977500,5.8989775390625,-0.4477996826171875,0.45831298828125,-0.9251556396484375
1663862560213865200,5.908865234375,-0.6597747802734375,0.8631134033203125,-1.087066650390625
1663862560223753000,5.9187529296875,-0.419036865234375,0.5999908447265625,-1.484405517578125
1663862560233640700,5.928640625,0.1924285888671875,0.09185791015625,-1.7869415283203125
1663862560243528400,5.938528564453125,0.6302490234375,-0.238372802734375,-1.77203369140625
1663862560253385500,5.948385498046875,0.734649658203125,0.13446044921875,-1.336334228515625
1663862560263273200,5.958273193359375,0.678192138671875,0.7054443359375,-0.7387237548828125
1663862560273161000,5.968160888671875,0.6046905517578125,0.685211181640625,-0.3861236572265625
1663862560283048700,5.978048583984375,0.5695343017578125,0.4849395751953125,-0.17413330078125
1663862560292905700,5.98790576171875,0.4864349365234375,0.6894683837890625,0.1592864990234375
1663862560302793500,5.99779345703125,0.1828460693359375,1.047393798828125,0.486328125
1663862560312681200,6.00768115234375,-0.2528533935546875,0.9983978271484375,0.6535797119140625
1663862560322569000,6.01756884765625,-0.5351409912109375,0.4327392578125,0.6993865966796875
1663862560332456700,6.027456787109375,-0.642730712890625,-0.2000274658203125,0.609893798828125
1663862560342344200,6.03734423828125,-0.759918212890625,-0.615478515625,0.475677490234375
1663862560352232000,6.04723193359375,-0.8249053955078125,-0.7955169677734375,0.4245452880859375
1663862560362119700,6.05711962890625,-0.7290191650390625,-0.887115478515625,0.414947509765625
1663862560371977000,6.06697705078125,-0.5713653564453125,-0.9851226806640625,0.391510009765625
1663862560381864400,6.076864501953125,-0.46484375,-1.0213470458984375,0.392578125
1663862560391752200,6.086752197265625,-0.403045654296875,-0.9776763916015625,0.419219970703125
1663862560401640000,6.096639892578125,-0.3423309326171875,-0.867950439453125,0.4458465576171875
1663862560411497200,6.106497314453125,-0.2539215087890625,-0.7156219482421875,0.4362640380859375
1663862560421384700,6.116384765625,-0.1409912109375,-0.5409088134765625,0.3520965576171875
1663862560431272400,6.1262724609375,-0.0376739501953125,-0.353424072265625,0.214691162109375
1663862560441160200,6.13616015625,0.0358428955078125,-0.1638031005859375,0.1038970947265625
1663862560451048000,6.1460478515625,0.085906982421875,-0.034912109375,0.0122833251953125
1663862560460935700,6.155935791015625,0.0997467041015625,-0.1361083984375,-0.17413330078125
1663862560470792700,6.165792724609375,0.083770751953125,-0.4279937744140625,-0.3850555419921875
1663862560480650000,6.17564990234375,0.0763092041015625,-0.62933349609375,-0.51715087890625
1663862560490507000,6.185507080078125,0.0784454345703125,-0.5749969482421875,-0.565093994140625
1663862560500425200,6.19542529296875,0.093353271484375,-0.3480987548828125,-0.562957763671875
1663862560510282500,6.205282470703125,0.1242523193359375,-0.1190643310546875,-0.5672149658203125
1663862560520200700,6.21520068359375,0.151947021484375,0.0311279296875,-0.5895843505859375
1663862560530058000,6.22505810546875,0.15087890625,0.0417938232421875,-0.6290130615234375
1663862560539945500,6.234945556640625,0.1487579345703125,-0.1947021484375,-0.7216796875
1663862560549833200,6.244833251953125,0.1018829345703125,-0.603759765625,-0.79412841796875
1663862560559721000,6.254720947265625,0.006011962890625,-0.9190826416015625,-0.757904052734375
1663862560569578200,6.264578125,-0.099456787109375,-1.0660858154296875,-0.664154052734375
1663862560579466000,6.274466064453125,-0.1761474609375,-1.1342620849609375,-0.62261962890625
1663862560589323000,6.284322998046875,-0.1931915283203125,-1.13214111328125,-0.6716156005859375
1663862560599241200,6.2942412109375,-0.146331787109375,-0.967010498046875,-0.7568359375
1663862560609129000,6.30412890625,-0.027008056640625,-0.663421630859375,-0.8654937744140625
1663862560619016700,6.3140166015625,0.1434326171875,-0.4066925048828125,-0.9773406982421875
1663862560628904400,6.323904541015625,0.3074798583984375,-0.252227783203125,-0.9571075439453125
1663862560638792000,6.3337919921875,0.4182586669921875,-0.158477783203125,-0.8409881591796875
1663862560648679700,6.3436796875,0.458740234375,-0.0956268310546875,-0.87188720703125
1663862560658567400,6.3535673828125,0.4662017822265625,0.0503082275390625,-1.110504150390625
1663862560668455200,6.363455078125,0.4747314453125,0.2313995361328125,-1.568572998046875
1663862560678343000,6.373343017578125,0.47259521484375,0.240997314453125,-2.2141265869140625
1663862560688200000,6.383199951171875,0.5034942626953125,0.081207275390625,-2.9182586669921875
1663862560698087700,6.393087646484375,0.633453369140625,-0.2330474853515625,-3.4551544189453125
1663862560707975400,6.402975341796875,0.8198699951171875,-0.694305419921875,-3.7459716796875
1663862560717863200,6.41286328125,0.896575927734375,-1.1449127197265625,-3.90576171875
1663862560727750700,6.422750732421875,0.7996368408203125,-1.495391845703125,-4.0005645751953125
1663862560737608000,6.43260791015625,0.6281280517578125,-1.7340087890625,-3.975006103515625
1663862560747495700,6.44249560546875,0.50775146484375,-1.7840728759765625,-3.803497314453125
1663862560757383400,6.452383544921875,0.4651336669921875,-1.6839447021484375,-3.4988250732421875
1663862560767271000,6.46227099609375,0.4747314453125,-1.5561065673828125,-3.094024658203125
1663862560777158700,6.47215869140625,0.4907073974609375,-1.3313446044921875,-2.6082611083984375
1663862560787046400,6.48204638671875,0.481109619140625,-0.992584228515625,-2.160858154296875
1663862560796903700,6.491903564453125,0.450225830078125,-0.684722900390625,-1.8348846435546875
1663862560806760700,6.5017607421875,0.4683380126953125,-0.5100250244140625,-1.5259552001953125
1663862560816648400,6.5116484375,0.48431396484375,-0.3853759765625,-1.112640380859375
1663862560826536200,6.5215361328125,0.3202667236328125,-0.0530242919921875,-0.6140899658203125
1663862560836424000,6.531423828125,0.04754638671875,0.29638671875,-0.15283203125
1663862560846311700,6.541311767578125,-0.13140869140625,0.3943939208984375,0.2168121337890625
1663862560856168700,6.551168701171875,-0.22088623046875,0.4018402099609375,0.5353240966796875
1663862560866056400,6.561056396484375,-0.2880096435546875,0.499847412109375,0.8314666748046875
1663862560875944200,6.570944091796875,-0.315704345703125,0.61810302734375,1.100982666015625
1663862560885832000,6.58083203125,-0.31463623046875,0.6873321533203125,1.3332061767578125
1663862560895689000,6.59068896484375,-0.3103790283203125,0.7214202880859375,1.5398712158203125
1663862560905576700,6.60057666015625,-0.3199615478515625,0.7555084228515625,1.742279052734375
1663862560915464400,6.61046435546875,-0.362579345703125,0.80877685546875,1.946807861328125
1663862560925321500,6.620321533203125,-0.4360809326171875,0.889739990234375,2.1470794677734375
1663862560935209200,6.630209228515625,-0.49786376953125,1.0900115966796875,2.3377532958984375
1663862560945127400,6.64012744140625,-0.496795654296875,1.423431396484375,2.53802490234375
1663862560954984700,6.649984619140625,-0.3860015869140625,1.7248992919921875,2.7585296630859375
1663862560964841700,6.659841796875,-0.156982421875,1.8740386962890625,2.9556121826171875
1663862560974760000,6.669760009765625,0.1679229736328125,1.9081268310546875,3.117523193359375
1663862560984647700,6.679647705078125,0.4992218017578125,1.871917724609375,3.210205078125
1663862560994535400,6.689535400390625,0.748504638671875,1.7248992919921875,3.2059478759765625
1663862561004423200,6.699423095703125,0.9199981689453125,1.4671173095703125,3.13031005859375
1663862561014280200,6.7092802734375,1.02972412109375,1.1933441162109375,3.0088653564453125
1663862561024168000,6.71916796875,1.0265350341796875,0.9547119140625,2.8299102783203125
1663862561034055700,6.7290556640625,0.8443756103515625,0.7565765380859375,2.56146240234375
1663862561043943400,6.738943359375,0.470458984375,0.6884002685546875,2.229095458984375
1663862561053831200,6.7488310546875,-0.03021240234375,0.8386077880859375,1.9148406982421875
1663862561063719000,6.758718994140625,-0.454193115234375,0.9387359619140625,1.6091156005859375
1663862561073606400,6.7686064453125,-0.63421630859375,0.7459259033203125,1.352386474609375
1663862561083494100,6.778494140625,-0.5830841064453125,0.47747802734375,1.251190185546875
1663862561093382000,6.7883818359375,-0.4680328369140625,0.274017333984375,1.316162109375
1663862561103269600,6.79826953125,-0.3551177978515625,0.1525726318359375,1.444000244140625
1663862561113126700,6.808126708984375,-0.2645721435546875,0.2122344970703125,1.5398712158203125
1663862561123014400,6.818014404296875,-0.2166290283203125,0.4636383056640625,1.5537261962890625
1663862561132902100,6.827902099609375,-0.2155609130859375,0.8130340576171875,1.4940643310546875
1663862561142790000,6.837789794921875,-0.2294158935546875,1.0303497314453125,1.3896636962890625
1663862561152677600,6.847677734375,-0.21343994140625,0.94512939453125,1.2660980224609375
1663862561162565000,6.857565185546875,-0.17828369140625,0.686279296875,1.14892578125
1663862561172422400,6.86742236328125,-0.1484527587890625,0.50091552734375,1.0615692138671875
1663862561182310100,6.87731005859375,-0.1143646240234375,0.4700164794921875,1.0136260986328125
1663862561192198000,6.887197998046875,-0.0706939697265625,0.4966583251953125,1.0019073486328125
1663862561202085400,6.89708544921875,-0.017425537109375,0.5264892578125,0.988067626953125
1663862561211942700,6.906942626953125,0.0347747802734375,0.6425933837890625,0.8804779052734375
1663862561221800000,6.916800048828125,0.0677947998046875,0.592529296875,0.5736846923828125
1663862561231687400,6.9266875,0.1253204345703125,0.1642913818359375,-0.0345916748046875
1663862561241575200,6.9365751953125,0.2627410888671875,-0.5728759765625,-0.8772125244140625
1663862561251463000,6.946462890625,0.4044189453125,-1.7254791259765625,-1.763519287109375
1663862561261320200,6.9563203125,0.40655517578125,-2.0770263671875,-2.149139404296875
1663862561271207700,6.966207763671875,0.3223876953125,-0.9393157958984375,-1.7081146240234375
1663862561281095400,6.976095458984375,0.3277130126953125,-0.1755218505859375,-1.439666748046875
1663862561290983200,6.985983154296875,0.4427642822265625,-0.0413055419921875,-1.646331787109375
1663862561300871000,6.995870849609375,0.6398468017578125,0.422088623046875,-1.5824127197265625
1663862561310728200,7.005728271484375,0.7975006103515625,0.67242431640625,-1.1073150634765625
1663862561320615700,7.01561572265625,0.74530029296875,0.455108642578125,-0.664154052734375
1663862561330503400,7.02550341796875,0.587646484375,0.522216796875,-0.212493896484375
1663862561340360700,7.035360595703125,0.35540771484375,1.039947509765625,0.38299560546875
1663862561350248400,7.04524853515625,-0.1132965087890625,1.300933837890625,0.941192626953125
1663862561360136000,7.055135986328125,-0.6533966064453125,0.9856109619140625,1.2415924072265625
1663862561370023700,7.065023681640625,-0.917572021484375,0.4039764404296875,1.11163330078125
1663862561379911400,7.074911376953125,-0.990020751953125,-0.125457763671875,0.7739410400390625
1663862561389799200,7.084799072265625,-1.03582763671875,-0.51214599609375,0.54278564453125
1663862561399687000,7.09468701171875,-0.9261016845703125,-0.78912353515625,0.4085693359375
1663862561409544000,7.1045439453125,-0.6278228759765625,-0.9084320068359375,0.3084259033203125
1663862561419431700,7.114431640625,-0.3412628173828125,-0.844512939453125,0.3073577880859375
1663862561429319400,7.1243193359375,-0.168701171875,-0.68365478515625,0.3883209228515625
1663862561439207200,7.134207275390625,-0.06109619140625,-0.4727325439453125,0.4330596923828125
1663862561449064200,7.144064208984375,0.018798828125,-0.1893768310546875,0.41815185546875
1663862561458952000,7.153951904296875,0.1136016845703125,0.0876007080078125,0.35955810546875
1663862561468839700,7.163839599609375,0.222259521484375,0.27294921875,0.27008056640625
1663862561478727400,7.1737275390625,0.26806640625,0.3571014404296875,0.1273345947265625
1663862561488615000,7.183614990234375,0.2595367431640625,0.3134307861328125,-0.005828857421875
1663862561498472200,7.19347216796875,0.198822021484375,0.0758819580078125,-0.142181396484375
1663862561508390400,7.203390380859375,0.095489501953125,-0.341705322265625,-0.3392486572265625
1663862561518278100,7.213278076171875,-0.0227508544921875,-0.6666107177734375,-0.5033111572265625
1663862561528166000,7.223165771484375,-0.1378021240234375,-0.7230682373046875,-0.5927886962890625
1663862561538053600,7.2330537109375,-0.221954345703125,-0.527069091796875,-0.6013031005859375
1663862561547941000,7.242941162109375,-0.2379302978515625,-0.29803466796875,-0.5778656005859375
1663862561557828900,7.252828857421875,-0.1825408935546875,-0.162750244140625,-0.5832061767578125
1663862561567716600,7.262716552734375,-0.095184326171875,-0.1084136962890625,-0.668426513671875
1663862561577604400,7.272604248046875,0.013458251953125,-0.105224609375,-0.755767822265625
1663862561587492000,7.2824921875,0.116790771484375,-0.1872406005859375,-0.77813720703125
1663862561597349000,7.29234912109375,0.1902923583984375,-0.2607421875,-0.7610931396484375
1663862561607236900,7.30223681640625,0.2158660888671875,-0.3715362548828125,-0.7057037353515625
1663862561617124600,7.31212451171875,0.220123291015625,-0.606964111328125,-0.668426513671875
1663862561626981600,7.321981689453125,0.22119140625,-0.8104248046875,-0.675872802734375
1663862561636839000,7.3318388671875,0.2520904541015625,-0.78912353515625,-0.744049072265625
1663862561646726700,7.3417265625,0.323455810546875,-0.571807861328125,-0.8857269287109375
1663862561656614400,7.351614501953125,0.436370849609375,-0.2916412353515625,-1.076416015625
1663862561666502000,7.361501953125,0.5812530517578125,0.0428466796875,-1.215972900390625
1663862561676389600,7.3713896484375,0.725067138671875,0.44232177734375,-1.2298126220703125
1663862561686277400,7.38127734375,0.83477783203125,0.6638946533203125,-1.25750732421875
1663862561696165000,7.3911650390625,0.8976287841796875,0.6575164794921875,-1.5632476806640625
1663862561706052900,7.401052978515625,0.9019012451171875,0.5392608642578125,-2.13848876953125
1663862561715940400,7.4109404296875,0.8837890625,0.309173583984375,-2.739288330078125
1663862561725828000,7.420828125,0.904022216796875,0.1089019775390625,-3.1803131103515625
1663862561735715800,7.4307158203125,0.937042236328125,-0.1403656005859375,-3.492431640625
1663862561745603600,7.440603515625,0.892303466796875,-0.52386474609375,-3.606414794921875
1663862561755460600,7.450460693359375,0.746368408203125,-0.914825439453125,-3.504150390625
1663862561765348400,7.460348388671875,0.529052734375,-1.18646240234375,-3.3443603515625
1663862561775205600,7.47020556640625,0.360748291015625,-1.415496826171875,-3.209075927734375
1663862561785063000,7.48006298828125,0.344757080078125,-1.6732940673828125,-3.1036224365234375
1663862561794950400,7.489950439453125,0.506683349609375,-1.6466522216796875,-2.9544830322265625
1663862561804868600,7.49986865234375,0.6973724365234375,-1.302581787109375,-2.6114654541015625
1663862561814726000,7.509725830078125,0.6952362060546875,-0.9499664306640625,-2.0628509521484375
1663862561824613600,7.519613525390625,0.529052734375,-0.6666107177734375,-1.53448486328125
1663862561834501400,7.52950146484375,0.323455810546875,-0.431182861328125,-1.133941650390625
1663862561844358400,7.5393583984375,0.1199951171875,-0.228790283203125,-0.7877349853515625
1663862561854246100,7.54924609375,-0.06109619140625,-0.0295867919921875,-0.40423583984375
1663862561864164400,7.559164306640625,-0.188934326171875,0.1664276123046875,0.03997802734375
1663862561874052000,7.569052001953125,-0.2539215087890625,0.3240814208984375,0.44903564453125
1663862561883909000,7.5789091796875,-0.2986602783203125,0.501983642578125,0.78460693359375
1663862561893766400,7.588766357421875,-0.3231658935546875,0.7288818359375,1.0594329833984375
1663862561903684600,7.5986845703125,-0.3178253173828125,0.94512939453125,1.29486083984375
1663862561913542000,7.6085419921875,-0.2858734130859375,1.1464691162109375,1.512176513671875
1663862561923429400,7.618429443359375,-0.2517852783203125,1.34674072265625,1.718841552734375
1663862561933317000,7.628317138671875,-0.2230224609375,1.5672454833984375,1.920166015625
1663862561943174400,7.63817431640625,-0.1516571044921875,1.8069305419921875,2.11724853515625
1663862561953062100,7.648062255859375,-0.0025177001953125,2.0594024658203125,2.2823638916015625
1663862561962949600,7.65794970703125,0.210540771484375,2.2628631591796875,2.4187164306640625
1663862561972837400,7.66783740234375,0.4512939453125,2.2447509765625,2.559326171875
1663862561982694700,7.677694580078125,0.6739349365234375,2.0114593505859375,2.687164306640625
1663862561992612900,7.68761279296875,0.8326568603515625,1.68975830078125,2.8043365478515625
1663862562002500600,7.69750048828125,0.904022216796875,1.3051910400390625,2.901275634765625
1663862562012397800,7.707397705078125,0.8784637451171875,0.8343505859375,2.9076690673828125
1663862562022285600,7.71728564453125,0.755950927734375,0.37841796875,2.7947540283203125
1663862562032173300,7.72717333984375,0.541839599609375,0.125946044921875,2.548675537109375
1663862562042061000,7.73706103515625,0.2147979736328125,0.1515045166015625,2.2024688720703125
1663862562051948800,7.74694873046875,-0.235809326171875,0.3560333251953125,1.8509368896484375
1663862562061836500,7.75683642578125,-0.724761962890625,0.6308746337890625,1.6112518310546875
1663862562071693600,7.766693603515625,-1.0507354736328125,0.9856109619140625,1.5537261962890625
1663862562081581300,7.776581298828125,-1.0944061279296875,1.4170379638671875,1.6666412353515625
1663862562091469000,7.786468994140625,-0.950592041015625,1.8303680419921875,1.8733062744140625
1663862562101356800,7.796356689453125,-0.6992034912109375,2.1169281005859375,2.0863494873046875
1663862562111213800,7.8062138671875,-0.370025634765625,2.1712493896484375,2.2354888916015625
1663862562121071000,7.816071044921875,-0.0355377197265625,2.0135955810546875,2.2354888916015625
1663862562130958800,7.825958740234375,0.2393035888671875,1.7366180419921875,2.08209228515625
1663862562140846300,7.835846435546875,0.4097442626953125,1.369110107421875,1.8424072265625
1663862562150703600,7.84570361328125,0.4640655517578125,0.9067840576171875,1.6005859375
1663862562160621800,7.855621826171875,0.40228271484375,0.4178314208984375,1.406707763671875
1663862562170479000,7.86547900390625,0.24676513671875,0.008758544921875,1.262908935546875
1663862562180397300,7.875397216796875,0.0464935302734375,-0.2479705810546875,1.13507080078125
1663862562190254300,7.88525439453125,-0.109039306640625,-0.351287841796875,1.034942626953125
1663862562200111600,7.895111572265625,-0.1356658935546875,-0.2202606201171875,1.00830078125
1663862562210029800,7.90502978515625,-0.1026458740234375,0.19091796875,1.0498504638671875
1663862562219886800,7.914886962890625,-0.07708740234375,0.800262451171875,1.0711517333984375
1663862562229805000,7.92480517578125,-0.0238189697265625,1.4980010986328125,0.9710235595703125
1663862562239662300,7.934662353515625,0.039031982421875,1.6918792724609375,0.612030029296875
1663862562249550000,7.944550048828125,0.1583404541015625,0.9611053466796875,-0.144317626953125
1663862562259437800,7.954437744140625,0.321319580078125,-0.1638031005859375,-1.009307861328125
1663862562269294800,7.964294921875,0.3309173583984375,-1.095916748046875,-1.416229248046875
1663862562279213000,7.974213134765625,0.13916015625,-1.312164306640625,-1.237274169921875
1663862562289100800,7.984100830078125,-0.0706939697265625,-0.3811187744140625,-0.894256591796875
1663862562298988500,7.993988525390625,-0.133544921875,0.4977264404296875,-0.8740234375
1663862562308876300,8.003876220703125,0.0422210693359375,0.6085052490234375,-1.2873382568359375
1663862562318764000,8.013763916015625,0.3223876953125,0.340057373046875,-1.7528533935546875
1663862562328621000,8.02362109375,0.32452392578125,0.27294921875,-1.8370208740234375
1663862562338508800,8.0335087890625,0.0582122802734375,0.7757568359375,-1.29052734375
1663862562348396500,8.043396484375,-0.0483245849609375,0.9611053466796875,-0.619415283203125
1663862562358284300,8.0532841796875,-0.042999267578125,0.4295501708984375,-0.3946533203125
1663862562368141300,8.063141357421875,0.04754638671875,-0.03704833984375,-0.278533935546875
1663862562377998600,8.07299853515625,0.0965576171875,-0.014678955078125,0.0570220947265625
1663862562387916800,8.082916748046875,-0.0706939697265625,0.2452545166015625,0.4447784423828125
1663862562397804500,8.092804443359375,-0.3082427978515625,0.3560333251953125,0.621612548828125
1663862562407661600,8.10266162109375,-0.4371490478515625,0.3155670166015625,0.586456298828125
1663862562417518800,8.112518798828125,-0.4477996826171875,0.170684814453125,0.4597015380859375
1663862562427406600,8.122406494140625,-0.407318115234375,-0.0519561767578125,0.3425140380859375
1663862562437324800,8.13232470703125,-0.36151123046875,-0.19683837890625,0.2988433837890625
1663862562447181800,8.142181884765625,-0.294403076171875,-0.2064208984375,0.280731201171875
1663862562457069600,8.152069580078125,-0.1931915283203125,-0.1435699462890625,0.2391815185546875
1663862562466926800,8.1619267578125,-0.1047821044921875,-0.033843994140625,0.2040252685546875
1663862562476814300,8.171814453125,-0.0568389892578125,0.123809814453125,0.1805877685546875
1663862562486702000,8.1817021484375,-0.0366058349609375,0.2878570556640625,0.1464996337890625
1663862562496589800,8.19158984375,-0.0142364501953125,0.4039764404296875,0.061279296875
1663862562506508000,8.201508056640625,0.0241241455078125,0.4508514404296875,-0.0889129638671875
1663862562516395800,8.211395751953125,0.06353759765625,0.4018402099609375,-0.2977142333984375
1663862562526283500,8.221283447265625,0.097625732421875,0.28680419921875,-0.520355224609375
1663862562536171000,8.2311708984375,0.128509521484375,0.2473907470703125,-0.6705474853515625
1663862562546058800,8.241058837890625,0.15087890625,0.3496551513671875,-0.7142333984375
1663862562555946500,8.250946533203125,0.1711273193359375,0.5552520751953125,-0.6971893310546875
1663862562565803800,8.2608037109375,0.1934967041015625,0.772552490234375,-0.6854705810546875
1663862562575691500,8.27069140625,0.22332763671875,0.98028564453125,-0.6950531005859375
1663862562585548500,8.280548583984375,0.2595367431640625,1.195465087890625,-0.6907958984375
1663862562595405800,8.29040576171875,0.2957611083984375,1.290283203125,-0.720611572265625
1663862562605293600,8.30029345703125,0.321319580078125,1.2476654052734375,-0.828216552734375
1663862562615181000,8.31018115234375,0.290435791015625,1.0953369140625,-0.9581756591796875
1663862562625038300,8.320038330078125,0.231842041015625,1.012237548828125,-1.0604400634765625
1663862562634926000,8.329926025390625,0.19989013671875,0.970703125,-1.108367919921875
1663862562644813800,8.339813720703125,0.198822021484375,0.8726959228515625,-1.0796051025390625
1663862562654701300,8.349701416015625,0.208404541015625,0.718231201171875,-1.0124969482421875
1663862562664589000,8.359589111328125,0.2169342041015625,0.5648345947265625,-0.9869384765625
1663862562674476800,8.369476806640625,0.2393035888671875,0.464691162109375,-1.0359344482421875
1663862562684364500,8.379364501953125,0.26593017578125,0.328338623046875,-1.1371307373046875
1663862562694252300,8.389252197265625,0.2968292236328125,0.1557769775390625,-1.2788238525390625
1663862562704109300,8.399109375,0.33624267578125,0.0375213623046875,-1.476959228515625
1663862562713997000,8.4089970703125,0.360748291015625,-0.034912109375,-1.7304840087890625
1663862562723884800,8.418884765625,0.379913330078125,-0.0519561767578125,-2.10546875
1663862562733741800,8.428741943359375,0.4299774169921875,-0.0647430419921875,-2.6764373779296875
1663862562743629600,8.438629638671875,0.5343780517578125,-0.296966552734375,-3.3017578125
1663862562753547800,8.4485478515625,0.711212158203125,-0.77313232421875,-3.6714019775390625
1663862562763405000,8.458405029296875,0.8997650146484375,-1.1566314697265625,-3.7502288818359375
1663862562773323300,8.4683232421875,1.0840606689453125,-1.18646240234375,-3.7864532470703125
1663862562783211000,8.4782109375,1.2417144775390625,-1.0447845458984375,-3.8631439208984375
1663862562793098800,8.4880986328125,1.3226776123046875,-1.02880859375,-3.8173370361328125
1663862562802986200,8.497986328125,1.2896575927734375,-1.172607421875,-3.539306640625
1663862562812843500,8.507843505859375,1.1959075927734375,-1.3558349609375,-3.12066650390625
1663862562822731300,8.517731201171875,1.13092041015625,-1.2961883544921875,-2.70947265625
1663862562832588300,8.52758837890625,1.1405181884765625,-1.140655517578125,-2.3227691650390625
1663862562842445600,8.537445556640625,1.1948394775390625,-1.05010986328125,-1.919036865234375
1663862562852333300,8.547333251953125,1.2204132080078125,-0.744384765625,-1.47589111328125
1663862562862251500,8.55725146484375,1.17779541015625,-0.2330474853515625,-1.044464111328125
1663862562872139300,8.56713916015625,1.14691162109375,0.236724853515625,-0.675872802734375
1663862562882026800,8.57702685546875,1.179931640625,0.5392608642578125,-0.33392333984375
1663862562891914500,8.58691455078125,1.178863525390625,0.661773681640625,0.0474395751953125
1663862562901802200,8.59680224609375,1.144775390625,0.6916046142578125,0.3872528076171875
1663862562911690000,8.60668994140625,1.0851287841796875,0.6564483642578125,0.6482391357421875
1663862562921547000,8.616547119140625,1.0084228515625,0.638336181640625,0.8932647705078125
1663862562931434800,8.626434814453125,0.9455718994140625,0.661773681640625,1.1393280029296875
1663862562941322500,8.636322509765625,0.9029541015625,0.69586181640625,1.38433837890625
1663862562951179800,8.6461796875,0.9008331298828125,0.7949371337890625,1.63787841796875
1663862562961067300,8.6560673828125,0.8752593994140625,0.71929931640625,1.9010009765625
1663862562970955000,8.665955078125,0.79217529296875,0.6436614990234375,2.1470794677734375
1663862562980842800,8.6758427734375,0.7314605712890625,0.71929931640625,2.3835601806640625
1663862562990730500,8.68573046875,0.645172119140625,0.958984375,2.5444183349609375
1663862563000618200,8.6956181640625,0.54290771484375,1.320098876953125,2.6008758544921875
1663862563010505700,8.705505615234374,0.49603271484375,1.7248992919921875,2.59661865234375
1663862563020363000,8.715363037109375,0.540771484375,2.0902862548828125,2.607269287109375
1663862563030220300,8.72522021484375,0.656890869140625,2.403472900390625,2.677581787109375
1663862563040138500,8.735138427734375,0.8113555908203125,2.5920257568359375,2.8064727783203125
1663862563049995500,8.74499560546875,0.97113037109375,2.6389007568359375,2.971588134765625
1663862563059883300,8.75488330078125,1.11175537109375,2.5930938720703125,3.1367034912109375
1663862563069740500,8.764740478515625,1.2278594970703125,2.5355682373046875,3.2261810302734375
1663862563079658800,8.77465869140625,1.3322601318359375,2.4695281982421875,3.1835784912109375
1663862563089546500,8.78454638671875,1.38446044921875,2.345947265625,3.0227203369140625
1663862563099434000,8.79443408203125,1.340789794921875,2.2724456787109375,2.8299102783203125
1663862563109291300,8.804291259765625,1.1959075927734375,2.3321075439453125,2.628570556640625
1663862563119148500,8.8141484375,0.9146728515625,2.5590057373046875,2.4091339111328125
1663862563129036000,8.8240361328125,0.561004638671875,2.7326507568359375,2.130035400390625
1663862563138954200,8.833954345703125,0.25634765625,2.6825714111328125,1.787017822265625
1663862563148811500,8.8438115234375,0.0209197998046875,2.42584228515625,1.4173736572265625
1663862563158699300,8.85369921875,-0.17828369140625,2.1382293701171875,1.0754241943359375
1663862563168587000,8.8635869140625,-0.30078125,1.9688568115234375,0.910308837890625
1663862563178444000,8.873444091796875,-0.33807373046875,2.0072021484375,0.955047607421875
1663862563188362200,8.8833623046875,-0.2975921630859375,2.189361572265625,1.12548828125
1663862563198219500,8.893219482421875,-0.179351806640625,2.38323974609375,1.342803955078125
1663862563208107300,8.903107177734375,-0.0153045654296875,2.54302978515625,1.5515899658203125
1663862563217964300,8.91296435546875,0.1434326171875,2.6389007568359375,1.6826171875
1663862563227882500,8.922882568359375,0.2712554931640625,2.5994873046875,1.7103118896484375
1663862563237770200,8.932770263671875,0.346893310546875,2.4365081787109375,1.63787841796875
1663862563247627500,8.94262744140625,0.358612060546875,2.2724456787109375,1.4962005615234375
1663862563257545700,8.952545654296875,0.3223876953125,2.1265106201171875,1.3438568115234375
1663862563267433200,8.96243310546875,0.28936767578125,1.929443359375,1.2107086181640625
1663862563277321000,8.972321044921875,0.30322265625,1.676971435546875,1.1190948486328125
1663862563287178200,8.98217822265625,0.3458251953125,1.4287567138671875,1.1329345703125
1663862563297066000,8.99206591796875,0.39483642578125,1.0995941162109375,1.167022705078125
1663862563306923000,9.001923095703125,0.4203948974609375,0.31768798828125,0.929473876953125
1663862563316841200,9.01184130859375,0.2936248779296875,-0.933990478515625,0.1592864990234375
1663862563326698500,9.021698486328125,-0.017425537109375,-1.882080078125,-0.97308349609375
1663862563336586200,9.031586181640625,-0.370025634765625,-1.4783477783203125,-1.7773590087890625
1663862563346474000,9.041473876953125,-0.830230712890625,-0.2213287353515625,-1.843414306640625
1663862563356361500,9.051361572265625,-1.0251617431640625,0.9046478271484375,-1.418365478515625
1663862563366218800,9.06121875,-0.5692291259765625,1.4053192138671875,-0.9869384765625
1663862563376106500,9.0711064453125,-0.016357421875,0.6351470947265625,-0.8228912353515625
1663862563385963500,9.080963623046875,0.447021484375,-0.626129150390625,-0.903839111328125
1663862563395881700,9.0908818359375,0.78045654296875,-0.7827301025390625,-0.9571075439453125
1663862563405739000,9.100739013671875,0.8859100341796875,-0.024261474609375,-0.8740234375
1663862563415657200,9.1106572265625,0.7612762451171875,1.059112548828125,-0.485198974609375
1663862563425514500,9.120514404296875,0.417205810546875,1.766448974609375,0.13372802734375
1663862563435402000,9.130402099609375,0.10614013671875,1.7526092529296875,0.4692840576171875
1663862563445259300,9.14025927734375,-0.10797119140625,1.4628448486328125,0.533203125
1663862563455177500,9.150177490234375,-0.2965240478515625,1.1432647705078125,0.6109619140625
1663862563465034800,9.16003466796875,-0.40625,0.9057159423828125,0.7558441162109375
1663862563474953000,9.169952880859375,-0.46270751953125,0.7714996337890625,0.90496826171875
1663862563484810000,9.17981005859375,-0.50958251953125,0.7587127685546875,1.02215576171875
1663862563494697700,9.18969775390625,-0.5383453369140625,0.7288818359375,1.126556396484375
1663862563504555000,9.199554931640625,-0.498931884765625,0.44659423828125,1.218170166015625
1663862563514442500,9.2094423828125,-0.4328765869140625,0.0993194580078125,1.1957855224609375
1663862563524360700,9.219360595703124,-0.374298095703125,0.03326416015625,1.04559326171875
1663862563534218000,9.229218017578125,-0.2880096435546875,0.1131591796875,0.941192626953125
1663862563544105700,9.239105712890625,-0.1953277587890625,0.2186279296875,0.8996429443359375
1663862563553993500,9.248993408203125,-0.10797119140625,0.37628173828125,0.863433837890625
1663862563563881200,9.258881103515625,-0.027008056640625,0.523284912109375,0.8123016357421875
1663862563573738200,9.26873828125,0.0667266845703125,0.545654296875,0.727081298828125
1663862563583656400,9.278656494140625,0.165802001953125,0.5413970947265625,0.621612548828125
1663862563593513700,9.288513671875,0.2403717041015625,0.580810546875,0.5150909423828125
1663862563603370800,9.298370849609375,0.2989501953125,0.593597412109375,0.3979034423828125
1663862563613289000,9.3082890625,0.3437042236328125,0.5424652099609375,0.2562255859375
1663862563623176700,9.3181767578125,0.356475830078125,0.433807373046875,0.0793914794921875
1663862563633064400,9.328064453125,0.360748291015625,0.307037353515625,-0.1006317138671875
1663862563642921700,9.337921630859375,0.3873748779296875,0.21649169921875,-0.276397705078125
1663862563652809200,9.347809326171875,0.401214599609375,0.19091796875,-0.438323974609375
1663862563662697000,9.357697021484375,0.3628692626953125,0.2356719970703125,-0.5704193115234375
1663862563672584700,9.367584716796875,0.2968292236328125,0.238861083984375,-0.713165283203125
1663862563682442000,9.37744189453125,0.233978271484375,0.18133544921875,-0.903839111328125
1663862563692329500,9.38732958984375,0.161529541015625,0.1014404296875,-1.1296844482421875
1663862563702217200,9.39721728515625,0.0539398193359375,0.092926025390625,-1.305450439453125
1663862563712074500,9.407074462890625,-0.0834808349609375,0.2079620361328125,-1.338470458984375
1663862563721992700,9.41699267578125,-0.1974639892578125,0.271881103515625,-1.237274169921875
1663862563731849700,9.426849609375,-0.278411865234375,0.2303466796875,-1.1190338134765625
1663862563741768000,9.436767822265624,-0.36895751953125,0.1440582275390625,-1.054046630859375
1663862563751655700,9.44665576171875,-0.4936065673828125,-0.0050811767578125,-1.0050506591796875
1663862563761543400,9.45654345703125,-0.6267547607421875,-0.21600341796875,-0.92620849609375
1663862563771431200,9.46643115234375,-0.725830078125,-0.46527099609375,-0.8761444091796875
1663862563781288400,9.476288330078125,-0.7556610107421875,-0.6463775634765625,-0.94219970703125
1663862563791145500,9.4861455078125,-0.7087860107421875,-0.6900482177734375,-1.09027099609375
1663862563801033200,9.496033203125,-0.576690673828125,-0.64105224609375,-1.2319488525390625
1663862563810921000,9.5059208984375,-0.3668365478515625,-0.5622100830078125,-1.350189208984375
1663862563820778000,9.515778076171875,-0.1026458740234375,-0.48870849609375,-1.430084228515625
1663862563830665700,9.525665771484375,0.140228271484375,-0.4748687744140625,-1.4130401611328125
1663862563840584000,9.535583984375,0.2946929931640625,-0.545166015625,-1.37469482421875
1663862563850441200,9.545441162109375,0.3884429931640625,-0.6112213134765625,-1.4790802001953125
1663862563860298200,9.55529833984375,0.4768524169921875,-0.6122894287109375,-1.785888671875
1663862563870186000,9.56518603515625,0.5673980712890625,-0.538787841796875,-2.3611297607421875
1663862563880073700,9.57507373046875,0.781524658203125,-0.3736724853515625,-3.1185302734375
1663862563889992000,9.584991943359375,1.1735382080078125,-0.1776580810546875,-3.6948394775390625
1663862563899849200,9.59484912109375,1.6188201904296875,-0.0306549072265625,-3.8397064208984375
1663862563909736700,9.60473681640625,1.9479827880859375,-0.19683837890625,-3.782196044921875
1663862563919594000,9.614593994140625,2.1546478271484375,-0.48870849609375,-3.881256103515625
1663862563929512200,9.62451220703125,2.2792816162109375,-0.650634765625,-3.996307373046875
1663862563939400000,9.63439990234375,2.262237548828125,-0.74224853515625,-3.836517333984375
1663862563949257000,9.644257080078125,2.05877685546875,-0.7592926025390625,-3.462615966796875
1663862563959175200,9.654175048828124,1.6401214599609375,-0.709228515625,-3.0205230712890625
1663862563969063000,9.66406298828125,1.1937713623046875,-0.6431732177734375,-2.638092041015625
1663862563978920200,9.673920166015625,0.9242706298828125,-0.602691650390625,-2.3153228759765625
1663862563988777200,9.683777099609374,0.8560943603515625,-0.6112213134765625,-2.012786865234375
1663862563998695400,9.6936953125,0.9072265625,-0.580322265625,-1.7432708740234375
1663862564008552700,9.703552734375,0.9924468994140625,-0.4269256591796875,-1.3991851806640625
1663862564018440400,9.7134404296875,1.0723419189453125,-0.1744537353515625,-0.9635009765625
1663862564028297500,9.72329736328125,1.065948486328125,0.149383544921875,-0.4990386962890625
1663862564038216000,9.7332158203125,1.086181640625,0.4678955078125,-0.040985107421875
1663862564048103400,9.743103515625,1.2672882080078125,0.6820068359375,0.3542327880859375
1663862564057991200,9.7529912109375,1.190582275390625,0.7576446533203125,0.6855316162109375
1663862564067848400,9.762848388671875,0.7900390625,0.5520477294921875,0.9656982421875
1663862564077736200,9.772736083984375,0.6654052734375,0.3603057861328125,1.122283935546875
1663862564087593200,9.78259326171875,0.6259918212890625,0.236724853515625,1.3246917724609375
1663862564097511400,9.792511474609375,0.440643310546875,0.1429901123046875,1.5750274658203125
1663862564107368700,9.80236865234375,0.2595367431640625,0.088653564453125,1.822174072265625
1663862564117256400,9.81225634765625,0.13916015625,0.1206207275390625,2.0330963134765625
1663862564127144000,9.82214404296875,0.0677947998046875,0.2537689208984375,2.20672607421875
1663862564137031700,9.83203173828125,0.0560760498046875,0.51263427734375,2.31964111328125
1663862564146919400,9.84191943359375,0.1253204345703125,0.852447509765625,2.3633270263671875
1663862564156807200,9.85180712890625,0.2627410888671875,1.20611572265625,2.4048614501953125
1663862564166695000,9.86169482421875,0.38311767578125,1.5331573486328125,2.49542236328125
1663862564176582400,9.87158251953125,0.447021484375,1.765380859375,2.629638671875
1663862564186439700,9.881439697265625,0.493896484375,1.9337005615234375,2.7500152587890625
1663862564196327400,9.891327392578125,0.5258636474609375,2.142486572265625,2.8181915283203125
1663862564206215200,9.901215087890625,0.530120849609375,2.4205169677734375,2.833099365234375
1663862564216072200,9.911072265625,0.485382080078125,2.6069488525390625,2.825653076171875
1663862564225960000,9.9209599609375,0.4108123779296875,2.619720458984375,2.741485595703125
1663862564235847700,9.93084765625,0.37139892578125,2.4205169677734375,2.44854736328125
1663862564245735400,9.9407353515625,0.3650054931640625,1.8878936767578125,2.229095458984375
1663862564255623000,9.950622802734374,0.4342498779296875,1.411712646484375,2.03521728515625
1663862564265480200,9.960480224609375,0.46087646484375,1.0527191162109375,1.9010009765625
1663862564275398400,9.9703984375,0.2968292236328125,0.8354034423828125,1.8466644287109375
1663862564285286100,9.9802861328125,0.0017547607421875,0.7874755859375,1.8541259765625
1663862564295174000,9.990173828125,-0.1963958740234375,0.8492584228515625,1.9191131591796875
1663862564305061600,10.0000615234375,-0.1708221435546875,0.9280853271484375,1.9979400634765625
1663862564314949000,10.00994921875,-0.0355377197265625,1.06976318359375,1.96917724609375
1663862564324836900,10.0198369140625,0.109344482421875,1.308380126953125,1.84454345703125
1663862564334724600,10.029724609375,0.2286529541015625,1.573638916015625,1.70819091796875
1663862564344582000,10.039581787109375,0.3341064453125,1.75579833984375,1.6325531005859375
1663862564354469400,10.049469482421875,0.440643310546875,1.65032958984375,1.6762237548828125
1663862564364326700,10.05932666015625,0.5333099365234375,1.2455291748046875,1.84027099609375
1663862564374214400,10.06921435546875,0.576995849609375,0.795989990234375,1.989410400390625
1663862564384102100,10.07910205078125,0.6057586669921875,0.5168914794921875,2.001129150390625
1663862564393959200,10.088959228515625,0.6185302734375,0.4860076904296875,1.775299072265625
1663862564403847000,10.098846923828125,0.6174774169921875,0.71929931640625,1.3715667724609375
1663862564413734700,10.108734619140625,0.549285888671875,0.9035797119140625,1.08819580078125
1663862564423622400,10.118622314453125,0.494964599609375,0.628753662109375,0.9369354248046875
1663862564433510000,10.128510009765625,0.5823211669921875,-0.0721893310546875,0.49591064453125
1663862564443367200,10.1383671875,0.56207275390625,-0.7124176025390625,-0.484130859375
1663862564453255000,10.1482548828125,0.25634765625,-0.511077880859375,-1.3235626220703125
1663862564463112000,10.15811181640625,-0.191070556640625,0.1099700927734375,-1.2990570068359375
1663862564472999700,10.167999755859375,-0.339141845703125,0.1419219970703125,-0.6481781005859375
1663862564482887400,10.177887451171875,-0.146331787109375,0.41888427734375,-0.1347198486328125
1663862564492775200,10.187775146484375,0.0805816650390625,0.66070556640625,-0.109161376953125
1663862564502663000,10.197662841796875,0.3650054931640625,-0.014678955078125,-0.485198974609375
1663862564512520000,10.20752001953125,0.5482330322265625,-0.489776611328125,-1.052978515625
1663862564522407700,10.21740771484375,0.379913330078125,-0.0061492919921875,-1.13287353515625
1663862564532295400,10.22729541015625,0.151947021484375,0.74273681640625,-0.5832061767578125
1663862564542213600,10.237213623046875,0.039031982421875,1.172027587890625,-0.024993896484375
1663862564552071000,10.24707080078125,0.06353759765625,1.2455291748046875,0.247711181640625
1663862564561928000,10.256927978515625,0.132781982421875,1.256195068359375,0.4810028076171875
1663862564571846100,10.26684619140625,0.04010009765625,1.196533203125,0.7782135009765625
1663862564581734000,10.27673388671875,-0.2294158935546875,1.0484619140625,1.0402679443359375
1663862564591621600,10.28662158203125,-0.5457916259765625,0.9760284423828125,1.157440185546875
1663862564601509400,10.29650927734375,-0.7971954345703125,1.0250244140625,1.1393280029296875
1663862564611366400,10.306366455078125,-0.9122467041015625,1.059112548828125,1.0413360595703125
1663862564621254100,10.316254150390625,-0.8547210693359375,0.9611053466796875,0.9358673095703125
1663862564631142000,10.326141845703125,-0.7854766845703125,0.7597808837890625,0.81549072265625
1663862564641029600,10.336029541015625,-0.7663116455078125,0.29425048828125,0.90924072265625
1663862564650917000,10.345917236328125,-0.6288909912109375,-0.1861724853515625,1.270355224609375
1663862564660774400,10.3557744140625,-0.5031890869140625,-0.010406494140625,1.352386474609375
1663862564670662100,10.365662109375,-0.4957275390625,0.377349853515625,1.2639617919921875
1663862564680550000,10.3755498046875,-0.485076904296875,0.6212921142578125,1.293792724609375
1663862564690437400,10.385437255859374,-0.452056884765625,0.85565185546875,1.3140411376953125
1663862564700294700,10.395294677734375,-0.4339447021484375,1.0250244140625,1.2426605224609375
1663862564710182400,10.405182373046875,-0.485076904296875,1.0559234619140625,1.157440185546875
1663862564720070100,10.415070068359375,-0.5426025390625,1.0314178466796875,1.08819580078125
1663862564729927200,10.42492724609375,-0.5500640869140625,1.0442047119140625,0.9273529052734375
1663862564739815000,10.43481494140625,-0.5468597412109375,1.103851318359375,0.6823272705078125
1663862564749702700,10.44470263671875,-0.576690673828125,1.162445068359375,0.405364990234375
1663862564759590400,10.45459033203125,-0.702392578125,1.150726318359375,0.144378662109375
1663862564769478100,10.46447802734375,-0.9271697998046875,1.1454010009765625,-0.07080078125
1663862564779365600,10.47436572265625,-1.2190399169921875,1.1773529052734375,-0.200775146484375
1663862564789253400,10.48425341796875,-1.5418243408203125,1.17523193359375,-0.208221435546875
1663862564799110700,10.494110595703125,-1.841156005859375,1.3563232421875,-0.2401885986328125
1663862564808998400,10.503998291015625,-2.033966064453125,1.7281036376953125,-0.358428955078125
1663862564818886000,10.513885986328125,-2.07977294921875,2.0135955810546875,-0.4873199462890625
1663862564828773600,10.523773681640625,-1.93597412109375,1.949676513671875,-0.5895843505859375
1663862564838661400,10.533661376953125,-1.6408843994140625,1.68975830078125,-0.793060302734375
1663862564848549000,10.543549072265625,-1.3340911865234375,1.425567626953125,-1.0689544677734375
1663862564858436900,10.553436767578125,-1.16046142578125,1.2476654052734375,-1.1648406982421875
1663862564868294000,10.5632939453125,-1.1668548583984375,1.4319610595703125,-0.9890594482421875
1663862564878181600,10.573181640625,-1.1423492431640625,2.0796356201171875,-0.7089080810546875
1663862564888069400,10.5830693359375,-0.9346160888671875,2.6942901611328125,-0.5906524658203125
1663862564897926400,10.592926513671875,-0.62249755859375,2.98724365234375,-0.631134033203125
1663862564907814100,10.602814208984375,-0.41796875,3.102294921875,-0.666290283203125
1663862564917732400,10.612732421875,-0.2432708740234375,3.2183990478515625,-0.6748046875
1663862564927589600,10.622589599609375,-0.0674896240234375,3.216278076171875,-0.5587005615234375
1663862564937477400,10.632477294921875,-0.0589752197265625,3.145965576171875,-0.5235443115234375
1663862564947364900,10.64236474609375,-0.155914306640625,3.2205352783203125,-0.5001068115234375
1663862564957252600,10.652252685546875,-0.3636322021484375,3.6338653564453125,-0.276397705078125
1663862564967110000,10.66210986328125,-0.596923828125,4.04931640625,-0.0399169921875
1663862564976997600,10.67199755859375,-0.796142578125,4.015228271484375,-0.015411376953125
1663862564986885000,10.681885009765624,-0.9026641845703125,3.8842010498046875,0.0485076904296875
1663862564996772900,10.69177294921875,-0.7993316650390625,3.9640960693359375,0.2849884033203125
1663862565006660600,10.70166064453125,-0.473358154296875,4.02374267578125,0.5363922119140625
1663862565016548400,10.71154833984375,-0.1356658935546875,3.82879638671875,0.5523681640625
1663862565026436000,10.72143603515625,0.0656585693359375,3.270599365234375,0.2200164794921875
1663862565036323800,10.73132373046875,0.0773773193359375,1.891082763671875,-0.480926513671875
1663862565046211300,10.74121142578125,-0.257110595703125,0.76617431640625,-0.9091644287109375
1663862565056099000,10.75109912109375,-0.8675079345703125,1.4031982421875,-0.5022430419921875
1663862565065956400,10.760956298828125,-1.4011993408203125,3.8341217041015625,0.6375885009765625
1663862565075813400,10.7708134765625,-1.638763427734375,6.0956878662109375,2.014984130859375
1663862565085731600,10.780731689453125,-1.683502197265625,6.14361572265625,2.53802490234375
1663862565095619300,10.790619384765625,-1.8827056884765625,4.2836761474609375,1.9745025634765625
1663862565105507000,10.800507080078125,-1.7974853515625,2.678314208984375,1.298065185546875
1663862565115394800,10.810394775390625,-1.06884765625,3.0149383544921875,1.500457763671875
1663862565125282600,10.820282470703125,0.2744598388671875,5.07623291015625,2.322845458984375
1663862565135170000,10.830170166015625,1.4345245361328125,6.7817230224609375,2.6371002197265625
1663862565145057800,10.840057861328125,2.2047119140625,6.509002685546875,2.07037353515625
1663862565154915000,10.8499150390625,2.8822174072265625,5.8900909423828125,1.5292205810546875
1663862565164802800,10.859802734375,3.620452880859375,6.15960693359375,1.4940643310546875
1663862565174690300,10.869690185546874,4.3011474609375,6.5260467529296875,1.8722381591796875
1663862565184578000,10.879578125,4.88812255859375,5.74627685546875,2.14813232421875
1663862565194435300,10.889435302734375,5.477203369140625,3.85650634765625,2.1321563720703125
1663862565204292400,10.899292236328124,6.059906005859375,1.5118560791015625,2.0330963134765625
1663862565214180000,10.90918017578125,6.5648345947265625,-0.788055419921875,1.911651611328125
1663862565224067800,10.91906787109375,7.0335540771484375,-2.2314910888671875,1.8967437744140625
1663862565233955600,10.92895556640625,7.4213104248046875,-3.2093963623046875,2.2365570068359375
1663862565243843300,10.93884326171875,7.72491455078125,-3.5545501708984375,3.0333709716796875
1663862565253700400,10.948700439453125,7.9560699462890625,-2.905792236328125,4.2445831298828125
1663862565263588000,10.958588134765625,7.8634033203125,-0.0945587158203125,5.7913360595703125
1663862565273445400,10.9684453125,7.24554443359375,4.6341400146484375,7.36260986328125
1663862565283363600,10.978363525390625,7.35101318359375,8.299713134765625,7.7311859130859375
1663862565293220600,10.988220703125,7.8815155029296875,9.01025390625,7.112274169921875
1663862565303138800,10.998138916015625,7.883636474609375,5.441619873046875,6.4837646484375
1663862565313026600,11.008026611328125,7.441558837890625,-0.058349609375,5.91278076171875
1663862565322914300,11.017914306640625,6.833282470703125,-4.1670684814453125,5.3247528076171875
1663862565332771600,11.027771484375,6.16217041015625,-5.939666748046875,4.9966583251953125
1663862565342659000,11.0376591796875,5.41009521484375,-5.5572357177734375,4.9274139404296875
1663862565352516400,11.047516357421875,4.68145751953125,-3.6312408447265625,4.95404052734375
1663862565362434600,11.0574345703125,4.20208740234375,-1.528411865234375,4.9391326904296875
1663862565372322300,11.067322265625,3.9240570068359375,-0.2916412353515625,4.6749420166015625
1663862565382210000,11.0772099609375,3.666259765625,-0.078582763671875,4.0975799560546875
1663862565392097500,11.08709765625,3.287017822265625,-0.818939208984375,3.37213134765625
1663862565401985300,11.0969853515625,2.102447509765625,-2.6863555908203125,2.48370361328125
1663862565411842600,11.106842529296875,0.24462890625,-3.5747833251953125,2.0735626220703125
1663862565421730300,11.116730224609375,-1.229705810546875,-3.51513671875,2.0064544677734375
1663862565431587300,11.12658740234375,-2.219329833984375,-3.709014892578125,1.3236236572265625
1663862565441444600,11.136444580078125,-2.856353759765625,-3.5172576904296875,0.4586334228515625
1663862565451332400,11.146332275390625,-3.403900146484375,-3.1550750732421875,-0.3616180419921875
1663862565461250600,11.15625048828125,-4.16876220703125,-3.7335052490234375,-1.0018463134765625
1663862565471138000,11.166137939453124,-5.094482421875,-4.66241455078125,-1.6431427001953125
1663862565481025800,11.17602587890625,-5.76666259765625,-4.973480224609375,-2.3249053955078125
1663862565490883000,11.185883056640625,-6.1895751953125,-4.7295379638671875,-2.9203948974609375
1663862565500770800,11.195770751953125,-6.5922393798828125,-4.376922607421875,-3.392303466796875
1663862565510658600,11.205658447265625,-7.0194091796875,-3.95721435546875,-3.822662353515625
1663862565520546000,11.215546142578125,-7.52435302734375,-3.2733154296875,-4.225341796875
1663862565530433800,11.225433837890625,-8.105987548828125,-2.510589599609375,-4.3233489990234375
1663862565540321500,11.235321533203125,-8.737686157226562,-1.7063140869140625,-3.97607421875
1663862565550209300,11.245209228515625,-9.295883178710938,-0.5536956787109375,-3.314544677734375
1663862565560097000,11.255096923828125,-9.718795776367188,0.8705596923828125,-2.400543212890625
1663862565569984500,11.264984619140625,-10.066070556640625,2.2191925048828125,-1.3342132568359375
1663862565579841800,11.274841796875,-10.418670654296875,2.985107421875,-0.23272705078125
1663862565589729500,11.2847294921875,-10.87353515625,2.77313232421875,0.8581085205078125
1663862565599617300,11.2946171875,-11.379531860351562,1.65460205078125,1.9862213134765625
1663862565609504800,11.3045048828125,-11.832275390625,0.558441162109375,2.844818115234375
1663862565619392500,11.314392578125,-12.12628173828125,0.1653594970703125,3.2080841064453125
1663862565629280300,11.3242802734375,-12.26690673828125,0.0630950927734375,3.3071441650390625
1663862565639137500,11.334137451171875,-12.418167114257812,-0.32891845703125,3.474395751953125
1663862565649025000,11.34402490234375,-12.680221557617188,-0.9425201416015625,3.7076873779296875
1663862565658912800,11.353912841796875,-12.8218994140625,-1.354766845703125,3.8877105712890625
1663862565668800500,11.363800537109375,-12.639739990234375,-1.382476806640625,4.1050262451171875
1663862565678688300,11.373688232421875,-12.024017333984375,-1.5625,4.1625518798828125
1663862565688545300,11.383545166015624,-10.581649780273438,-3.135894775390625,3.793975830078125
1663862565698433000,11.39343310546875,-8.649261474609375,-4.651763916015625,3.5798492431640625
1663862565708320800,11.40332080078125,-7.0364532470703125,-5.302642822265625,3.44775390625
1663862565718208500,11.41320849609375,-5.8348388671875,-5.5114288330078125,3.176116943359375
1663862565728096300,11.42309619140625,-4.524566650390625,-5.154571533203125,2.7510833740234375
1663862565737953300,11.432953369140625,-3.106689453125,-3.9423065185546875,2.4389495849609375
1663862565747841000,11.442841064453125,-2.0115966796875,-2.2847442626953125,2.252532958984375
1663862565757728800,11.452728759765625,-1.180694580078125,-0.936126708984375,2.20672607421875
1663862565767616500,11.462616455078125,-0.47442626953125,-0.092437744140625,2.2482757568359375
1663862565777504300,11.472504150390625,0.07098388671875,0.2228851318359375,2.184356689453125
1663862565787391700,11.482391845703125,0.34796142578125,0.172821044921875,2.01605224609375
1663862565797249000,11.4922490234375,0.4118804931640625,-0.4620819091796875,1.8615875244140625
1663862565807106300,11.502106201171875,0.4001617431640625,-1.6125640869140625,1.714569091796875
1663862565816993800,11.511993896484375,0.3053436279296875,-2.9931488037109375,1.5931396484375
1663862565826881500,11.521881591796875,0.1924285888671875,-4.153228759765625,1.5697021484375
1663862565836769300,11.531769287109375,-0.247528076171875,-3.1646575927734375,2.0661163330078125
1663862565846657000,11.541656982421875,-1.2424774169921875,-0.2660675048828125,3.4999542236328125
1663862565856544800,11.551544677734375,-1.476837158203125,-0.3853759765625,3.949493408203125
1663862565866432300,11.561432373046875,-1.4011993408203125,-1.17474365234375,3.66827392578125
1663862565876320000,11.571320068359375,-1.79962158203125,-1.469818115234375,3.349761962890625
1663862565886207700,11.581207763671875,-2.6262664794921875,-1.7830047607421875,2.938568115234375
1663862565896095500,11.591095458984375,-3.7053680419921875,-2.658660888671875,2.2354888916015625
1663862565905952500,11.600952392578124,-4.752532958984375,-3.4288482666015625,1.3491973876953125
1663862565915840300,11.61084033203125,-5.4300384521484375,-3.1209869384765625,0.57794189453125
1663862565925728000,11.62072802734375,-5.6207122802734375,-1.917236328125,0.0815277099609375
1663862565935615700,11.63061572265625,-5.593017578125,-0.7337188720703125,-0.2274017333984375
1663862565945503500,11.64050341796875,-5.4609222412109375,0.14617919921875,-0.5341949462890625
1663862565955391200,11.65039111328125,-5.0326995849609375,-0.0530242919921875,-0.736602783203125
1663862565965248300,11.660248291015625,-4.4127044677734375,-1.5209503173828125,-0.861236572265625
1663862565975136000,11.670135986328125,-3.745849609375,-1.906585693359375,-0.96136474609375
1663862565985023700,11.680023681640625,-2.9884490966796875,-2.19207763671875,-0.859100341796875
1663862565994911500,11.689911376953125,-2.2587432861328125,-2.1846160888671875,-0.7142333984375
1663862566004799000,11.699799072265625,-1.657928466796875,-1.688201904296875,-0.5800018310546875
1663862566014656300,11.70965625,-1.178558349609375,-1.16302490234375,-0.3637542724609375
1663862566024544000,11.7195439453125,-0.97509765625,-0.8221435546875,-0.222076416015625
1663862566034431700,11.729431640625,-1.1284942626953125,-0.7049560546875,-0.332855224609375
1663862566044288800,11.739288818359375,-1.4161224365234375,-0.6421051025390625,-0.5565643310546875
1663862566054176500,11.749176513671875,-1.6653900146484375,-0.3896484375,-0.6513824462890625
1663862566064024300,11.7590244140625,-1.7740478515625,0.1440582275390625,-0.4297943115234375
1663862566073912000,11.768912109375,-1.7559356689453125,0.786407470703125,0.0889892578125
1663862566083769300,11.778769287109375,-1.716522216796875,1.2252960205078125,0.7334747314453125
1663862566093656800,11.78865673828125,-1.693084716796875,1.061248779296875,1.4056549072265625
1663862566103575000,11.798574951171876,-1.6408843994140625,0.4327392578125,1.913787841796875
1663862566113462800,11.808462890625,-1.502410888671875,-0.058349609375,2.09381103515625
1663862566123350500,11.8183505859375,-1.2222442626953125,-0.226654052734375,2.094879150390625
1663862566133216000,11.828216064453125,-0.9495391845703125,-0.2905731201171875,1.8956756591796875
1663862566143073300,11.8380732421875,-0.8014678955078125,-0.3779296875,1.512176513671875
1663862566152961000,11.8479609375,-0.72369384765625,-0.55902099609375,1.046661376953125
1663862566162848800,11.857848876953126,-0.6491241455078125,-0.7923126220703125,0.600311279296875
1663862566172736300,11.867736328125,-0.5915985107421875,-0.9158782958984375,0.2402496337890625
1663862566182624000,11.8776240234375,-0.5607147216796875,-0.8477020263671875,0.0016326904296875
1663862566192511700,11.88751171875,-0.5596466064453125,-0.630401611328125,-0.142181396484375
1663862566202369000,11.897369140625,-0.5702972412109375,-0.5260009765625,-0.2412567138671875
1663862566212256500,11.907256591796875,-0.6011962890625,-0.6101531982421875,-0.334991455078125
1663862566222174700,11.9171748046875,-0.6725616455078125,-0.743316650390625,-0.4542999267578125
1663862566232032000,11.927031982421875,-0.748199462890625,-0.900970458984375,-0.554443359375
1663862566241889300,11.93688916015625,-0.7918701171875,-1.025604248046875,-0.5810699462890625
1663862566251807500,11.946807373046875,-0.781219482421875,-1.0778045654296875,-0.531005859375
1663862566261695000,11.956695068359375,-0.7215728759765625,-1.072479248046875,-0.4191436767578125
1663862566271582700,11.966582763671875,-0.667236328125,-1.0319976806640625,-0.2891845703125
1663862566281470500,11.976470458984375,-0.6267547607421875,-0.9393157958984375,-0.17413330078125
1663862566291358200,11.986358154296875,-0.5735015869140625,-0.914825439453125,-0.1230010986328125
1663862566301246000,11.996245849609375,-0.5191650390625,-1.0224151611328125,-0.1720123291015625
1663862566311133400,12.006133544921875,-0.4818878173828125,-1.0991058349609375,-0.2849273681640625
1663862566321021200,12.016021240234375,-0.4563140869140625,-1.0575714111328125,-0.4202117919921875
1663862566330909000,12.025908935546875,-0.442474365234375,-0.9553070068359375,-0.5469818115234375
1663862566340766200,12.03576611328125,-0.454193115234375,-0.8828582763671875,-0.6811981201171875
1663862566350653700,12.04565380859375,-0.487213134765625,-0.86474609375,-0.8505859375
1663862566360541400,12.05554150390625,-0.5543212890625,-0.854095458984375,-1.0604400634765625
1663862566370429200,12.06542919921875,-0.658721923828125,-0.8050994873046875,-1.30438232421875
1663862566380317000,12.07531689453125,-0.7407379150390625,-0.7614288330078125,-1.5600433349609375
1663862566390174200,12.08517431640625,-0.762054443359375,-0.766754150390625,-1.7901458740234375
1663862566400031200,12.09503125,-0.7428741455078125,-0.8018951416015625,-1.965911865234375
1663862566409919000,12.1049189453125,-0.737548828125,-0.8146820068359375,-2.1427459716796875
1663862566419806700,12.114806640625,-0.7545928955078125,-0.774200439453125,-2.34515380859375
1663862566429694500,12.124694580078126,-0.7290191650390625,-0.739044189453125,-2.5294342041015625
1663862566439582000,12.13458203125,-0.6363525390625,-0.6335906982421875,-2.6572723388671875
1663862566449469700,12.1444697265625,-0.55645751953125,-0.4066925048828125,-2.694549560546875
1663862566459357400,12.154357421875,-0.4776153564453125,-0.2106781005859375,-2.605072021484375
1663862566469245200,12.1642451171875,-0.403045654296875,-0.125457763671875,-2.413330078125
1663862566479133000,12.1741328125,-0.3572540283203125,-0.1478271484375,-2.1566009521484375
1663862566488990000,12.183989990234375,-0.325286865234375,-0.2469024658203125,-1.8806915283203125
1663862566498847200,12.19384716796875,-0.3359375,-0.390716552734375,-1.691070556640625
1663862566508735000,12.20373486328125,-0.383880615234375,-0.4642181396484375,-1.613311767578125
1663862566518592000,12.213592041015625,-0.34765625,-0.522796630859375,-1.5557861328125
1663862566528510200,12.22351025390625,-0.2762908935546875,-0.616546630859375,-1.4929351806640625
1663862566538367500,12.233367431640625,-0.2389984130859375,-0.650634765625,-1.416229248046875
1663862566548285700,12.24328564453125,-0.2773590087890625,-0.604827880859375,-1.32568359375
1663862566558173400,12.25317333984375,-0.32635498046875,-0.5206756591796875,-1.225555419921875
1663862566568061000,12.26306103515625,-0.346588134765625,-0.355560302734375,-1.1275482177734375
1663862566577918200,12.272918212890625,-0.327423095703125,-0.102020263671875,-0.99652099609375
1663862566587806000,12.282805908203125,-0.2496490478515625,0.123809814453125,-0.828216552734375
1663862566597693700,12.292693603515625,-0.13140869140625,0.194122314453125,-0.668426513671875
1663862566607550700,12.30255078125,-0.1154327392578125,0.2463226318359375,-0.5800018310546875
1663862566617438500,12.3124384765625,-0.1516571044921875,0.2559051513671875,-0.504364013671875
1663862566627326200,12.322326171875,-0.1718902587890625,0.240997314453125,-0.413818359375
1663862566637214000,12.3322138671875,-0.1623077392578125,0.20263671875,-0.313690185546875
1663862566647101700,12.342101806640626,-0.132476806640625,0.1738739013671875,-0.212493896484375
1663862566656989200,12.3519892578125,-0.0930633544921875,0.215423583984375,-0.120880126953125
1663862566666877000,12.361876953125,-0.040863037109375,0.2814788818359375,-0.0239410400390625
1663862566676764700,12.3717646484375,0.0124053955078125,0.332611083984375,0.087921142578125
1663862566686652400,12.38165234375,0.0539398193359375,0.3347320556640625,0.190185546875
1663862566696540200,12.3915400390625,0.095489501953125,0.3272857666015625,0.280731201171875
1663862566706427600,12.401427734375,0.1349029541015625,0.34326171875,0.3648834228515625
1663862566716285000,12.411284912109375,0.1828460693359375,0.3475189208984375,0.438385009765625
1663862566726172700,12.421172607421875,0.23077392578125,0.36669921875,0.4682159423828125
1663862566736060400,12.431060302734375,0.27978515625,0.408233642578125,0.41815185546875
1663862566745948000,12.440947998046875,0.3309173583984375,0.4412689208984375,0.32867431640625
1663862566755835600,12.450835693359375,0.3692626953125,0.4210205078125,0.2860565185546875
1663862566765662500,12.460662353515625,0.38311767578125,0.328338623046875,0.29351806640625
1663862566775550000,12.470550048828125,0.389495849609375,0.2346038818359375,0.28924560546875
1663862566785437700,12.480437744140625,0.3969573974609375,0.2346038818359375,0.2178802490234375
1663862566795325400,12.490325439453125,0.4310455322265625,0.34326171875,0.0666046142578125
1663862566805213200,12.500213134765625,0.497100830078125,0.5275421142578125,-0.1038360595703125
1663862566815101000,12.510100830078125,0.564208984375,0.6766815185546875,-0.20928955078125
1663862566824958000,12.5199580078125,0.6185302734375,0.7139739990234375,-0.2018280029296875
1663862566834845700,12.529845703125,0.664337158203125,0.6873321533203125,-0.093170166015625
1663862566844733400,12.5397333984375,0.7176055908203125,0.64898681640625,0.06341552734375
1663862566854621200,12.54962109375,0.7655487060546875,0.626617431640625,0.2072296142578125
1663862566864508700,12.5595087890625,0.7825927734375,0.662841796875,0.31695556640625
1663862566874396400,12.569396484375,0.7825927734375,0.7448577880859375,0.392578125
1663862566884284200,12.5792841796875,0.814544677734375,0.8492584228515625,0.4777984619140625
1663862566894141400,12.589141357421875,0.8017578125,0.876953125,0.590728759765625
1663862566904029200,12.599029296875,0.7239990234375,0.8268890380859375,0.6951141357421875
1663862566913916700,12.608916748046875,0.588714599609375,0.7406005859375,0.7430572509765625
1663862566923804400,12.618804443359375,0.4427642822265625,0.66070556640625,0.8016510009765625
1663862566933692200,12.628692138671875,0.3650054931640625,0.5626983642578125,0.9028472900390625
1663862566943580000,12.638579833984375,0.32452392578125,0.487060546875,0.99658203125
1663862566953467600,12.648467529296875,0.3096160888671875,0.4615020751953125,1.1510467529296875
1663862566963355100,12.658355224609375,0.2851104736328125,0.4860076904296875,1.354522705078125
1663862566973243000,12.668242919921875,0.255279541015625,0.5413970947265625,1.4727630615234375
1663862566983100200,12.67810009765625,0.25421142578125,0.627685546875,1.4269561767578125
1663862566992988000,12.68798779296875,0.280853271484375,0.6660308837890625,1.2298736572265625
1663862567002875400,12.69787548828125,0.333038330078125,0.7022552490234375,0.9774169921875
1663862567012732700,12.707732666015625,0.3980255126953125,0.800262451171875,0.7782135009765625
1663862567022620400,12.717620361328125,0.471527099609375,0.875885009765625,0.66741943359375
1663862567032477400,12.7274775390625,0.539703369140625,0.9536590576171875,0.6716766357421875
1663862567042365200,12.737365234375,0.5599517822265625,1.08575439453125,0.817626953125
1663862567052253000,12.7472529296875,0.5578155517578125,1.150726318359375,1.03387451171875
1663862567062140700,12.757140625,0.564208984375,1.0868072509765625,1.21282958984375
1663862567072028400,12.7670283203125,0.5450286865234375,0.934478759765625,1.281005859375
1663862567081916000,12.776916015625,0.494964599609375,0.7800140380859375,1.20538330078125
1663862567091773200,12.786773193359375,0.447021484375,0.720367431640625,0.9912567138671875
1663862567101661000,12.796660888671875,0.403350830078125,0.7022552490234375,0.6844635009765625
1663862567111518000,12.80651806640625,0.3639373779296875,0.60638427734375,0.405364990234375
1663862567121436400,12.8164365234375,0.3202667236328125,0.4274139404296875,0.2061614990234375
1663862567131324000,12.826323974609375,0.255279541015625,0.1760101318359375,0.0442352294921875
1663862567141211600,12.836211669921875,0.1913604736328125,-0.0157318115234375,-0.10595703125
1663862567151099400,12.846099365234375,0.140228271484375,-0.0732574462890625,-0.2167510986328125
1663862567160987100,12.855987060546875,0.1040191650390625,-0.0508880615234375,-0.23272705078125
1663862567170844200,12.86584423828125,0.0560760498046875,0.046051025390625,-0.1453704833984375
1663862567180732000,12.87573193359375,-0.016357421875,0.2239532470703125,0.09857177734375
1663862567190619600,12.88561962890625,-0.130340576171875,0.400787353515625,0.3979034423828125
1663862567200507400,12.89550732421875,-0.2432708740234375,0.398651123046875,0.47674560546875
1663862567210395100,12.90539501953125,-0.313568115234375,0.3485870361328125,0.430938720703125
1663862567220252200,12.915252197265625,-0.33807373046875,0.295318603515625,0.3297271728515625
1663862567230109400,12.925109375,-0.3860015869140625,0.2207489013671875,0.191253662109375
1663862567239997200,12.9349970703125,-0.430755615234375,0.100372314453125,0.06341552734375
1663862567249884700,12.944884765625,-0.3998565673828125,-0.046630859375,-0.0228729248046875
1663862567259772400,12.9547724609375,-0.3071746826171875,-0.1978912353515625,-0.0356597900390625
1663862567269660200,12.96466015625,-0.2379302978515625,-0.3470306396484375,0.061279296875
1663862567279548000,12.9745478515625,-0.2176971435546875,-0.49298095703125,0.2881927490234375
1663862567289435600,12.984435546875,-0.202789306640625,-0.581390380859375,0.5140228271484375
1663862567299323100,12.9943232421875,-0.1814727783203125,-0.581390380859375,0.57794189453125
1663862567309211000,13.0042109375,-0.1644287109375,-0.5174713134765625,0.4937896728515625
1663862567319098600,13.0140986328125,-0.1729583740234375,-0.4130859375,0.3329315185546875
1663862567328986400,13.023986328125,-0.1931915283203125,-0.320404052734375,0.1464996337890625
1663862567338843400,13.033843505859375,-0.2113037109375,-0.271392822265625,-0.0122222900390625
1663862567348731100,13.043731201171875,-0.22088623046875,-0.2682037353515625,-0.1219329833984375
1663862567358619000,13.053618896484375,-0.226226806640625,-0.3044281005859375,-0.1954498291015625
