time,seconds_elapsed,z,y,x
1663862554551429600,0.2464296875,0.6250457763671875,-0.653045654296875,0.439544677734375
1663862554561317400,0.2563173828125,0.4354248046875,-0.6157684326171875,0.6728363037109375
1663862554571205000,0.266205078125,0.0498046875,-0.6615753173828125,0.790008544921875
1663862554581092900,0.2760927734375,-0.3070526123046875,-0.7574462890625,0.848602294921875
1663862554590980400,0.28598046875,-0.522247314453125,-0.867156982421875,0.8826904296875
1663862554600868000,0.2958681640625,-0.613861083984375,-0.8991241455078125,0.92742919921875
1663862554610755800,0.305755859375,-0.6394195556640625,-0.835205078125,0.9806976318359375
1663862554620643600,0.3156435546875,-0.6372833251953125,-0.7254791259765625,0.9817657470703125
1663862554630531300,0.32553125,-0.5829620361328125,-0.5454559326171875,0.88482666015625
1663862554640418800,0.335418701171875,-0.3944091796875,-0.31109619140625,0.676025390625
1663862554650306600,0.345306640625,-0.06097412109375,-0.0778045654296875,0.3628387451171875
1663862554660133400,0.35513330078125,0.2064056396484375,0.1160736083984375,0.0880126953125
1663862554669990400,0.364990478515625,0.290557861328125,0.25775146484375,0.03900146484375
1663862554679908600,0.37490869140625,0.3182525634765625,0.326995849609375,0.1934661865234375
1663862554689796400,0.38479638671875,0.3416900634765625,0.3216705322265625,0.3543243408203125
1663862554699684000,0.39468408203125,0.2958831787109375,0.270538330078125,0.3958740234375
1663862554709571800,0.40457177734375,0.1488800048828125,0.2779998779296875,0.3202362060546875
1663862554719428900,0.414428955078125,-0.0332794189453125,0.3238067626953125,0.1838836669921875
1663862554729316600,0.424316650390625,-0.1398162841796875,0.3227386474609375,0.063507080078125
1663862554739174000,0.434173828125,-0.097198486328125,0.270538330078125,0.0475311279296875
1663862554749092000,0.444092041015625,0.0668487548828125,0.204498291015625,0.1497955322265625
1663862554758979600,0.4539794921875,0.2596588134765625,0.101165771484375,0.3021240234375
1663862554768867300,0.463867431640625,0.389617919921875,0.0478973388671875,0.4267578125
1663862554778724600,0.473724609375,0.3970794677734375,0.1160736083984375,0.43634033203125
1663862554788581600,0.48358154296875,0.3203887939453125,0.237518310546875,0.2946624755859375
1663862554798469400,0.493469482421875,0.22344970703125,0.45269775390625,0.0432586669921875
1663862554808357000,0.503357177734375,0.11798095703125,0.6156768798828125,-0.2038726806640625
1663862554818214400,0.51321435546875,0.039154052734375,0.6519012451171875,-0.357269287109375
1663862554828132600,0.523132568359375,0.0103912353515625,0.5741424560546875,-0.4329071044921875
1663862554838020400,0.533020263671875,0.07110595703125,0.3813323974609375,-0.394561767578125
1663862554847907800,0.542907958984375,0.210662841796875,0.112884521484375,-0.2422332763671875
1663862554857795600,0.552795654296875,0.321441650390625,-0.1097564697265625,-0.096282958984375
1663862554867683300,0.562683349609375,0.3278350830078125,-0.1907196044921875,-0.0920257568359375
1663862554877571000,0.572571044921875,0.2639312744140625,-0.1438446044921875,-0.21240234375
1663862554887458800,0.582458740234375,0.2330322265625,0.030853271484375,-0.3540802001953125
1663862554897315800,0.59231591796875,0.2266387939453125,0.2194061279296875,-0.4318389892578125
1663862554907203600,0.60220361328125,0.2287750244140625,0.268402099609375,-0.4201202392578125
1663862554917060900,0.612060791015625,0.2969512939453125,0.167205810546875,-0.3178558349609375
1663862554926948400,0.6219482421875,0.3757781982421875,0.007415771484375,-0.1602020263671875
1663862554936836000,0.631836181640625,0.3736419677734375,-0.0884552001953125,-0.004669189453125
1663862554946723800,0.641723876953125,0.401336669921875,-0.1097564697265625,0.098663330078125
1663862554956611600,0.651611572265625,0.5217132568359375,-0.138519287109375,0.0933380126953125
1663862554966468600,0.661468505859375,0.6580657958984375,-0.266357421875,0.0326080322265625
1663862554976356400,0.6713564453125,0.723052978515625,-0.56463623046875,-0.0142669677734375
1663862554986244000,0.681244140625,0.6964263916015625,-1.062103271484375,-0.030242919921875
1663862554996101400,0.691101318359375,0.5930938720703125,-1.518035888671875,0.0326080322265625
1663862555006019600,0.70101953125,0.3757781982421875,-1.6256256103515625,0.1838836669921875
1663862555015907000,0.710906982421875,0.1360931396484375,-1.358245849609375,0.369232177734375
1663862555025794800,0.720794921875,0.0199737548828125,-0.9534454345703125,0.4906768798828125
1663862555035682600,0.7306826171875,0.0902862548828125,-0.6956634521484375,0.451263427734375
1663862555045570300,0.7405703125,0.2298431396484375,-0.6583709716796875,0.324493408203125
1663862555055458000,0.7504580078125,0.28948974609375,-0.6370697021484375,0.2616424560546875
1663862555065345800,0.760345703125,0.2841644287109375,-0.4996490478515625,0.2414093017578125
1663862555075202800,0.770202880859375,0.2607269287109375,-0.241851806640625,0.2414093017578125
1663862555085060000,0.78006005859375,0.3065338134765625,0.02020263671875,0.242462158203125
1663862555094947800,0.78994775390625,0.4205169677734375,0.0265960693359375,0.23394775390625
1663862555104835300,0.79983544921875,0.504669189453125,-0.2013702392578125,0.31597900390625
1663862555114692600,0.809692626953125,0.4822998046875,-0.4879302978515625,0.4565887451171875
1663862555124610800,0.81961083984375,0.392822265625,-0.6754150390625,0.5205078125
1663862555134498600,0.82949853515625,0.2330322265625,-0.4900665283203125,0.50665283203125
1663862555144386300,0.83938623046875,0.1563262939453125,-0.232269287109375,0.383087158203125
1663862555154273800,0.849273681640625,0.2170562744140625,-0.0639495849609375,0.2307586669921875
1663862555164161500,0.85916162109375,0.288421630859375,0.06494140625,0.2200927734375
1663862555174049300,0.86904931640625,0.3289031982421875,-0.03839111328125,0.390533447265625
1663862555183906600,0.878906494140625,0.3885650634765625,-0.495391845703125,0.6802978515625
1663862555193794000,0.8887939453125,0.4908294677734375,-1.175018310546875,0.998809814453125
1663862555203681800,0.898681884765625,0.5707244873046875,-1.814178466796875,1.2981414794921875
1663862555213569500,0.908569580078125,0.6239776611328125,-2.0261688232421875,1.4515380859375
1663862555223457300,0.918457275390625,0.652740478515625,-1.7790374755859375,1.39935302734375
1663862555233305000,0.92830517578125,0.7763214111328125,-1.522308349609375,1.236358642578125
1663862555243192600,0.938192626953125,0.914794921875,-1.26025390625,0.9945526123046875
1663862555253080300,0.948080322265625,1.0511474609375,-1.1835479736328125,0.7665863037109375
1663862555262968000,0.957968017578125,1.212005615234375,-1.5127105712890625,0.59613037109375
1663862555272855800,0.967855712890625,1.29083251953125,-2.180633544921875,0.4693756103515625
1663862555282712800,0.977712890625,1.22479248046875,-2.93377685546875,0.3745574951171875
1663862555292570000,0.987570068359375,1.112945556640625,-3.5676116943359375,0.30426025390625
1663862555302457900,0.997457763671875,1.1299896240234375,-4.154571533203125,0.2967987060546875
1663862555312345600,1.007345703125,1.284454345703125,-4.8086395263671875,0.3724365234375
1663862555322233000,1.017233154296875,1.496429443359375,-5.2539215087890625,0.5023956298828125
1663862555332120800,1.027120849609375,1.78192138671875,-5.1985321044921875,0.6973419189453125
1663862555342008600,1.037008544921875,2.22613525390625,-4.80438232421875,1.045684814453125
1663862555351896300,1.046896240234375,2.8493194580078125,-4.40277099609375,1.4962921142578125
1663862555361784000,1.0567841796875,3.564117431640625,-3.710357666015625,1.966064453125
1663862555371671600,1.066671630859375,4.2757110595703125,-2.829376220703125,2.4219970703125
1663862555381559300,1.076559326171875,4.8807830810546875,-2.2147216796875,2.7714080810546875
1663862555391416600,1.08641650390625,5.3004913330078125,-2.0517425537109375,2.9865875244140625
1663862555401304300,1.09630419921875,5.54656982421875,-2.3212432861328125,3.073944091796875
1663862555411161300,1.106161376953125,5.580657958984375,-3.0520172119140625,2.799102783203125
1663862555421049000,1.116049072265625,5.1992950439453125,-4.448577880859375,1.682708740234375
1663862555430936800,1.125936767578125,4.838165283203125,-5.1431427001953125,0.6398162841796875
1663862555440824600,1.135824462890625,5.1758575439453125,-4.4698944091796875,0.5940093994140625
1663862555450681600,1.145681640625,5.8011627197265625,-2.9529571533203125,1.0382232666015625
1663862555460539000,1.155538818359375,6.046173095703125,-1.67889404296875,1.316253662109375
1663862555470457000,1.16545703125,5.7702789306640625,-1.6107177734375,1.1649932861328125
1663862555480314400,1.175314453125,5.310089111328125,-2.4362945556640625,0.836883544921875
1663862555490232600,1.185232666015625,5.0480194091796875,-2.9263153076171875,0.8443450927734375
1663862555500089600,1.195089599609375,5.03631591796875,-2.6099395751953125,1.11065673828125
1663862555509947000,1.20494677734375,5.0149993896484375,-2.03363037109375,1.2843017578125
1663862555519865000,1.214864990234375,4.8626708984375,-1.734283447265625,1.3130645751953125
1663862555529752800,1.2247529296875,4.621917724609375,-1.6884765625,1.353546142578125
1663862555539640300,1.234640380859375,4.2288360595703125,-1.5958099365234375,1.614532470703125
1663862555549528000,1.244528076171875,3.6312255859375,-1.32415771484375,2.037445068359375
1663862555559415800,1.254415771484375,2.9174957275390625,-1.0599822998046875,2.31121826171875
1663862555569303600,1.264303466796875,2.2548980712890625,-0.84478759765625,2.3239898681640625
1663862555579160600,1.27416064453125,1.8128204345703125,-0.62109375,2.192962646484375
1663862555589048300,1.28404833984375,1.5720672607421875,-0.413360595703125,2.070465087890625
1663862555598905600,1.293905517578125,1.4154815673828125,-0.42401123046875,1.989501953125
1663862555608793300,1.30379345703125,1.176849365234375,-0.7297515869140625,2.0182647705078125
1663862555618680800,1.313680908203125,0.725189208984375,-1.07275390625,2.1333160400390625
1663862555628568600,1.323568603515625,0.1861572265625,-1.37103271484375,2.1919097900390625
1663862555638456300,1.333456298828125,-0.3177032470703125,-1.44879150390625,2.113067626953125
1663862555648344000,1.343343994140625,-0.6490020751953125,-1.1696929931640625,1.86273193359375
1663862555658201000,1.353201171875,-0.738494873046875,-0.79046630859375,1.546356201171875
1663862555668088800,1.3630888671875,-0.712921142578125,-0.686065673828125,1.2193145751953125
1663862555677946000,1.372946044921875,-0.6617889404296875,-0.9438629150390625,0.90399169921875
1663862555687833900,1.382833740234375,-0.442352294921875,-1.1941986083984375,0.61956787109375
1663862555697721600,1.3927216796875,-0.1142425537109375,-1.14306640625,0.35858154296875
1663862555707639800,1.402639892578125,0.097747802734375,-0.8543853759765625,0.246734619140625
1663862555717527300,1.41252734375,0.2852325439453125,-0.5678253173828125,0.3287506103515625
1663862555727415000,1.4224150390625,0.5014801025390625,-0.5124359130859375,0.45977783203125
1663862555737272300,1.432272216796875,0.57391357421875,-0.688201904296875,0.6845550537109375
1663862555747129300,1.44212939453125,0.5110626220703125,-1.3444061279296875,0.9817657470703125
1663862555757017000,1.45201708984375,0.37896728515625,-2.13482666015625,1.017974853515625
1663862555766904800,1.46190478515625,0.313995361328125,-2.6568145751953125,0.79107666015625
1663862555776792600,1.47179248046875,0.4194488525390625,-2.37451171875,0.8347625732421875
1663862555786680300,1.481680419921875,0.551544189453125,-1.6171112060546875,1.3812408447265625
1663862555796567800,1.49156787109375,0.2863006591796875,-1.282623291015625,1.887237548828125
1663862555806455600,1.50145556640625,-0.4093170166015625,-0.8991241455078125,1.98736572265625
1663862555816343300,1.51134326171875,-0.64581298828125,-0.4985809326171875,1.4803009033203125
1663862555826231000,1.52123095703125,-0.80560302734375,-0.16302490234375,0.829437255859375
1663862555836118800,1.531118896484375,-1.0847015380859375,0.02020263671875,0.44805908203125
1663862555846006300,1.54100634765625,-1.422393798828125,0.09796142578125,0.4906768798828125
1663862555855894000,1.55089404296875,-1.7206573486328125,0.136322021484375,0.7186431884765625
1663862555865781800,1.56078173828125,-1.7078857421875,0.112884521484375,0.8198394775390625
1663862555875639000,1.57063916015625,-0.7789764404296875,-0.0756683349609375,0.6962738037109375
1663862555885526500,1.580526611328125,0.393890380859375,-0.9481201171875,0.84967041015625
1663862555895414300,1.590414306640625,0.8860321044921875,-1.7310943603515625,0.72503662109375
1663862555905302000,1.600302001953125,1.1949615478515625,-1.6384124755859375,0.3788299560546875
1663862555915189800,1.610189697265625,1.7563629150390625,-1.4701080322265625,0.1252899169921875
1663862555925047000,1.620047119140625,2.3838043212890625,-1.919647216796875,-0.06219482421875
1663862555934934500,1.6299345703125,3.1582489013671875,-3.057342529296875,-0.176177978515625
1663862555944822300,1.639822265625,4.2767791748046875,-3.7721405029296875,-0.220916748046875
1663862555954679600,1.649679443359375,5.39849853515625,-3.4110107421875,-0.2368927001953125
1663862555964567300,1.6595673828125,5.8821258544921875,-3.0648040771484375,-0.326385498046875
1663862555974454800,1.669454833984375,5.9172821044921875,-2.1049957275390625,-0.0568695068359375
1663862555984342500,1.679342529296875,6.1345977783203125,0.1597442626953125,0.303192138671875
1663862555994199800,1.68919970703125,6.0568389892578125,0.872406005859375,0.1945343017578125
1663862556004087600,1.699087646484375,5.719146728515625,-0.2716827392578125,-0.1037445068359375
1663862556013975000,1.70897509765625,5.77667236328125,-0.4847412109375,-0.451019287109375
1663862556023862800,1.71886279296875,6.027008056640625,0.4686737060546875,-0.4446258544921875
1663862556033750500,1.72875048828125,5.549774169921875,0.98638916015625,0.060302734375
1663862556043638300,1.73863818359375,4.1159210205078125,0.2087554931640625,0.47576904296875
1663862556053526000,1.748526123046875,1.7904510498046875,-1.029083251953125,0.63555908203125
1663862556063413500,1.75841357421875,-0.4348907470703125,-1.5031280517578125,0.7271575927734375
1663862556073301200,1.76830126953125,-0.418914794921875,-1.0887451171875,0.98602294921875
1663862556083158500,1.778158447265625,0.2980194091796875,-0.98541259765625,1.010528564453125
1663862556093046300,1.78804638671875,0.322509765625,-1.132415771484375,0.827301025390625
1663862556102933800,1.797933837890625,0.2479400634765625,-0.7478485107421875,0.664306640625
1663862556112821500,1.807821533203125,0.241546630859375,-0.1811370849609375,0.509857177734375
1663862556122709200,1.817709228515625,0.2170562744140625,-0.0905914306640625,0.4118499755859375
1663862556132597000,1.827596923828125,0.2255706787109375,-0.359039306640625,0.413970947265625
1663862556142454000,1.8374541015625,0.2841644287109375,-0.70843505859375,0.4661712646484375
1663862556152341800,1.847341796875,0.3097381591796875,-0.878875732421875,0.486419677734375
1663862556162229500,1.8572294921875,0.1936187744140625,-0.639190673828125,0.2403411865234375
1663862556172117200,1.8671171875,0.0359649658203125,0.0937042236328125,-0.13995361328125
1663862556182005000,1.8770048828125,0.083892822265625,0.508087158203125,-0.3721923828125
1663862556191862000,1.886862060546875,0.2042694091796875,0.4931793212890625,-0.4701995849609375
1663862556201749800,1.896749755859375,0.1605987548828125,0.5911865234375,-0.540496826171875
1663862556211637500,1.906637451171875,-0.0215606689453125,0.808502197265625,-0.62359619140625
1663862556221525200,1.916525146484375,-0.2857513427734375,0.941650390625,-0.65447998046875
1663862556231413000,1.9264130859375,-0.395477294921875,1.0492401123046875,-0.5394287109375
1663862556241270000,1.93627001953125,-0.29107666015625,1.0066375732421875,-0.373260498046875
1663862556251157800,1.94615771484375,0.0316925048828125,0.6029052734375,-0.1378326416015625
1663862556261045500,1.95604541015625,0.629302978515625,0.0159454345703125,0.19879150390625
1663862556270933200,1.965933349609375,1.3473052978515625,-0.6605072021484375,0.361785888671875
1663862556280820700,1.97582080078125,1.82666015625,-1.031219482421875,0.178558349609375
1663862556290708500,1.98570849609375,2.090850830078125,-0.9651641845703125,0.01983642578125
1663862556300565800,1.995565673828125,2.24957275390625,-1.2772979736328125,-0.1378326416015625
1663862556310453500,2.00545361328125,2.4349365234375,-1.792877197265625,-0.38177490234375
1663862556320341000,2.015341064453125,2.2772674560546875,-2.498077392578125,-0.554351806640625
1663862556330228700,2.025228759765625,2.1622314453125,-4.0927886962890625,-0.9122772216796875
1663862556340116500,2.035116455078125,1.9608917236328125,-5.3444671630859375,-0.69921875
1663862556349973800,2.044973876953125,2.100433349609375,-4.027801513671875,0.7292938232421875
1663862556359861200,2.054861328125,2.59259033203125,-2.7324371337890625,1.271514892578125
1663862556369749000,2.0647490234375,3.0421295166015625,-2.1550750732421875,0.840087890625
1663862556379636700,2.07463671875,3.411773681640625,-1.781158447265625,0.1604461669921875
1663862556389524500,2.0845244140625,3.3169708251953125,-1.6075286865234375,0.1007843017578125
1663862556399412200,2.094412109375,2.960113525390625,-1.861053466796875,0.4555206298828125
1663862556409269200,2.104269287109375,2.4604949951171875,-1.6181793212890625,0.3649749755859375
1663862556419157000,2.114156982421875,2.0525054931640625,-1.0109710693359375,0.46405029296875
1663862556429044700,2.124044677734375,1.694580078125,-0.9012603759765625,1.0850982666015625
1663862556438932500,2.133932373046875,1.261016845703125,-1.0535888671875,1.501617431640625
1663862556448820200,2.1438203125,0.69110107421875,-1.0013885498046875,1.72637939453125
1663862556458677200,2.15367724609375,0.1446075439453125,-1.1739654541015625,2.0289154052734375
1663862556468534500,2.163534423828125,0.0796356201171875,-1.6416168212890625,2.1428985595703125
1663862556478391600,2.1733916015625,1.4836578369140625,-2.0836944580078125,1.772186279296875
1663862556488279300,2.183279296875,3.3766326904296875,-1.5638427734375,1.4344940185546875
1663862556498167000,2.1931669921875,2.981414794921875,-1.1238861083984375,1.374847412109375
1663862556508085200,2.203085205078125,1.6295928955078125,-0.765960693359375,1.3332977294921875
1663862556517973000,2.212972900390625,1.1981658935546875,-0.2961883544921875,0.938079833984375
1663862556527830000,2.222830078125,1.245025634765625,-0.354766845703125,0.6259613037109375
1663862556537687300,2.232687255859375,1.0852508544921875,-0.540130615234375,0.6280975341796875
1663862556547575000,2.242574951171875,0.6239776611328125,-0.2695465087890625,0.5375518798828125
1663862556557462800,2.252462890625,0.1371612548828125,-0.062896728515625,0.3138427734375
1663862556567319800,2.26231982421875,0.050872802734375,-0.3984527587890625,0.1721649169921875
1663862556577238000,2.272238037109375,0.05194091796875,-0.719085693359375,-0.0238494873046875
1663862556587125800,2.282125732421875,-0.1270294189453125,-0.4889984130859375,-0.190032958984375
1663862556596983000,2.291983154296875,-0.36883544921875,-0.1065673828125,-0.2784423828125
1663862556606870500,2.30187060546875,-0.553131103515625,0.13311767578125,-0.3306427001953125
1663862556616758300,2.31175830078125,-0.6671142578125,0.2598876953125,-0.4201202392578125
1663862556626646000,2.32164599609375,-0.7629852294921875,0.315277099609375,-0.508544921875
1663862556636533800,2.33153369140625,-0.8588714599609375,0.352569580078125,-0.5500946044921875
1663862556646390800,2.341390869140625,-0.851409912109375,0.3802642822265625,-0.5394287109375
1663862556656309200,2.351309326171875,-0.6394195556640625,0.3909149169921875,-0.29229736328125
1663862556666196700,2.36119677734375,-0.1366119384765625,0.818084716796875,0.406524658203125
1663862556676084500,2.37108447265625,0.1563262939453125,0.9618988037109375,0.7974700927734375
1663862556685972200,2.38097216796875,0.253265380859375,0.8990478515625,0.5002593994140625
1663862556695860000,2.39085986328125,0.253265380859375,0.5400543212890625,0.0699005126953125
1663862556705747700,2.400747802734375,0.1712493896484375,0.1384429931640625,-0.2400970458984375
1663862556715635200,2.41063525390625,-0.0119781494140625,-0.10443115234375,-0.4350433349609375
1663862556725492500,2.420492431640625,-0.153656005859375,-0.3718109130859375,-0.3775177001953125
1663862556735380200,2.430380126953125,-0.140869140625,-0.6700897216796875,-0.1495513916015625
1663862556745268000,2.44026806640625,-0.174957275390625,-0.8991241455078125,0.0805511474609375
1663862556755155500,2.450155517578125,-0.258056640625,-0.9779510498046875,0.221160888671875
1663862556765043200,2.460043212890625,-0.3070526123046875,-0.9800872802734375,0.242462158203125
1663862556774900500,2.469900390625,-0.280426025390625,-0.9225616455078125,0.15191650390625
1663862556784788200,2.479788330078125,-0.17816162109375,-0.8426666259765625,0.0443267822265625
1663862556794645200,2.489645263671875,-0.0982666015625,-0.5550384521484375,-0.0888214111328125
1663862556804533000,2.499532958984375,-0.11212158203125,-0.289794921875,-0.141021728515625
1663862556814420700,2.509420654296875,-0.1217041015625,-0.1662139892578125,-0.1026763916015625
1663862556824308500,2.51930859375,-0.0780181884765625,-0.150238037109375,-0.039825439453125
1663862556834196000,2.529196044921875,-0.0279541015625,-0.0873870849609375,0.0443267822265625
1663862556844083700,2.539083740234375,-0.01837158203125,0.056427001953125,0.0933380126953125
1663862556853971500,2.548971435546875,-0.0130462646484375,0.1416473388671875,0.0922698974609375
1663862556863859200,2.558859130859375,-0.0109100341796875,0.1501617431640625,0.060302734375
1663862556873747000,2.568746826171875,0.006134033203125,0.08624267578125,0.0123748779296875
1663862556883604000,2.57860400390625,0.0029296875,0.0042266845703125,-0.0526123046875
1663862556893491700,2.58849169921875,-0.0236968994140625,-0.0671539306640625,-0.10906982421875
1663862556903379500,2.59837939453125,-0.06524658203125,-0.1300048828125,-0.15167236328125
1663862556913267200,2.60826708984375,-0.10040283203125,-0.20989990234375,-0.197479248046875
1663862556923155000,2.618155029296875,-0.1280975341796875,-0.2588958740234375,-0.2400970458984375
1663862556933042400,2.62804248046875,-0.1451416015625,-0.2461090087890625,-0.269927978515625
1663862556942899700,2.637899658203125,-0.141937255859375,-0.208831787109375,-0.300811767578125
1663862556952787500,2.647787353515625,-0.1387481689453125,-0.1481170654296875,-0.3764495849609375
1663862556962675200,2.65767529296875,-0.1568603515625,-0.082061767578125,-0.4893646240234375
1663862556972562700,2.667562744140625,-0.187744140625,-0.0309295654296875,-0.6267852783203125
1663862556982450400,2.677450439453125,-0.223968505859375,-0.0000457763671875,-0.7524871826171875
1663862556992307700,2.6873076171875,-0.259124755859375,-0.0074920654296875,-0.848358154296875
1663862557002195500,2.697195556640625,-0.278289794921875,-0.0596923828125,-0.939971923828125
1663862557012083000,2.7070830078125,-0.2953338623046875,-0.0895233154296875,-1.022003173828125
1663862557021970700,2.716970703125,-0.3219757080078125,-0.0660858154296875,-1.10296630859375
1663862557031858400,2.7268583984375,-0.327301025390625,-0.0341339111328125,-1.1881866455078125
1663862557041715700,2.7367158203125,-0.2846832275390625,-0.049041748046875,-1.2425079345703125
1663862557051603200,2.746603271484375,-0.226104736328125,-0.09698486328125,-1.2073516845703125
1663862557061491000,2.756490966796875,-0.1930694580078125,-0.12786865234375,-1.137054443359375
1663862557071378700,2.766378662109375,-0.214385986328125,-0.10870361328125,-1.065673828125
1663862557081266400,2.776266357421875,-0.292144775390625,-0.0682220458984375,-0.9644775390625
1663862557091154200,2.786154296875,-0.3890838623046875,-0.1140289306640625,-0.895233154296875
1663862557101011200,2.79601123046875,-0.4593963623046875,-0.2503814697265625,-0.951690673828125
1663862557110899000,2.80589892578125,-0.4700469970703125,-0.4431915283203125,-1.144500732421875
1663862557120786700,2.81578662109375,-0.4135894775390625,-0.587005615234375,-1.339447021484375
1663862557130674400,2.82567431640625,-0.3358154296875,-0.54119873046875,-1.3362579345703125
1663862557140562200,2.835562255859375,-0.270843505859375,-0.347320556640625,-1.158355712890625
1663862557150419200,2.845419189453125,-0.2399444580078125,-0.140655517578125,-0.9825897216796875
1663862557160307000,2.855306884765625,-0.223968505859375,-0.0192108154296875,-0.9442291259765625
1663862557170194700,2.865194580078125,-0.176025390625,0.0010223388671875,-1.0156097412109375
1663862557180082400,2.87508251953125,-0.0865478515625,-0.058624267578125,-1.13385009765625
1663862557189970000,2.884969970703125,0.0306243896484375,-0.0415802001953125,-1.2201385498046875
1663862557199857700,2.894857666015625,0.1467437744140625,0.044708251953125,-1.2339935302734375
1663862557209715000,2.90471484375,0.2564697265625,0.075592041015625,-1.228668212890625
1663862557219602700,2.914602783203125,0.3544769287109375,0.1395111083984375,-1.30535888671875
1663862557229459700,2.924459716796875,0.4535369873046875,0.1597442626953125,-1.576995849609375
1663862557239347500,2.934347412109375,0.563262939453125,0.08624267578125,-2.0734100341796875
1663862557249235200,2.944235107421875,0.6815032958984375,-0.0447845458984375,-2.7605133056640625
1663862557259123000,2.954123046875,0.77099609375,-0.1779327392578125,-3.4113922119140625
1663862557269010400,2.964010498046875,0.791229248046875,-0.3089599609375,-3.7394866943359375
1663862557278867700,2.97386767578125,0.725189208984375,-0.5859375,-3.77783203125
1663862557288755500,2.98375537109375,0.6058807373046875,-1.06103515625,-3.792755126953125
1663862557298643200,2.993643310546875,0.5099945068359375,-1.58941650390625,-3.8406829833984375
1663862557308530700,3.00353076171875,0.471649169921875,-2.0176544189453125,-3.802337646484375
1663862557318418400,3.01341845703125,0.485504150390625,-2.2903594970703125,-3.6287078857421875
1663862557328306200,3.02330615234375,0.506805419921875,-2.3329620361328125,-3.3325653076171875
1663862557338194000,3.03319384765625,0.51959228515625,-2.1795654296875,-2.946929931640625
1663862557348081700,3.04308154296875,0.574981689453125,-1.87384033203125,-2.4995269775390625
1663862557357969200,3.05296923828125,0.6058807373046875,-1.4711761474609375,-2.0052337646484375
1663862557367826400,3.062826416015625,0.44927978515625,-0.9300079345703125,-1.5333251953125
1663862557377683700,3.07268359375,0.1382293701171875,-0.5081634521484375,-1.1189422607421875
1663862557387571500,3.082571533203125,-0.0449981689453125,-0.504974365234375,-0.8046875
1663862557397428500,3.092428466796875,0.003997802734375,-0.662628173828125,-0.5490264892578125
1663862557407346700,3.1023466796875,0.0966796875,-0.573150634765625,-0.265655517578125
1663862557417204000,3.112203857421875,0.1083984375,-0.1822052001953125,0.0326080322265625
1663862557427091700,3.122091796875,0.11798095703125,0.2364501953125,0.31597900390625
1663862557436979200,3.131979248046875,0.189361572265625,0.5038299560546875,0.575897216796875
1663862557446867000,3.141866943359375,0.3097381591796875,0.6167449951171875,0.794281005859375
1663862557456724200,3.15172412109375,0.40667724609375,0.6433868408203125,0.99560546875
1663862557466612000,3.161612060546875,0.450347900390625,0.6774749755859375,1.201202392578125
1663862557476499500,3.17149951171875,0.471649169921875,0.7882537841796875,1.4142608642578125
1663862557486356700,3.181356689453125,0.481231689453125,0.9725494384765625,1.6294403076171875
1663862557496244500,3.191244384765625,0.4705810546875,1.1951904296875,1.828643798828125
1663862557506132200,3.20113232421875,0.4567413330078125,1.4178314208984375,2.0076141357421875
1663862557516019700,3.211019775390625,0.4865570068359375,1.639404296875,2.159942626953125
1663862557525907500,3.220907470703125,0.5781707763671875,1.833282470703125,2.284576416015625
1663862557535795200,3.230795166015625,0.73583984375,1.95684814453125,2.3825836181640625
1663862557545683000,3.240682861328125,0.94036865234375,2.002655029296875,2.47100830078125
1663862557555570700,3.25057080078125,1.1331787109375,2.0015869140625,2.58392333984375
1663862557565458200,3.260458251953125,1.2620697021484375,1.9877471923828125,2.70855712890625
1663862557575315500,3.2703154296875,1.3323822021484375,1.922760009765625,2.7724761962890625
1663862557585203200,3.280203125,1.3877716064453125,1.76617431640625,2.728790283203125
1663862557595091000,3.290091064453125,1.4559478759765625,1.5967864990234375,2.6339874267578125
1663862557604948000,3.299947998046875,1.4836578369140625,1.593597412109375,2.538116455078125
1663862557614835700,3.309835693359375,1.3515625,1.868438720703125,2.4624786376953125
1663862557624723500,3.319723388671875,1.0458221435546875,2.357391357421875,2.3506317138671875
1663862557634611200,3.329611083984375,0.6729888916015625,2.7984161376953125,2.181243896484375
1663862557644499000,3.3394990234375,0.299072265625,3.121185302734375,1.9596710205078125
1663862557654356000,3.34935595703125,0.0348968505859375,3.2681884765625,1.646484375
1663862557664243700,3.35924365234375,-0.0940093994140625,3.278839111328125,1.3897552490234375
1663862557674131500,3.36913134765625,-0.132354736328125,3.2096099853515625,1.2874908447265625
1663862557684019200,3.379019287109375,-0.0929412841796875,3.0966796875,1.2874908447265625
1663862557693906700,3.38890673828125,0.0008087158203125,2.917724609375,1.273651123046875
1663862557703794400,3.39879443359375,0.086029052734375,2.6226348876953125,1.193756103515625
1663862557713651700,3.408651611328125,0.1126556396484375,2.2157135009765625,1.0499420166015625
1663862557723539500,3.41853955078125,0.1009368896484375,1.85565185546875,0.8922882080078125
1663862557733427000,3.428427001953125,0.1201171875,1.798126220703125,0.7857513427734375
1663862557743314700,3.438314697265625,0.1691131591796875,2.0921478271484375,0.7399444580078125
1663862557753172000,3.448171875,0.2213134765625,2.5470123291015625,0.721832275390625
1663862557763059700,3.458059814453125,0.28948974609375,2.9443511962890625,0.6962738037109375
1663862557772947200,3.467947265625,0.3864288330078125,3.154205322265625,0.6739044189453125
1663862557782835000,3.4778349609375,0.508941650390625,3.1158599853515625,0.700531005859375
1663862557792722700,3.48772265625,0.6133270263671875,2.811187744140625,0.7772369384765625
1663862557802610400,3.4976103515625,0.690032958984375,2.4095916748046875,0.8336944580078125
1663862557812498200,3.507498291015625,0.736907958984375,2.1134490966796875,0.8336944580078125
1663862557822385700,3.5173857421875,0.7379608154296875,1.936614990234375,0.813446044921875
1663862557832273400,3.5272734375,0.7049407958984375,1.7704315185546875,0.8209075927734375
1663862557842161200,3.5371611328125,0.6463470458984375,1.5073089599609375,0.8475341796875
1663862557852049000,3.547048828125,0.5238494873046875,1.13446044921875,0.76763916015625
1663862557861906000,3.556906005859375,0.3086700439453125,0.726470947265625,0.4470062255859375
1663862557871763200,3.56676318359375,0.0647125244140625,0.418609619140625,-0.0345001220703125
1663862557881651000,3.57665087890625,-0.1493988037109375,0.48785400390625,-0.486175537109375
1663862557891538700,3.58653857421875,-0.38055419921875,0.7307281494140625,-0.7397003173828125
1663862557901426400,3.596426513671875,-0.6500701904296875,0.8148956298828125,-0.74609375
1663862557911283500,3.606283447265625,-0.7779083251953125,0.7573699951171875,-0.5681915283203125
1663862557921171200,3.616171142578125,-0.5115814208984375,0.7978515625,-0.3636627197265625
1663862557931059000,3.626058837890625,-0.0599212646484375,0.6380615234375,-0.220916748046875
1663862557940946700,3.63594677734375,0.253265380859375,0.1938323974609375,-0.061126708984375
1663862557950834200,3.645834228515625,0.4705810546875,0.0148773193359375,0.0123748779296875
1663862557960691500,3.65569140625,0.633575439453125,0.1309814453125,-0.265655517578125
1663862557970579200,3.6655791015625,0.55047607421875,0.293975830078125,-0.700286865234375
1663862557980436200,3.675436279296875,0.187225341796875,0.6859893798828125,-0.5916290283203125
1663862557990324000,3.685323974609375,-0.0396728515625,0.929931640625,-0.0568695068359375
1663862558000211700,3.695211669921875,0.081756591796875,0.6029052734375,0.1828155517578125
1663862558010099500,3.705099365234375,0.1797637939453125,0.5475006103515625,0.2595062255859375
1663862558019987200,3.7149873046875,0.1265106201171875,1.147247314453125,0.5801544189453125
1663862558029874700,3.724874755859375,-0.05352783203125,1.732086181640625,0.9572601318359375
1663862558039762400,3.734762451171875,-0.2633819580078125,1.8513946533203125,1.17138671875
1663862558049650200,3.744650146484375,-0.4178466796875,1.572296142578125,1.2992095947265625
1663862558059507500,3.754507568359375,-0.498809814453125,1.112091064453125,1.362060546875
1663862558069395000,3.76439501953125,-0.5030670166015625,0.716888427734375,1.306671142578125
1663862558079282700,3.77428271484375,-0.4210357666015625,0.4825286865234375,1.1884307861328125
1663862558089140000,3.784139892578125,-0.24420166015625,0.3557586669921875,1.05633544921875
1663862558099058200,3.79405810546875,-0.0205078125,0.290771484375,0.918914794921875
1663862558108946000,3.80394580078125,0.1744384765625,0.2758636474609375,0.781494140625
1663862558118833700,3.813833740234375,0.3193206787109375,0.33978271484375,0.64300537109375
1663862558128721200,3.82372119140625,0.4077301025390625,0.496368408203125,0.519439697265625
1663862558138578400,3.833578369140625,0.44927978515625,0.7350006103515625,0.4011993408203125
1663862558148466200,3.843466064453125,0.4567413330078125,0.9927825927734375,0.265899658203125
1663862558158384400,3.85338427734375,0.450347900390625,1.2218170166015625,0.1146392822265625
1663862558168272100,3.863272216796875,0.44927978515625,1.4071807861328125,-0.0142669677734375
1663862558178159600,3.87315966796875,0.4300994873046875,1.4913330078125,-0.10906982421875
1663862558188047400,3.88304736328125,0.35980224609375,1.433807373046875,-0.2155914306640625
1663862558197935000,3.89293505859375,0.24261474609375,1.2537841796875,-0.371124267578125
1663862558207792400,3.90279248046875,0.0785675048828125,0.9597625732421875,-0.5596771240234375
1663862558217649400,3.9126494140625,-0.1259613037109375,0.5698699951171875,-0.7407684326171875
1663862558227537200,3.922537109375,-0.3432769775390625,0.1831817626953125,-0.881378173828125
1663862558237394400,3.93239453125,-0.5233001708984375,-0.0948486328125,-1.007080078125
1663862558247312600,3.942312744140625,-0.6191864013671875,-0.2929840087890625,-1.1551513671875
1663862558257169700,3.952169677734375,-0.611724853515625,-0.504974365234375,-1.329864501953125
1663862558267088000,3.962087890625,-0.541412353515625,-0.6956634521484375,-1.4512939453125
1663862558276945200,3.971945068359375,-0.4572601318359375,-0.85650634765625,-1.51202392578125
1663862558286802200,3.98180224609375,-0.3762969970703125,-1.0301513671875,-1.616424560546875
1663862558296690000,3.99168994140625,-0.30279541015625,-1.1941986083984375,-1.684600830078125
1663862558306577700,4.00157763671875,-0.258056640625,-1.1260223388671875,-1.5642242431640625
1663862558316465400,4.01146533203125,-0.2420806884765625,-0.776611328125,-1.2765960693359375
1663862558326353200,4.021353271484375,-0.214385986328125,-0.504974365234375,-1.0475616455078125
1663862558336240600,4.03124072265625,-0.17816162109375,-0.5135040283203125,-1.0038909912109375
1663862558346098000,4.041097900390625,-0.1568603515625,-0.65411376953125,-1.053955078125
1663862558356016000,4.05101611328125,-0.1515350341796875,-0.6988525390625,-1.0933685302734375
1663862558365904000,4.06090380859375,-0.1600494384765625,-0.620025634765625,-1.1519622802734375
1663862558375791600,4.07079150390625,-0.1685791015625,-0.483673095703125,-1.308563232421875
1663862558385679400,4.080679443359375,-0.152587890625,-0.3377227783203125,-1.55889892578125
1663862558395536400,4.090536376953125,-0.0716400146484375,-0.1800689697265625,-1.8454437255859375
1663862558405424000,4.100424072265625,0.0732421875,-0.1246795654296875,-2.24066162109375
1663862558415281400,4.110281494140625,0.2564697265625,-0.1672821044921875,-2.834014892578125
1663862558425199600,4.12019970703125,0.4993438720703125,-0.137451171875,-3.4678497314453125
1663862558435087000,4.130087158203125,0.824249267578125,-0.119354248046875,-3.9919586181640625
1663862558444974800,4.139974853515625,1.190704345703125,-0.2162933349609375,-4.281707763671875
1663862558454862600,4.149862548828125,1.5113525390625,-0.56036376953125,-4.338165283203125
1663862558464720000,4.159719970703125,1.6988372802734375,-0.952392578125,-4.3349761962890625
1663862558474577000,4.169576904296875,1.82666015625,-0.826690673828125,-4.3211212158203125
1663862558484464600,4.179464599609375,1.898040771484375,-0.46875,-4.18902587890625
1663862558494352400,4.189352294921875,1.872467041015625,-0.3750152587890625,-3.8747711181640625
1663862558504240000,4.199240234375,1.7893829345703125,-0.5784759521484375,-3.461456298828125
1663862558514127600,4.209127685546875,1.6295928955078125,-0.9087066650390625,-3.0310821533203125
1663862558524015400,4.219015380859375,1.4218597412109375,-1.108978271484375,-2.549591064453125
1663862558533872600,4.22887255859375,1.2311859130859375,-0.9417266845703125,-2.03399658203125
1663862558543760400,4.238760498046875,1.1044158935546875,-0.504974365234375,-1.5482330322265625
1663862558553647900,4.24864794921875,0.9925689697265625,-0.1342620849609375,-1.1157379150390625
1663862558563535600,4.25853564453125,0.8764495849609375,-0.025604248046875,-0.73651123046875
1663862558573393000,4.268392822265625,0.7784423828125,-0.10443115234375,-0.35833740234375
1663862558583280600,4.27828076171875,0.711334228515625,-0.0660858154296875,0.0240936279296875
1663862558593168100,4.288168212890625,0.6463470458984375,0.1853179931640625,0.3521881103515625
1663862558603055900,4.298055908203125,0.59521484375,0.519805908203125,0.6142425537109375
1663862558612943600,4.307943603515625,0.5781707763671875,0.796783447265625,0.84967041015625
1663862558622831400,4.317831298828125,0.5877685546875,0.9853363037109375,1.08721923828125
1663862558632688600,4.327688720703125,0.5930938720703125,1.0961151123046875,1.3450164794921875
1663862558642576100,4.337576171875,0.5568695068359375,1.13446044921875,1.6198577880859375
1663862558652463900,4.3474638671875,0.4801788330078125,1.0971832275390625,1.8904266357421875
1663862558662351600,4.3573515625,0.3757781982421875,1.0151519775390625,2.12799072265625
1663862558672209000,4.367208984375,0.2724456787109375,0.9342041015625,2.32080078125
1663862558682096400,4.377096435546875,0.20745849609375,0.90863037109375,2.4688720703125
1663862558691984100,4.386984130859375,0.2138519287109375,0.99810791015625,2.5871124267578125
1663862558701871900,4.396871826171875,0.280975341796875,1.1451263427734375,2.7128143310546875
1663862558711729200,4.406729248046875,0.3853607177734375,1.3038482666015625,2.8406524658203125
1663862558721647400,4.4166474609375,0.495086669921875,1.5318145751953125,2.9439849853515625
1663862558731504400,4.42650439453125,0.59521484375,1.842864990234375,3.0110931396484375
1663862558741392100,4.43639208984375,0.6836395263671875,2.119842529296875,3.0206756591796875
1663862558751310300,4.446310302734375,0.7603302001953125,2.3083953857421875,2.9759368896484375
1663862558761167600,4.456167724609375,0.8082733154296875,2.4000091552734375,2.9301300048828125
1663862558771024600,4.466024658203125,0.838104248046875,2.4031982421875,2.892852783203125
1663862558780912400,4.475912353515625,0.8412933349609375,2.3637847900390625,2.820404052734375
1663862558790830600,4.48583056640625,0.7965545654296875,2.2924041748046875,2.637176513671875
1663862558800718300,4.49571826171875,0.6506195068359375,2.2370147705078125,2.3378448486328125
1663862558810606000,4.505606201171875,0.391754150390625,2.162445068359375,1.977783203125
1663862558820493600,4.51549365234375,0.0924224853515625,1.969635009765625,1.6070709228515625
1663862558830381300,4.52538134765625,-0.1930694580078125,1.6564483642578125,1.281097412109375
1663862558840269000,4.53526904296875,-0.3571319580078125,1.34326171875,1.0627288818359375
1663862558850126300,4.545126220703125,-0.3422088623046875,1.205841064453125,0.973236083984375
1663862558859983400,4.5549833984375,-0.2271575927734375,1.2100982666015625,0.9796295166015625
1663862558869840600,4.564840576171875,-0.0918731689453125,1.2782745361328125,1.022247314453125
1663862558879758800,4.5747587890625,0.017852783203125,1.3368682861328125,1.05633544921875
1663862558889646600,4.584646484375,0.0924224853515625,1.3464508056640625,1.0627288818359375
1663862558899534300,4.594534423828125,0.1456756591796875,1.3368682861328125,1.0360870361328125
1663862558909421800,4.604421875,0.21917724609375,1.4061126708984375,0.9796295166015625
1663862558919309600,4.6143095703125,0.3086700439453125,1.5882720947265625,0.9263763427734375
1663862558929197300,4.624197265625,0.3757781982421875,1.7714996337890625,0.9125213623046875
1663862558939085000,4.6340849609375,0.4322357177734375,1.786407470703125,0.895477294921875
1663862558948972800,4.643972900390625,0.471649169921875,1.60638427734375,0.8123931884765625
1663862558958860300,4.6538603515625,0.5366363525390625,1.2772064208984375,0.6611175537109375
1663862558968717600,4.663717529296875,0.64208984375,0.7765350341796875,0.3649749755859375
1663862558978605300,4.673605224609375,0.6271820068359375,0.225799560546875,-0.213470458984375
1663862558988493000,4.6834931640625,0.39495849609375,-0.0415802001953125,-0.8867034912109375
1663862558998380500,4.693380615234375,0.0689849853515625,0.2886505126953125,-1.182861328125
1663862559008268300,4.703268310546875,-0.146209716796875,0.977874755859375,-1.13385009765625
1663862559018125600,4.71312548828125,-0.268707275390625,1.556304931640625,-1.078460693359375
1663862559028013300,4.723013427734375,-0.222900390625,1.593597412109375,-1.101898193359375
1663862559037900800,4.73290087890625,0.132904052734375,1.047119140625,-1.292572021484375
1663862559047788500,4.74278857421875,0.6282501220703125,0.1959686279296875,-1.7133636474609375
1663862559057676300,4.75267626953125,0.83917236328125,-0.1790008544921875,-1.9743499755859375
1663862559067533600,4.762533447265625,0.709197998046875,0.5357818603515625,-1.5876617431640625
1663862559077421000,4.772421142578125,0.6389007568359375,1.4146270751953125,-0.9261322021484375
1663862559087278300,4.7822783203125,0.6964263916015625,1.4561767578125,-0.6289215087890625
1663862559097166000,4.792166015625,0.8082733154296875,1.4412689208984375,-0.427581787109375
1663862559107023400,4.8020234375,0.8061370849609375,1.8151702880859375,0.030487060546875
1663862559116941600,4.811941650390625,0.5526123046875,2.0889434814453125,0.41717529296875
1663862559126829000,4.8218291015625,0.17657470703125,1.971771240234375,0.589752197265625
1663862559136686300,4.831686279296875,-0.06524658203125,1.4913330078125,0.6493988037109375
1663862559146574000,4.841573974609375,-0.141937255859375,0.941650390625,0.63555908203125
1663862559156461800,4.8514619140625,-0.2186431884765625,0.580535888671875,0.59613037109375
1663862559166349300,4.861349365234375,-0.3102569580078125,0.4015655517578125,0.6057281494140625
1663862559176206600,4.87120654296875,-0.381622314453125,0.326995849609375,0.714385986328125
1663862559186094300,4.88109423828125,-0.3858795166015625,0.1544189453125,0.8326263427734375
1663862559195982000,4.890982177734375,-0.280426025390625,-0.22906494140625,0.804931640625
1663862559205869600,4.90086962890625,-0.1248931884765625,-0.582733154296875,0.65472412109375
1663862559215757300,4.91075732421875,0.0316925048828125,-0.6498565673828125,0.564178466796875
1663862559225645000,4.92064501953125,0.163787841796875,-0.436798095703125,0.587615966796875
1663862559235532800,4.93053271484375,0.2447509765625,-0.08099365234375,0.6451416015625
1663862559245420500,4.940420654296875,0.3076019287109375,0.2534942626953125,0.669647216796875
1663862559255277600,4.950277587890625,0.380035400390625,0.3802642822265625,0.6493988037109375
1663862559265134800,4.960134765625,0.4524688720703125,0.3195343017578125,0.597198486328125
1663862559275053000,4.970052978515625,0.5014801025390625,0.204498291015625,0.5236968994140625
1663862559284940800,4.97994091796875,0.5217132568359375,0.1299285888671875,0.4310150146484375
1663862559294797800,4.9897978515625,0.5121307373046875,0.1299285888671875,0.314910888671875
1663862559304685600,4.999685546875,0.4780426025390625,0.1373748779296875,0.154052734375
1663862559314573300,5.0095732421875,0.4237213134765625,0.09796142578125,-0.041961669921875
1663862559324461000,5.0194609375,0.3725738525390625,0.0489654541015625,-0.185760498046875
1663862559334348800,5.029348876953125,0.345947265625,0.0042266845703125,-0.26885986328125
1663862559344236300,5.039236328125,0.3299713134765625,-0.046905517578125,-0.33917236328125
1663862559354124000,5.0491240234375,0.302276611328125,-0.0405120849609375,-0.39349365234375
1663862559364011800,5.05901171875,0.2607269287109375,-0.049041748046875,-0.4339752197265625
1663862559373899500,5.0688994140625,0.222381591796875,-0.126800537109375,-0.47552490234375
1663862559383787300,5.078787353515625,0.1744384765625,-0.175811767578125,-0.5032196044921875
1663862559393674800,5.0886748046875,0.0966796875,-0.1246795654296875,-0.45953369140625
1663862559403532000,5.098531982421875,0.0082550048828125,0.007415771484375,-0.35833740234375
1663862559413389300,5.108389404296875,-0.0705718994140625,0.02978515625,-0.3018798828125
1663862559423276800,5.11827685546875,-0.1472625732421875,-0.1790008544921875,-0.3285064697265625
1663862559433134000,5.128134033203125,-0.2505950927734375,-0.4655609130859375,-0.403076171875
1663862559443021800,5.138021728515625,-0.372039794921875,-0.730804443359375,-0.5000152587890625
1663862559452909600,5.14790966796875,-0.4881591796875,-0.963043212890625,-0.58843994140625
1663862559462797000,5.157797119140625,-0.56378173828125,-1.0684967041015625,-0.676849365234375
1663862559472684800,5.167684814453125,-0.597869873046875,-1.0684967041015625,-0.7535552978515625
1663862559482572500,5.177572509765625,-0.6053314208984375,-1.005645751953125,-0.7876434326171875
1663862559492460300,5.187460205078125,-0.6042633056640625,-0.8426666259765625,-0.79296875
1663862559502317300,5.1973173828125,-0.57550048828125,-0.6945953369140625,-0.8302459716796875
1663862559512205000,5.207205078125,-0.5041351318359375,-0.639190673828125,-0.906951904296875
1663862559522092800,5.2170927734375,-0.4103851318359375,-0.643463134765625,-0.9527587890625
1663862559531980500,5.22698046875,-0.2878875732421875,-0.653045654296875,-0.9442291259765625
1663862559541868300,5.236868408203125,-0.13128662109375,-0.610443115234375,-0.92718505859375
1663862559551725300,5.246725341796875,0.0380859375,-0.56036376953125,-0.9708709716796875
1663862559561613000,5.256613037109375,0.1957550048828125,-0.5561065673828125,-1.1519622802734375
1663862559571500800,5.266500732421875,0.3438262939453125,-0.55291748046875,-1.4715423583984375
1663862559581388500,5.276388427734375,0.4705810546875,-0.5358734130859375,-1.978607177734375
1663862559591245600,5.28624560546875,0.5366363525390625,-0.57421875,-2.6710357666015625
1663862559601133300,5.29613330078125,0.5803070068359375,-0.8053741455078125,-3.3187103271484375
1663862559611021000,5.30602099609375,0.6484832763671875,-1.2282867431640625,-3.7490692138671875
1663862559620878300,5.31587841796875,0.68896484375,-1.69061279296875,-4.0271148681640625
1663862559630765800,5.325765869140625,0.596282958984375,-1.9824981689453125,-4.2422943115234375
1663862559640653600,5.335653564453125,0.429046630859375,-2.0006103515625,-4.373321533203125
1663862559650541300,5.345541259765625,0.2948150634765625,-1.905792236328125,-4.2859649658203125
1663862559660429000,5.355428955078125,0.18829345703125,-1.8312225341796875,-3.9472198486328125
1663862559670316800,5.36531689453125,0.02850341796875,-1.7087249755859375,-3.447601318359375
1663862559680204300,5.375204345703125,-0.1376800537109375,-1.407257080078125,-2.902191162109375
1663862559690061600,5.3850615234375,-0.200531005859375,-0.99285888671875,-2.490997314453125
1663862559699979800,5.394979736328125,-0.144073486328125,-0.6615753173828125,-2.22894287109375
1663862559709837000,5.404837158203125,-0.03009033203125,-0.5198822021484375,-1.7772674560546875
1663862559719755300,5.41475537109375,-0.0162353515625,-0.495391845703125,-1.2094879150390625
1663862559729612300,5.4246123046875,-0.099334716796875,-0.471954345703125,-0.7748565673828125
1663862559739500000,5.4345,-0.190948486328125,-0.460235595703125,-0.4116058349609375
1663862559749387800,5.4443876953125,-0.2740325927734375,-0.3792724609375,-0.0430145263671875
1663862559759244800,5.454244873046875,-0.340087890625,-0.1779327392578125,0.32769775390625
1663862559769163000,5.4641630859375,-0.4135894775390625,0.0819854736328125,0.6472625732421875
1663862559779050800,5.47405078125,-0.48388671875,0.2854461669921875,0.863525390625
1663862559788938500,5.4839384765625,-0.5350189208984375,0.3887786865234375,0.9934844970703125
1663862559798826200,5.493826171875,-0.5840301513671875,0.4143524169921875,1.111724853515625
1663862559808714000,5.5037138671875,-0.633026123046875,0.439910888671875,1.2661895751953125
1663862559818601700,5.513601806640625,-0.682037353515625,0.5517730712890625,1.4494171142578125
1663862559828458800,5.523458740234375,-0.7108001708984375,0.738189697265625,1.634765625
1663862559838316000,5.53331591796875,-0.7108001708984375,0.9128875732421875,1.819061279296875
1663862559848173000,5.543173095703125,-0.6756439208984375,1.00982666015625,2.0171966552734375
1663862559858060800,5.553060791015625,-0.5733795166015625,1.035400390625,2.2196044921875
1663862559867979000,5.56297900390625,-0.3912200927734375,1.0311431884765625,2.3751220703125
1663862559877866800,5.57286669921875,-0.17816162109375,1.0268707275390625,2.4614105224609375
1663862559887724000,5.58272412109375,0.0008087158203125,0.975738525390625,2.5104217529296875
1663862559897581000,5.5925810546875,0.1446075439453125,0.8361968994140625,2.5317230224609375
1663862559907499300,5.602499267578125,0.2745819091796875,0.6774749755859375,2.5413055419921875
1663862559917356500,5.6123564453125,0.368316650390625,0.5752105712890625,2.5530242919921875
1663862559927274800,5.622274658203125,0.416259765625,0.5677490234375,2.5434417724609375
1663862559937162500,5.63216259765625,0.4098663330078125,0.6455078125,2.4997711181640625
1663862559947050000,5.642050048828125,0.3512725830078125,0.73712158203125,2.4283905029296875
1663862559956907300,5.6519072265625,0.2383575439453125,0.7690887451171875,2.331451416015625
1663862559966795000,5.661794921875,0.0732421875,0.7903900146484375,2.20574951171875
1663862559976682800,5.671682861328125,-0.1142425537109375,0.8670806884765625,2.0779266357421875
1663862559986539800,5.681539794921875,-0.281494140625,1.020477294921875,1.9511566162109375
1663862559996397000,5.69139697265625,-0.402923583984375,1.2420654296875,1.8243865966796875
1663862560006315300,5.701315185546875,-0.461517333984375,1.445526123046875,1.704010009765625
1663862560016172300,5.71117236328125,-0.449798583984375,1.492401123046875,1.614532470703125
1663862560026090500,5.721090576171875,-0.36883544921875,1.3475189208984375,1.579376220703125
1663862560035947800,5.73094775390625,-0.2431488037109375,1.10357666015625,1.59002685546875
1663862560045835500,5.74083544921875,-0.1153106689453125,0.851104736328125,1.623046875
1663862560055723300,5.75072314453125,-0.029022216796875,0.5943756103515625,1.6528778076171875
1663862560065610800,5.76061083984375,0.017852783203125,0.3664093017578125,1.670989990234375
1663862560075468000,5.770468017578125,0.0114593505859375,0.2066192626953125,1.6560821533203125
1663862560085386200,5.78038623046875,-0.042877197265625,0.1075592041015625,1.5612640380859375
1663862560095243500,5.790243408203125,-0.066314697265625,0.0138092041015625,1.372711181640625
1663862560105131300,5.80013134765625,-0.0141143798828125,-0.0714111328125,1.1522064208984375
1663862560115018800,5.810018798828125,0.09881591796875,-0.062896728515625,0.98388671875
1663862560124906500,5.819906494140625,0.2181243896484375,0.120330810546875,0.907196044921875
1663862560134794200,5.829794189453125,0.288421630859375,0.557098388671875,0.9295654296875
1663862560144682000,5.839681884765625,0.290557861328125,1.0194244384765625,0.961517333984375
1663862560154569700,5.84956982421875,0.2372894287109375,1.0492401123046875,0.8006744384765625
1663862560164457200,5.859457275390625,0.1318359375,0.3909149169921875,0.303192138671875
1663862560174345000,5.869344970703125,0.0924224853515625,-0.3718109130859375,-0.415863037109375
1663862560184232700,5.879232666015625,0.0359649658203125,-0.6455841064453125,-0.895233154296875
1663862560194090000,5.889090087890625,-0.140869140625,-0.310028076171875,-0.9761962890625
1663862560203977500,5.8989775390625,-0.4476776123046875,0.4612274169921875,-0.9261322021484375
1663862560213865200,5.908865234375,-0.6596527099609375,0.86602783203125,-1.088043212890625
1663862560223753000,5.9187529296875,-0.418914794921875,0.6029052734375,-1.485382080078125
1663862560233640700,5.928640625,0.1925506591796875,0.0947723388671875,-1.7879180908203125
1663862560243528400,5.938528564453125,0.63037109375,-0.2354583740234375,-1.77301025390625
1663862560253385500,5.948385498046875,0.734771728515625,0.1373748779296875,-1.337310791015625
1663862560263273200,5.958273193359375,0.678314208984375,0.7083587646484375,-0.7397003173828125
1663862560273161000,5.968160888671875,0.6048126220703125,0.6881256103515625,-0.3871002197265625
1663862560283048700,5.978048583984375,0.5696563720703125,0.48785400390625,-0.17510986328125
1663862560292905700,5.98790576171875,0.4865570068359375,0.6923828125,0.1583099365234375
1663862560302793500,5.99779345703125,0.1829681396484375,1.0503082275390625,0.4853515625
1663862560312681200,6.00768115234375,-0.2527313232421875,1.001312255859375,0.6526031494140625
1663862560322569000,6.01756884765625,-0.5350189208984375,0.4356536865234375,0.6984100341796875
1663862560332456700,6.027456787109375,-0.642608642578125,-0.197113037109375,0.608917236328125
1663862560342344200,6.03734423828125,-0.759796142578125,-0.6125640869140625,0.474700927734375
1663862560352232000,6.04723193359375,-0.8247833251953125,-0.7926025390625,0.4235687255859375
1663862560362119700,6.05711962890625,-0.7288970947265625,-0.8842010498046875,0.413970947265625
1663862560371977000,6.06697705078125,-0.5712432861328125,-0.982208251953125,0.390533447265625
1663862560381864400,6.076864501953125,-0.4647216796875,-1.0184326171875,0.3916015625
1663862560391752200,6.086752197265625,-0.402923583984375,-0.974761962890625,0.418243408203125
1663862560401640000,6.096639892578125,-0.3422088623046875,-0.8650360107421875,0.4448699951171875
1663862560411497200,6.106497314453125,-0.2537994384765625,-0.71270751953125,0.4352874755859375
1663862560421384700,6.116384765625,-0.140869140625,-0.537994384765625,0.3511199951171875
1663862560431272400,6.1262724609375,-0.0375518798828125,-0.3505096435546875,0.213714599609375
1663862560441160200,6.13616015625,0.0359649658203125,-0.160888671875,0.1029205322265625
1663862560451048000,6.1460478515625,0.086029052734375,-0.0319976806640625,0.0113067626953125
1663862560460935700,6.155935791015625,0.0998687744140625,-0.1331939697265625,-0.17510986328125
1663862560470792700,6.165792724609375,0.083892822265625,-0.425079345703125,-0.3860321044921875
1663862560480650000,6.17564990234375,0.0764312744140625,-0.6264190673828125,-0.51812744140625
1663862560490507000,6.185507080078125,0.0785675048828125,-0.57208251953125,-0.566070556640625
1663862560500425200,6.19542529296875,0.093475341796875,-0.345184326171875,-0.563934326171875
1663862560510282500,6.205282470703125,0.1243743896484375,-0.11614990234375,-0.5681915283203125
1663862560520200700,6.21520068359375,0.152069091796875,0.0340423583984375,-0.5905609130859375
1663862560530058000,6.22505810546875,0.1510009765625,0.044708251953125,-0.6299896240234375
1663862560539945500,6.234945556640625,0.1488800048828125,-0.1917877197265625,-0.72265625
1663862560549833200,6.244833251953125,0.1020050048828125,-0.6008453369140625,-0.79510498046875
1663862560559721000,6.254720947265625,0.006134033203125,-0.916168212890625,-0.758880615234375
1663862560569578200,6.264578125,-0.099334716796875,-1.06317138671875,-0.665130615234375
1663862560579466000,6.274466064453125,-0.176025390625,-1.13134765625,-0.62359619140625
1663862560589323000,6.284322998046875,-0.1930694580078125,-1.1292266845703125,-0.6725921630859375
1663862560599241200,6.2942412109375,-0.146209716796875,-0.9640960693359375,-0.7578125
1663862560609129000,6.30412890625,-0.026885986328125,-0.6605072021484375,-0.8664703369140625
1663862560619016700,6.3140166015625,0.1435546875,-0.403778076171875,-0.9783172607421875
1663862560628904400,6.323904541015625,0.3076019287109375,-0.2493133544921875,-0.9580841064453125
1663862560638792000,6.3337919921875,0.4183807373046875,-0.1555633544921875,-0.8419647216796875
1663862560648679700,6.3436796875,0.4588623046875,-0.09271240234375,-0.87286376953125
1663862560658567400,6.3535673828125,0.4663238525390625,0.05322265625,-1.111480712890625
1663862560668455200,6.363455078125,0.474853515625,0.23431396484375,-1.569549560546875
1663862560678343000,6.373343017578125,0.47271728515625,0.2439117431640625,-2.2151031494140625
1663862560688200000,6.383199951171875,0.5036163330078125,0.0841217041015625,-2.9192352294921875
1663862560698087700,6.393087646484375,0.633575439453125,-0.230133056640625,-3.4561309814453125
1663862560707975400,6.402975341796875,0.8199920654296875,-0.6913909912109375,-3.7469482421875
1663862560717863200,6.41286328125,0.896697998046875,-1.141998291015625,-3.90673828125
1663862560727750700,6.422750732421875,0.7997589111328125,-1.4924774169921875,-4.0015411376953125
1663862560737608000,6.43260791015625,0.6282501220703125,-1.7310943603515625,-3.975982666015625
1663862560747495700,6.44249560546875,0.50787353515625,-1.781158447265625,-3.804473876953125
1663862560757383400,6.452383544921875,0.4652557373046875,-1.6810302734375,-3.4998016357421875
1663862560767271000,6.46227099609375,0.474853515625,-1.553192138671875,-3.095001220703125
1663862560777158700,6.47215869140625,0.4908294677734375,-1.32843017578125,-2.6092376708984375
1663862560787046400,6.48204638671875,0.481231689453125,-0.9896697998046875,-2.161834716796875
1663862560796903700,6.491903564453125,0.450347900390625,-0.6818084716796875,-1.8358612060546875
1663862560806760700,6.5017607421875,0.4684600830078125,-0.507110595703125,-1.5269317626953125
1663862560816648400,6.5116484375,0.48443603515625,-0.3824615478515625,-1.113616943359375
1663862560826536200,6.5215361328125,0.3203887939453125,-0.05010986328125,-0.6150665283203125
1663862560836424000,6.531423828125,0.04766845703125,0.2993011474609375,-0.15380859375
1663862560846311700,6.541311767578125,-0.13128662109375,0.397308349609375,0.2158355712890625
1663862560856168700,6.551168701171875,-0.22076416015625,0.404754638671875,0.5343475341796875
1663862560866056400,6.561056396484375,-0.2878875732421875,0.5027618408203125,0.8304901123046875
1663862560875944200,6.570944091796875,-0.315582275390625,0.6210174560546875,1.100006103515625
1663862560885832000,6.58083203125,-0.31451416015625,0.69024658203125,1.3322296142578125
1663862560895689000,6.59068896484375,-0.3102569580078125,0.724334716796875,1.5388946533203125
1663862560905576700,6.60057666015625,-0.3198394775390625,0.7584228515625,1.741302490234375
1663862560915464400,6.61046435546875,-0.362457275390625,0.8116912841796875,1.945831298828125
1663862560925321500,6.620321533203125,-0.4359588623046875,0.8926544189453125,2.1461029052734375
1663862560935209200,6.630209228515625,-0.49774169921875,1.092926025390625,2.3367767333984375
1663862560945127400,6.64012744140625,-0.496673583984375,1.4263458251953125,2.53704833984375
1663862560954984700,6.649984619140625,-0.3858795166015625,1.727813720703125,2.7575531005859375
1663862560964841700,6.659841796875,-0.1568603515625,1.876953125,2.9546356201171875
1663862560974760000,6.669760009765625,0.1680450439453125,1.911041259765625,3.116546630859375
1663862560984647700,6.679647705078125,0.4993438720703125,1.8748321533203125,3.209228515625
1663862560994535400,6.689535400390625,0.748626708984375,1.727813720703125,3.2049713134765625
1663862561004423200,6.699423095703125,0.9201202392578125,1.47003173828125,3.12933349609375
1663862561014280200,6.7092802734375,1.02984619140625,1.196258544921875,3.0078887939453125
1663862561024168000,6.71916796875,1.0266571044921875,0.9576263427734375,2.8289337158203125
1663862561034055700,6.7290556640625,0.8444976806640625,0.759490966796875,2.56048583984375
1663862561043943400,6.738943359375,0.4705810546875,0.691314697265625,2.228118896484375
1663862561053831200,6.7488310546875,-0.03009033203125,0.841522216796875,1.9138641357421875
1663862561063719000,6.758718994140625,-0.454071044921875,0.941650390625,1.6081390380859375
1663862561073606400,6.7686064453125,-0.63409423828125,0.74884033203125,1.351409912109375
1663862561083494100,6.778494140625,-0.5829620361328125,0.4803924560546875,1.250213623046875
1663862561093382000,6.7883818359375,-0.4679107666015625,0.2769317626953125,1.315185546875
1663862561103269600,6.79826953125,-0.3549957275390625,0.155487060546875,1.443023681640625
1663862561113126700,6.808126708984375,-0.2644500732421875,0.21514892578125,1.5388946533203125
1663862561123014400,6.818014404296875,-0.2165069580078125,0.466552734375,1.5527496337890625
1663862561132902100,6.827902099609375,-0.2154388427734375,0.815948486328125,1.4930877685546875
1663862561142790000,6.837789794921875,-0.2292938232421875,1.03326416015625,1.3886871337890625
1663862561152677600,6.847677734375,-0.21331787109375,0.9480438232421875,1.2651214599609375
1663862561162565000,6.857565185546875,-0.17816162109375,0.6891937255859375,1.14794921875
1663862561172422400,6.86742236328125,-0.1483306884765625,0.5038299560546875,1.0605926513671875
1663862561182310100,6.87731005859375,-0.1142425537109375,0.472930908203125,1.0126495361328125
1663862561192198000,6.887197998046875,-0.0705718994140625,0.49957275390625,1.0009307861328125
1663862561202085400,6.89708544921875,-0.017303466796875,0.5294036865234375,0.987091064453125
1663862561211942700,6.906942626953125,0.0348968505859375,0.6455078125,0.8795013427734375
1663862561221800000,6.916800048828125,0.0679168701171875,0.5954437255859375,0.5727081298828125
1663862561231687400,6.9266875,0.1254425048828125,0.167205810546875,-0.0355682373046875
1663862561241575200,6.9365751953125,0.2628631591796875,-0.5699615478515625,-0.8781890869140625
1663862561251463000,6.946462890625,0.404541015625,-1.722564697265625,-1.764495849609375
1663862561261320200,6.9563203125,0.40667724609375,-2.0741119384765625,-2.150115966796875
1663862561271207700,6.966207763671875,0.322509765625,-0.9364013671875,-1.7090911865234375
1663862561281095400,6.976095458984375,0.3278350830078125,-0.172607421875,-1.440643310546875
1663862561290983200,6.985983154296875,0.4428863525390625,-0.03839111328125,-1.647308349609375
1663862561300871000,6.995870849609375,0.6399688720703125,0.4250030517578125,-1.5833892822265625
1663862561310728200,7.005728271484375,0.7976226806640625,0.6753387451171875,-1.1082916259765625
1663862561320615700,7.01561572265625,0.74542236328125,0.4580230712890625,-0.665130615234375
1663862561330503400,7.02550341796875,0.5877685546875,0.5251312255859375,-0.213470458984375
1663862561340360700,7.035360595703125,0.35552978515625,1.0428619384765625,0.38201904296875
1663862561350248400,7.04524853515625,-0.1131744384765625,1.3038482666015625,0.940216064453125
1663862561360136000,7.055135986328125,-0.6532745361328125,0.988525390625,1.2406158447265625
1663862561370023700,7.065023681640625,-0.917449951171875,0.406890869140625,1.11065673828125
1663862561379911400,7.074911376953125,-0.989898681640625,-0.1225433349609375,0.7729644775390625
1663862561389799200,7.084799072265625,-1.03570556640625,-0.5092315673828125,0.54180908203125
1663862561399687000,7.09468701171875,-0.9259796142578125,-0.7862091064453125,0.4075927734375
1663862561409544000,7.1045439453125,-0.6277008056640625,-0.905517578125,0.3074493408203125
1663862561419431700,7.114431640625,-0.3411407470703125,-0.8415985107421875,0.3063812255859375
1663862561429319400,7.1243193359375,-0.1685791015625,-0.6807403564453125,0.3873443603515625
1663862561439207200,7.134207275390625,-0.06097412109375,-0.469818115234375,0.4320831298828125
1663862561449064200,7.144064208984375,0.0189208984375,-0.18646240234375,0.41717529296875
1663862561458952000,7.153951904296875,0.1137237548828125,0.09051513671875,0.35858154296875
1663862561468839700,7.163839599609375,0.222381591796875,0.2758636474609375,0.26910400390625
1663862561478727400,7.1737275390625,0.2681884765625,0.360015869140625,0.1263580322265625
1663862561488615000,7.183614990234375,0.2596588134765625,0.31634521484375,-0.006805419921875
1663862561498472200,7.19347216796875,0.198944091796875,0.07879638671875,-0.143157958984375
1663862561508390400,7.203390380859375,0.095611572265625,-0.3387908935546875,-0.3402252197265625
1663862561518278100,7.213278076171875,-0.0226287841796875,-0.6636962890625,-0.5042877197265625
1663862561528166000,7.223165771484375,-0.1376800537109375,-0.72015380859375,-0.5937652587890625
1663862561538053600,7.2330537109375,-0.221832275390625,-0.5241546630859375,-0.6022796630859375
1663862561547941000,7.242941162109375,-0.2378082275390625,-0.2951202392578125,-0.5788421630859375
1663862561557828900,7.252828857421875,-0.1824188232421875,-0.1598358154296875,-0.5841827392578125
1663862561567716600,7.262716552734375,-0.095062255859375,-0.105499267578125,-0.669403076171875
1663862561577604400,7.272604248046875,0.013580322265625,-0.1023101806640625,-0.756744384765625
1663862561587492000,7.2824921875,0.116912841796875,-0.184326171875,-0.77911376953125
1663862561597349000,7.29234912109375,0.1904144287109375,-0.2578277587890625,-0.7620697021484375
1663862561607236900,7.30223681640625,0.2159881591796875,-0.368621826171875,-0.7066802978515625
1663862561617124600,7.31212451171875,0.220245361328125,-0.6040496826171875,-0.669403076171875
1663862561626981600,7.321981689453125,0.2213134765625,-0.8075103759765625,-0.676849365234375
1663862561636839000,7.3318388671875,0.2522125244140625,-0.7862091064453125,-0.745025634765625
1663862561646726700,7.3417265625,0.323577880859375,-0.5688934326171875,-0.8867034912109375
1663862561656614400,7.351614501953125,0.436492919921875,-0.288726806640625,-1.077392578125
1663862561666502000,7.361501953125,0.5813751220703125,0.0457611083984375,-1.216949462890625
1663862561676389600,7.3713896484375,0.725189208984375,0.4452362060546875,-1.2307891845703125
1663862561686277400,7.38127734375,0.83489990234375,0.66680908203125,-1.25848388671875
1663862561696165000,7.3911650390625,0.8977508544921875,0.660430908203125,-1.5642242431640625
1663862561706052900,7.401052978515625,0.9020233154296875,0.54217529296875,-2.13946533203125
1663862561715940400,7.4109404296875,0.8839111328125,0.3120880126953125,-2.740264892578125
1663862561725828000,7.420828125,0.904144287109375,0.11181640625,-3.1812896728515625
1663862561735715800,7.4307158203125,0.937164306640625,-0.137451171875,-3.493408203125
1663862561745603600,7.440603515625,0.892425537109375,-0.5209503173828125,-3.607391357421875
1663862561755460600,7.450460693359375,0.746490478515625,-0.9119110107421875,-3.505126953125
1663862561765348400,7.460348388671875,0.5291748046875,-1.1835479736328125,-3.3453369140625
1663862561775205600,7.47020556640625,0.360870361328125,-1.4125823974609375,-3.210052490234375
1663862561785063000,7.48006298828125,0.344879150390625,-1.670379638671875,-3.1045989990234375
1663862561794950400,7.489950439453125,0.506805419921875,-1.64373779296875,-2.9554595947265625
1663862561804868600,7.49986865234375,0.6974945068359375,-1.2996673583984375,-2.6124420166015625
1663862561814726000,7.509725830078125,0.6953582763671875,-0.947052001953125,-2.0638275146484375
1663862561824613600,7.519613525390625,0.5291748046875,-0.6636962890625,-1.53546142578125
1663862561834501400,7.52950146484375,0.323577880859375,-0.4282684326171875,-1.134918212890625
1663862561844358400,7.5393583984375,0.1201171875,-0.2258758544921875,-0.7887115478515625
1663862561854246100,7.54924609375,-0.06097412109375,-0.02667236328125,-0.40521240234375
1663862561864164400,7.559164306640625,-0.188812255859375,0.169342041015625,0.03900146484375
1663862561874052000,7.569052001953125,-0.2537994384765625,0.326995849609375,0.44805908203125
1663862561883909000,7.5789091796875,-0.2985382080078125,0.5048980712890625,0.78363037109375
1663862561893766400,7.588766357421875,-0.3230438232421875,0.7317962646484375,1.0584564208984375
1663862561903684600,7.5986845703125,-0.3177032470703125,0.9480438232421875,1.29388427734375
1663862561913542000,7.6085419921875,-0.2857513427734375,1.149383544921875,1.511199951171875
1663862561923429400,7.618429443359375,-0.2516632080078125,1.3496551513671875,1.717864990234375
1663862561933317000,7.628317138671875,-0.222900390625,1.570159912109375,1.919189453125
1663862561943174400,7.63817431640625,-0.1515350341796875,1.809844970703125,2.11627197265625
1663862561953062100,7.648062255859375,-0.0023956298828125,2.06231689453125,2.2813873291015625
1663862561962949600,7.65794970703125,0.210662841796875,2.265777587890625,2.4177398681640625
1663862561972837400,7.66783740234375,0.451416015625,2.2476654052734375,2.558349609375
1663862561982694700,7.677694580078125,0.6740570068359375,2.014373779296875,2.686187744140625
1663862561992612900,7.68761279296875,0.8327789306640625,1.6926727294921875,2.8033599853515625
1663862562002500600,7.69750048828125,0.904144287109375,1.30810546875,2.900299072265625
1663862562012397800,7.707397705078125,0.8785858154296875,0.8372650146484375,2.9066925048828125
1663862562022285600,7.71728564453125,0.756072998046875,0.3813323974609375,2.7937774658203125
1663862562032173300,7.72717333984375,0.541961669921875,0.1288604736328125,2.547698974609375
1663862562042061000,7.73706103515625,0.2149200439453125,0.1544189453125,2.2014923095703125
1663862562051948800,7.74694873046875,-0.235687255859375,0.35894775390625,1.8499603271484375
1663862562061836500,7.75683642578125,-0.724639892578125,0.6337890625,1.6102752685546875
1663862562071693600,7.766693603515625,-1.0506134033203125,0.988525390625,1.5527496337890625
1663862562081581300,7.776581298828125,-1.0942840576171875,1.419952392578125,1.6656646728515625
1663862562091469000,7.786468994140625,-0.950469970703125,1.833282470703125,1.8723297119140625
1663862562101356800,7.796356689453125,-0.6990814208984375,2.119842529296875,2.0853729248046875
1663862562111213800,7.8062138671875,-0.369903564453125,2.174163818359375,2.2345123291015625
1663862562121071000,7.816071044921875,-0.0354156494140625,2.016510009765625,2.2345123291015625
1663862562130958800,7.825958740234375,0.2394256591796875,1.739532470703125,2.08111572265625
1663862562140846300,7.835846435546875,0.4098663330078125,1.3720245361328125,1.8414306640625
1663862562150703600,7.84570361328125,0.4641876220703125,0.909698486328125,1.599609375
1663862562160621800,7.855621826171875,0.40240478515625,0.420745849609375,1.405731201171875
1663862562170479000,7.86547900390625,0.24688720703125,0.0116729736328125,1.261932373046875
1663862562180397300,7.875397216796875,0.0466156005859375,-0.24505615234375,1.13409423828125
1663862562190254300,7.88525439453125,-0.108917236328125,-0.3483734130859375,1.033966064453125
1663862562200111600,7.895111572265625,-0.1355438232421875,-0.21734619140625,1.00732421875
1663862562210029800,7.90502978515625,-0.1025238037109375,0.1938323974609375,1.0488739013671875
1663862562219886800,7.914886962890625,-0.07696533203125,0.8031768798828125,1.0701751708984375
1663862562229805000,7.92480517578125,-0.0236968994140625,1.50091552734375,0.9700469970703125
1663862562239662300,7.934662353515625,0.039154052734375,1.694793701171875,0.611053466796875
1663862562249550000,7.944550048828125,0.1584625244140625,0.964019775390625,-0.145294189453125
1663862562259437800,7.954437744140625,0.321441650390625,-0.160888671875,-1.010284423828125
1663862562269294800,7.964294921875,0.3310394287109375,-1.0930023193359375,-1.417205810546875
1663862562279213000,7.974213134765625,0.1392822265625,-1.3092498779296875,-1.238250732421875
1663862562289100800,7.984100830078125,-0.0705718994140625,-0.378204345703125,-0.895233154296875
1663862562298988500,7.993988525390625,-0.1334228515625,0.500640869140625,-0.875
1663862562308876300,8.003876220703125,0.0423431396484375,0.611419677734375,-1.2883148193359375
1663862562318764000,8.013763916015625,0.322509765625,0.3429718017578125,-1.7538299560546875
1663862562328621000,8.02362109375,0.32464599609375,0.2758636474609375,-1.8379974365234375
1663862562338508800,8.0335087890625,0.0583343505859375,0.7786712646484375,-1.29150390625
1663862562348396500,8.043396484375,-0.0482025146484375,0.964019775390625,-0.620391845703125
1663862562358284300,8.0532841796875,-0.042877197265625,0.432464599609375,-0.3956298828125
1663862562368141300,8.063141357421875,0.04766845703125,-0.0341339111328125,-0.279510498046875
1663862562377998600,8.07299853515625,0.0966796875,-0.0117645263671875,0.0560455322265625
1663862562387916800,8.082916748046875,-0.0705718994140625,0.2481689453125,0.4438018798828125
1663862562397804500,8.092804443359375,-0.3081207275390625,0.35894775390625,0.620635986328125
1663862562407661600,8.10266162109375,-0.4370269775390625,0.3184814453125,0.585479736328125
1663862562417518800,8.112518798828125,-0.4476776123046875,0.1735992431640625,0.4587249755859375
1663862562427406600,8.122406494140625,-0.407196044921875,-0.049041748046875,0.3415374755859375
1663862562437324800,8.13232470703125,-0.36138916015625,-0.1939239501953125,0.2978668212890625
1663862562447181800,8.142181884765625,-0.294281005859375,-0.2035064697265625,0.279754638671875
1663862562457069600,8.152069580078125,-0.1930694580078125,-0.140655517578125,0.2382049560546875
1663862562466926800,8.1619267578125,-0.1046600341796875,-0.0309295654296875,0.2030487060546875
1663862562476814300,8.171814453125,-0.0567169189453125,0.1267242431640625,0.1796112060546875
1663862562486702000,8.1817021484375,-0.0364837646484375,0.290771484375,0.1455230712890625
1663862562496589800,8.19158984375,-0.0141143798828125,0.406890869140625,0.060302734375
1663862562506508000,8.201508056640625,0.0242462158203125,0.453765869140625,-0.0898895263671875
1663862562516395800,8.211395751953125,0.06365966796875,0.404754638671875,-0.2986907958984375
1663862562526283500,8.221283447265625,0.097747802734375,0.2897186279296875,-0.521331787109375
1663862562536171000,8.2311708984375,0.128631591796875,0.25030517578125,-0.6715240478515625
1663862562546058800,8.241058837890625,0.1510009765625,0.352569580078125,-0.7152099609375
1663862562555946500,8.250946533203125,0.1712493896484375,0.55816650390625,-0.6981658935546875
1663862562565803800,8.2608037109375,0.1936187744140625,0.7754669189453125,-0.6864471435546875
1663862562575691500,8.27069140625,0.22344970703125,0.9832000732421875,-0.6960296630859375
1663862562585548500,8.280548583984375,0.2596588134765625,1.1983795166015625,-0.6917724609375
1663862562595405800,8.29040576171875,0.2958831787109375,1.2931976318359375,-0.721588134765625
1663862562605293600,8.30029345703125,0.321441650390625,1.250579833984375,-0.829193115234375
1663862562615181000,8.31018115234375,0.290557861328125,1.0982513427734375,-0.9591522216796875
1663862562625038300,8.320038330078125,0.231964111328125,1.0151519775390625,-1.0614166259765625
1663862562634926000,8.329926025390625,0.20001220703125,0.9736175537109375,-1.109344482421875
1663862562644813800,8.339813720703125,0.198944091796875,0.8756103515625,-1.0805816650390625
1663862562654701300,8.349701416015625,0.208526611328125,0.7211456298828125,-1.0134735107421875
1663862562664589000,8.359589111328125,0.2170562744140625,0.5677490234375,-0.9879150390625
1663862562674476800,8.369476806640625,0.2394256591796875,0.4676055908203125,-1.0369110107421875
1663862562684364500,8.379364501953125,0.26605224609375,0.3312530517578125,-1.1381072998046875
1663862562694252300,8.389252197265625,0.2969512939453125,0.15869140625,-1.2798004150390625
1663862562704109300,8.399109375,0.33636474609375,0.040435791015625,-1.477935791015625
1663862562713997000,8.4089970703125,0.360870361328125,-0.0319976806640625,-1.7314605712890625
1663862562723884800,8.418884765625,0.380035400390625,-0.049041748046875,-2.1064453125
1663862562733741800,8.428741943359375,0.4300994873046875,-0.06182861328125,-2.6774139404296875
1663862562743629600,8.438629638671875,0.5345001220703125,-0.2940521240234375,-3.302734375
1663862562753547800,8.4485478515625,0.711334228515625,-0.7702178955078125,-3.6723785400390625
1663862562763405000,8.458405029296875,0.8998870849609375,-1.153717041015625,-3.7512054443359375
1663862562773323300,8.4683232421875,1.0841827392578125,-1.1835479736328125,-3.7874298095703125
1663862562783211000,8.4782109375,1.2418365478515625,-1.0418701171875,-3.8641204833984375
1663862562793098800,8.4880986328125,1.3227996826171875,-1.0258941650390625,-3.8183135986328125
1663862562802986200,8.497986328125,1.2897796630859375,-1.1696929931640625,-3.540283203125
1663862562812843500,8.507843505859375,1.1960296630859375,-1.3529205322265625,-3.12164306640625
1663862562822731300,8.517731201171875,1.13104248046875,-1.29327392578125,-2.71044921875
1663862562832588300,8.52758837890625,1.1406402587890625,-1.1377410888671875,-2.3237457275390625
1663862562842445600,8.537445556640625,1.1949615478515625,-1.0471954345703125,-1.920013427734375
1663862562852333300,8.547333251953125,1.2205352783203125,-0.7414703369140625,-1.47686767578125
1663862562862251500,8.55725146484375,1.17791748046875,-0.230133056640625,-1.045440673828125
1663862562872139300,8.56713916015625,1.14703369140625,0.2396392822265625,-0.676849365234375
1663862562882026800,8.57702685546875,1.1800537109375,0.54217529296875,-0.33489990234375
1663862562891914500,8.58691455078125,1.178985595703125,0.6646881103515625,0.0464630126953125
1663862562901802200,8.59680224609375,1.1448974609375,0.69451904296875,0.3862762451171875
1663862562911690000,8.60668994140625,1.0852508544921875,0.65936279296875,0.6472625732421875
1663862562921547000,8.616547119140625,1.008544921875,0.6412506103515625,0.8922882080078125
1663862562931434800,8.626434814453125,0.9456939697265625,0.6646881103515625,1.1383514404296875
1663862562941322500,8.636322509765625,0.903076171875,0.6987762451171875,1.38336181640625
1663862562951179800,8.6461796875,0.9009552001953125,0.7978515625,1.63690185546875
1663862562961067300,8.6560673828125,0.8753814697265625,0.7222137451171875,1.9000244140625
1663862562970955000,8.665955078125,0.79229736328125,0.646575927734375,2.1461029052734375
1663862562980842800,8.6758427734375,0.7315826416015625,0.7222137451171875,2.3825836181640625
1663862562990730500,8.68573046875,0.645294189453125,0.9618988037109375,2.5434417724609375
1663862563000618200,8.6956181640625,0.54302978515625,1.3230133056640625,2.5998992919921875
1663862563010505700,8.705505615234374,0.49615478515625,1.727813720703125,2.59564208984375
1663862563020363000,8.715363037109375,0.5408935546875,2.09320068359375,2.606292724609375
1663862563030220300,8.72522021484375,0.657012939453125,2.4063873291015625,2.676605224609375
1663862563040138500,8.735138427734375,0.8114776611328125,2.594940185546875,2.8054962158203125
1663862563049995500,8.74499560546875,0.97125244140625,2.641815185546875,2.970611572265625
1663862563059883300,8.75488330078125,1.11187744140625,2.59600830078125,3.1357269287109375
1663862563069740500,8.764740478515625,1.2279815673828125,2.538482666015625,3.2252044677734375
1663862563079658800,8.77465869140625,1.3323822021484375,2.472442626953125,3.1826019287109375
1663862563089546500,8.78454638671875,1.38458251953125,2.3488616943359375,3.0217437744140625
1663862563099434000,8.79443408203125,1.340911865234375,2.275360107421875,2.8289337158203125
1663862563109291300,8.804291259765625,1.1960296630859375,2.33502197265625,2.627593994140625
1663862563119148500,8.8141484375,0.914794921875,2.561920166015625,2.4081573486328125
1663862563129036000,8.8240361328125,0.561126708984375,2.735565185546875,2.129058837890625
1663862563138954200,8.833954345703125,0.2564697265625,2.68548583984375,1.786041259765625
1663862563148811500,8.8438115234375,0.0210418701171875,2.4287567138671875,1.4163970947265625
1663862563158699300,8.85369921875,-0.17816162109375,2.141143798828125,1.0744476318359375
1663862563168587000,8.8635869140625,-0.3006591796875,1.971771240234375,0.909332275390625
1663862563178444000,8.873444091796875,-0.33795166015625,2.0101165771484375,0.954071044921875
1663862563188362200,8.8833623046875,-0.2974700927734375,2.1922760009765625,1.12451171875
1663862563198219500,8.893219482421875,-0.179229736328125,2.3861541748046875,1.341827392578125
1663862563208107300,8.903107177734375,-0.0151824951171875,2.5459442138671875,1.5506134033203125
1663862563217964300,8.91296435546875,0.1435546875,2.641815185546875,1.681640625
1663862563227882500,8.922882568359375,0.2713775634765625,2.6024017333984375,1.7093353271484375
1663862563237770200,8.932770263671875,0.347015380859375,2.439422607421875,1.63690185546875
1663862563247627500,8.94262744140625,0.358734130859375,2.275360107421875,1.4952239990234375
1663862563257545700,8.952545654296875,0.322509765625,2.129425048828125,1.3428802490234375
1663862563267433200,8.96243310546875,0.28948974609375,1.9323577880859375,1.2097320556640625
1663862563277321000,8.972321044921875,0.3033447265625,1.6798858642578125,1.1181182861328125
1663862563287178200,8.98217822265625,0.345947265625,1.431671142578125,1.1319580078125
1663862563297066000,8.99206591796875,0.39495849609375,1.102508544921875,1.166046142578125
1663862563306923000,9.001923095703125,0.4205169677734375,0.3206024169921875,0.928497314453125
1663862563316841200,9.01184130859375,0.2937469482421875,-0.9310760498046875,0.1583099365234375
1663862563326698500,9.021698486328125,-0.017303466796875,-1.8791656494140625,-0.97406005859375
1663862563336586200,9.031586181640625,-0.369903564453125,-1.475433349609375,-1.7783355712890625
1663862563346474000,9.041473876953125,-0.830108642578125,-0.218414306640625,-1.844390869140625
1663862563356361500,9.051361572265625,-1.0250396728515625,0.907562255859375,-1.419342041015625
1663862563366218800,9.06121875,-0.5691070556640625,1.408233642578125,-0.9879150390625
1663862563376106500,9.0711064453125,-0.0162353515625,0.6380615234375,-0.8238677978515625
1663862563385963500,9.080963623046875,0.4471435546875,-0.6232147216796875,-0.904815673828125
1663862563395881700,9.0908818359375,0.78057861328125,-0.779815673828125,-0.9580841064453125
1663862563405739000,9.100739013671875,0.8860321044921875,-0.0213470458984375,-0.875
1663862563415657200,9.1106572265625,0.7613983154296875,1.0620269775390625,-0.486175537109375
1663862563425514500,9.120514404296875,0.417327880859375,1.7693634033203125,0.13275146484375
1663862563435402000,9.130402099609375,0.10626220703125,1.755523681640625,0.4683074951171875
1663862563445259300,9.14025927734375,-0.10784912109375,1.46575927734375,0.5322265625
1663862563455177500,9.150177490234375,-0.2964019775390625,1.14617919921875,0.6099853515625
1663862563465034800,9.16003466796875,-0.4061279296875,0.90863037109375,0.7548675537109375
1663862563474953000,9.169952880859375,-0.46258544921875,0.7744140625,0.90399169921875
1663862563484810000,9.17981005859375,-0.50946044921875,0.761627197265625,1.02117919921875
1663862563494697700,9.18969775390625,-0.5382232666015625,0.7317962646484375,1.125579833984375
1663862563504555000,9.199554931640625,-0.498809814453125,0.4495086669921875,1.217193603515625
1663862563514442500,9.2094423828125,-0.4327545166015625,0.10223388671875,1.1948089599609375
1663862563524360700,9.219360595703124,-0.374176025390625,0.0361785888671875,1.04461669921875
1663862563534218000,9.229218017578125,-0.2878875732421875,0.1160736083984375,0.940216064453125
1663862563544105700,9.239105712890625,-0.1952056884765625,0.2215423583984375,0.8986663818359375
1663862563553993500,9.248993408203125,-0.10784912109375,0.3791961669921875,0.862457275390625
1663862563563881200,9.258881103515625,-0.026885986328125,0.5261993408203125,0.8113250732421875
1663862563573738200,9.26873828125,0.0668487548828125,0.5485687255859375,0.726104736328125
1663862563583656400,9.278656494140625,0.165924072265625,0.5443115234375,0.620635986328125
1663862563593513700,9.288513671875,0.2404937744140625,0.5837249755859375,0.5141143798828125
1663862563603370800,9.298370849609375,0.299072265625,0.5965118408203125,0.3969268798828125
1663862563613289000,9.3082890625,0.3438262939453125,0.545379638671875,0.2552490234375
1663862563623176700,9.3181767578125,0.356597900390625,0.4367218017578125,0.0784149169921875
1663862563633064400,9.328064453125,0.360870361328125,0.3099517822265625,-0.1016082763671875
1663862563642921700,9.337921630859375,0.3874969482421875,0.2194061279296875,-0.277374267578125
1663862563652809200,9.347809326171875,0.401336669921875,0.1938323974609375,-0.439300537109375
1663862563662697000,9.357697021484375,0.3629913330078125,0.23858642578125,-0.5713958740234375
1663862563672584700,9.367584716796875,0.2969512939453125,0.2417755126953125,-0.714141845703125
1663862563682442000,9.37744189453125,0.234100341796875,0.1842498779296875,-0.904815673828125
1663862563692329500,9.38732958984375,0.161651611328125,0.1043548583984375,-1.1306610107421875
1663862563702217200,9.39721728515625,0.0540618896484375,0.0958404541015625,-1.306427001953125
1663862563712074500,9.407074462890625,-0.0833587646484375,0.21087646484375,-1.339447021484375
1663862563721992700,9.41699267578125,-0.1973419189453125,0.2747955322265625,-1.238250732421875
1663862563731849700,9.426849609375,-0.278289794921875,0.2332611083984375,-1.1200103759765625
1663862563741768000,9.436767822265624,-0.36883544921875,0.14697265625,-1.055023193359375
1663862563751655700,9.44665576171875,-0.4934844970703125,-0.002166748046875,-1.0060272216796875
1663862563761543400,9.45654345703125,-0.6266326904296875,-0.2130889892578125,-0.92718505859375
1663862563771431200,9.46643115234375,-0.7257080078125,-0.4623565673828125,-0.8771209716796875
1663862563781288400,9.476288330078125,-0.7555389404296875,-0.643463134765625,-0.94317626953125
1663862563791145500,9.4861455078125,-0.7086639404296875,-0.6871337890625,-1.09124755859375
1663862563801033200,9.496033203125,-0.576568603515625,-0.6381378173828125,-1.2329254150390625
1663862563810921000,9.5059208984375,-0.3667144775390625,-0.559295654296875,-1.351165771484375
1663862563820778000,9.515778076171875,-0.1025238037109375,-0.4857940673828125,-1.431060791015625
1663862563830665700,9.525665771484375,0.140350341796875,-0.471954345703125,-1.4140167236328125
1663862563840584000,9.535583984375,0.2948150634765625,-0.5422515869140625,-1.37567138671875
1663862563850441200,9.545441162109375,0.3885650634765625,-0.608306884765625,-1.4800567626953125
1663862563860298200,9.55529833984375,0.4769744873046875,-0.609375,-1.786865234375
1663862563870186000,9.56518603515625,0.5675201416015625,-0.5358734130859375,-2.3621063232421875
1663862563880073700,9.57507373046875,0.781646728515625,-0.370758056640625,-3.1195068359375
1663862563889992000,9.584991943359375,1.1736602783203125,-0.17474365234375,-3.6958160400390625
1663862563899849200,9.59484912109375,1.6189422607421875,-0.027740478515625,-3.8406829833984375
1663862563909736700,9.60473681640625,1.9481048583984375,-0.1939239501953125,-3.783172607421875
1663862563919594000,9.614593994140625,2.1547698974609375,-0.4857940673828125,-3.882232666015625
1663862563929512200,9.62451220703125,2.2794036865234375,-0.6477203369140625,-3.997283935546875
1663862563939400000,9.63439990234375,2.262359619140625,-0.7393341064453125,-3.837493896484375
1663862563949257000,9.644257080078125,2.05889892578125,-0.756378173828125,-3.463592529296875
1663862563959175200,9.654175048828124,1.6402435302734375,-0.7063140869140625,-3.0214996337890625
1663862563969063000,9.66406298828125,1.1938934326171875,-0.6402587890625,-2.639068603515625
1663862563978920200,9.673920166015625,0.9243927001953125,-0.5997772216796875,-2.3162994384765625
1663862563988777200,9.683777099609374,0.8562164306640625,-0.608306884765625,-2.013763427734375
1663862563998695400,9.6936953125,0.9073486328125,-0.5774078369140625,-1.7442474365234375
1663862564008552700,9.703552734375,0.9925689697265625,-0.42401123046875,-1.4001617431640625
1663862564018440400,9.7134404296875,1.0724639892578125,-0.171539306640625,-0.9644775390625
1663862564028297500,9.72329736328125,1.066070556640625,0.1522979736328125,-0.5000152587890625
1663862564038216000,9.7332158203125,1.0863037109375,0.4708099365234375,-0.041961669921875
1663862564048103400,9.743103515625,1.2674102783203125,0.6849212646484375,0.3532562255859375
1663862564057991200,9.7529912109375,1.190704345703125,0.76055908203125,0.6845550537109375
1663862564067848400,9.762848388671875,0.7901611328125,0.554962158203125,0.9647216796875
1663862564077736200,9.772736083984375,0.66552734375,0.36322021484375,1.121307373046875
1663862564087593200,9.78259326171875,0.6261138916015625,0.2396392822265625,1.3237152099609375
1663862564097511400,9.792511474609375,0.440765380859375,0.145904541015625,1.5740509033203125
1663862564107368700,9.80236865234375,0.2596588134765625,0.0915679931640625,1.821197509765625
1663862564117256400,9.81225634765625,0.1392822265625,0.12353515625,2.0321197509765625
1663862564127144000,9.82214404296875,0.0679168701171875,0.256683349609375,2.20574951171875
1663862564137031700,9.83203173828125,0.0561981201171875,0.5155487060546875,2.31866455078125
1663862564146919400,9.84191943359375,0.1254425048828125,0.8553619384765625,2.3623504638671875
1663862564156807200,9.85180712890625,0.2628631591796875,1.2090301513671875,2.4038848876953125
1663862564166695000,9.86169482421875,0.38323974609375,1.53607177734375,2.49444580078125
1663862564176582400,9.87158251953125,0.4471435546875,1.7682952880859375,2.628662109375
1663862564186439700,9.881439697265625,0.4940185546875,1.936614990234375,2.7490386962890625
1663862564196327400,9.891327392578125,0.5259857177734375,2.1454010009765625,2.8172149658203125
1663862564206215200,9.901215087890625,0.530242919921875,2.423431396484375,2.832122802734375
1663862564216072200,9.911072265625,0.485504150390625,2.60986328125,2.824676513671875
1663862564225960000,9.9209599609375,0.4109344482421875,2.6226348876953125,2.740509033203125
1663862564235847700,9.93084765625,0.37152099609375,2.423431396484375,2.44757080078125
1663862564245735400,9.9407353515625,0.3651275634765625,1.89080810546875,2.228118896484375
1663862564255623000,9.950622802734374,0.4343719482421875,1.4146270751953125,2.03424072265625
1663862564265480200,9.960480224609375,0.46099853515625,1.055633544921875,1.9000244140625
1663862564275398400,9.9703984375,0.2969512939453125,0.83831787109375,1.8456878662109375
1663862564285286100,9.9802861328125,0.0018768310546875,0.7903900146484375,1.8531494140625
1663862564295174000,9.990173828125,-0.1962738037109375,0.8521728515625,1.9181365966796875
1663862564305061600,10.0000615234375,-0.1707000732421875,0.930999755859375,1.9969635009765625
1663862564314949000,10.00994921875,-0.0354156494140625,1.0726776123046875,1.96820068359375
1663862564324836900,10.0198369140625,0.109466552734375,1.3112945556640625,1.84356689453125
1663862564334724600,10.029724609375,0.2287750244140625,1.5765533447265625,1.70721435546875
1663862564344582000,10.039581787109375,0.334228515625,1.7587127685546875,1.6315765380859375
1663862564354469400,10.049469482421875,0.440765380859375,1.6532440185546875,1.6752471923828125
1663862564364326700,10.05932666015625,0.5334320068359375,1.248443603515625,1.83929443359375
1663862564374214400,10.06921435546875,0.577117919921875,0.7989044189453125,1.988433837890625
1663862564384102100,10.07910205078125,0.6058807373046875,0.519805908203125,2.000152587890625
1663862564393959200,10.088959228515625,0.61865234375,0.488922119140625,1.774322509765625
1663862564403847000,10.098846923828125,0.6175994873046875,0.7222137451171875,1.3705902099609375
1663862564413734700,10.108734619140625,0.549407958984375,0.906494140625,1.08721923828125
1663862564423622400,10.118622314453125,0.495086669921875,0.6316680908203125,0.9359588623046875
1663862564433510000,10.128510009765625,0.5824432373046875,-0.06927490234375,0.49493408203125
1663862564443367200,10.1383671875,0.56219482421875,-0.709503173828125,-0.485107421875
1663862564453255000,10.1482548828125,0.2564697265625,-0.5081634521484375,-1.3245391845703125
1663862564463112000,10.15811181640625,-0.190948486328125,0.112884521484375,-1.3000335693359375
1663862564472999700,10.167999755859375,-0.339019775390625,0.14483642578125,-0.6491546630859375
1663862564482887400,10.177887451171875,-0.146209716796875,0.4217987060546875,-0.1356964111328125
1663862564492775200,10.187775146484375,0.0807037353515625,0.6636199951171875,-0.110137939453125
1663862564502663000,10.197662841796875,0.3651275634765625,-0.0117645263671875,-0.486175537109375
1663862564512520000,10.20752001953125,0.5483551025390625,-0.4868621826171875,-1.053955078125
1663862564522407700,10.21740771484375,0.380035400390625,-0.00323486328125,-1.13385009765625
1663862564532295400,10.22729541015625,0.152069091796875,0.7456512451171875,-0.5841827392578125
1663862564542213600,10.237213623046875,0.039154052734375,1.1749420166015625,-0.025970458984375
1663862564552071000,10.24707080078125,0.06365966796875,1.248443603515625,0.246734619140625
1663862564561928000,10.256927978515625,0.132904052734375,1.2591094970703125,0.4800262451171875
1663862564571846100,10.26684619140625,0.04022216796875,1.1994476318359375,0.7772369384765625
1663862564581734000,10.27673388671875,-0.2292938232421875,1.0513763427734375,1.0392913818359375
1663862564591621600,10.28662158203125,-0.5456695556640625,0.97894287109375,1.156463623046875
1663862564601509400,10.29650927734375,-0.7970733642578125,1.0279388427734375,1.1383514404296875
1663862564611366400,10.306366455078125,-0.9121246337890625,1.0620269775390625,1.0403594970703125
1663862564621254100,10.316254150390625,-0.8545989990234375,0.964019775390625,0.9348907470703125
1663862564631142000,10.326141845703125,-0.7853546142578125,0.7626953125,0.81451416015625
1663862564641029600,10.336029541015625,-0.7661895751953125,0.2971649169921875,0.90826416015625
1663862564650917000,10.345917236328125,-0.6287689208984375,-0.183258056640625,1.269378662109375
1663862564660774400,10.3557744140625,-0.5030670166015625,-0.0074920654296875,1.351409912109375
1663862564670662100,10.365662109375,-0.49560546875,0.3802642822265625,1.2629852294921875
1663862564680550000,10.3755498046875,-0.484954833984375,0.62420654296875,1.292816162109375
1663862564690437400,10.385437255859374,-0.451934814453125,0.8585662841796875,1.3130645751953125
1663862564700294700,10.395294677734375,-0.4338226318359375,1.0279388427734375,1.2416839599609375
1663862564710182400,10.405182373046875,-0.484954833984375,1.058837890625,1.156463623046875
1663862564720070100,10.415070068359375,-0.54248046875,1.034332275390625,1.08721923828125
1663862564729927200,10.42492724609375,-0.5499420166015625,1.047119140625,0.9263763427734375
1663862564739815000,10.43481494140625,-0.5467376708984375,1.1067657470703125,0.6813507080078125
1663862564749702700,10.44470263671875,-0.576568603515625,1.1653594970703125,0.404388427734375
1663862564759590400,10.45459033203125,-0.7022705078125,1.1536407470703125,0.143402099609375
1663862564769478100,10.46447802734375,-0.9270477294921875,1.1483154296875,-0.07177734375
1663862564779365600,10.47436572265625,-1.2189178466796875,1.180267333984375,-0.201751708984375
1663862564789253400,10.48425341796875,-1.5417022705078125,1.1781463623046875,-0.209197998046875
1663862564799110700,10.494110595703125,-1.841033935546875,1.3592376708984375,-0.2411651611328125
1663862564808998400,10.503998291015625,-2.033843994140625,1.73101806640625,-0.359405517578125
1663862564818886000,10.513885986328125,-2.07965087890625,2.016510009765625,-0.4882965087890625
1663862564828773600,10.523773681640625,-1.93585205078125,1.9525909423828125,-0.5905609130859375
1663862564838661400,10.533661376953125,-1.6407623291015625,1.6926727294921875,-0.794036865234375
1663862564848549000,10.543549072265625,-1.3339691162109375,1.4284820556640625,-1.0699310302734375
1663862564858436900,10.553436767578125,-1.16033935546875,1.250579833984375,-1.1658172607421875
1663862564868294000,10.5632939453125,-1.1667327880859375,1.43487548828125,-0.9900360107421875
1663862564878181600,10.573181640625,-1.1422271728515625,2.082550048828125,-0.7098846435546875
1663862564888069400,10.5830693359375,-0.9344940185546875,2.69720458984375,-0.5916290283203125
1663862564897926400,10.592926513671875,-0.62237548828125,2.9901580810546875,-0.632110595703125
1663862564907814100,10.602814208984375,-0.4178466796875,3.1052093505859375,-0.667266845703125
1663862564917732400,10.612732421875,-0.2431488037109375,3.2213134765625,-0.67578125
1663862564927589600,10.622589599609375,-0.0673675537109375,3.2191925048828125,-0.5596771240234375
1663862564937477400,10.632477294921875,-0.0588531494140625,3.1488800048828125,-0.5245208740234375
1663862564947364900,10.64236474609375,-0.155792236328125,3.22344970703125,-0.5010833740234375
1663862564957252600,10.652252685546875,-0.3635101318359375,3.63677978515625,-0.277374267578125
1663862564967110000,10.66210986328125,-0.5968017578125,4.0522308349609375,-0.0408935546875
1663862564976997600,10.67199755859375,-0.7960205078125,4.0181427001953125,-0.016387939453125
1663862564986885000,10.681885009765624,-0.9025421142578125,3.887115478515625,0.0475311279296875
1663862564996772900,10.69177294921875,-0.7992095947265625,3.967010498046875,0.2840118408203125
1663862565006660600,10.70166064453125,-0.473236083984375,4.0266571044921875,0.5354156494140625
1663862565016548400,10.71154833984375,-0.1355438232421875,3.8317108154296875,0.5513916015625
1663862565026436000,10.72143603515625,0.0657806396484375,3.2735137939453125,0.2190399169921875
1663862565036323800,10.73132373046875,0.0774993896484375,1.8939971923828125,-0.481903076171875
1663862565046211300,10.74121142578125,-0.256988525390625,0.7690887451171875,-0.9101409912109375
1663862565056099000,10.75109912109375,-0.8673858642578125,1.4061126708984375,-0.5032196044921875
1663862565065956400,10.760956298828125,-1.4010772705078125,3.8370361328125,0.6366119384765625
1663862565075813400,10.7708134765625,-1.638641357421875,6.098602294921875,2.014007568359375
1663862565085731600,10.780731689453125,-1.683380126953125,6.1465301513671875,2.53704833984375
1663862565095619300,10.790619384765625,-1.8825836181640625,4.286590576171875,1.9735260009765625
1663862565105507000,10.800507080078125,-1.79736328125,2.6812286376953125,1.297088623046875
1663862565115394800,10.810394775390625,-1.0687255859375,3.017852783203125,1.499481201171875
1663862565125282600,10.820282470703125,0.2745819091796875,5.0791473388671875,2.321868896484375
1663862565135170000,10.830170166015625,1.4346466064453125,6.784637451171875,2.6361236572265625
1663862565145057800,10.840057861328125,2.204833984375,6.5119171142578125,2.06939697265625
1663862565154915000,10.8499150390625,2.8823394775390625,5.89300537109375,1.5282440185546875
1663862565164802800,10.859802734375,3.620574951171875,6.1625213623046875,1.4930877685546875
1663862565174690300,10.869690185546874,4.30126953125,6.528961181640625,1.8712615966796875
1663862565184578000,10.879578125,4.88824462890625,5.7491912841796875,2.14715576171875
1663862565194435300,10.889435302734375,5.477325439453125,3.8594207763671875,2.1311798095703125
1663862565204292400,10.899292236328124,6.060028076171875,1.5147705078125,2.0321197509765625
1663862565214180000,10.90918017578125,6.5649566650390625,-0.7851409912109375,1.910675048828125
1663862565224067800,10.91906787109375,7.0336761474609375,-2.22857666015625,1.8957672119140625
1663862565233955600,10.92895556640625,7.4214324951171875,-3.20648193359375,2.2355804443359375
1663862565243843300,10.93884326171875,7.72503662109375,-3.5516357421875,3.0323944091796875
1663862565253700400,10.948700439453125,7.9561920166015625,-2.9028778076171875,4.2436065673828125
1663862565263588000,10.958588134765625,7.863525390625,-0.091644287109375,5.7903594970703125
1663862565273445400,10.9684453125,7.24566650390625,4.637054443359375,7.36163330078125
1663862565283363600,10.978363525390625,7.35113525390625,8.302627563476562,7.7302093505859375
1663862565293220600,10.988220703125,7.8816375732421875,9.013168334960938,7.111297607421875
1663862565303138800,10.998138916015625,7.883758544921875,5.4445343017578125,6.4827880859375
1663862565313026600,11.008026611328125,7.441680908203125,-0.0554351806640625,5.91180419921875
1663862565322914300,11.017914306640625,6.833404541015625,-4.164154052734375,5.3237762451171875
1663862565332771600,11.027771484375,6.16229248046875,-5.9367523193359375,4.9956817626953125
1663862565342659000,11.0376591796875,5.41021728515625,-5.5543212890625,4.9264373779296875
1663862565352516400,11.047516357421875,4.68157958984375,-3.628326416015625,4.95306396484375
1663862565362434600,11.0574345703125,4.20220947265625,-1.5254974365234375,4.9381561279296875
1663862565372322300,11.067322265625,3.9241790771484375,-0.288726806640625,4.6739654541015625
1663862565382210000,11.0772099609375,3.6663818359375,-0.0756683349609375,4.0966033935546875
1663862565392097500,11.08709765625,3.287139892578125,-0.8160247802734375,3.37115478515625
1663862565401985300,11.0969853515625,2.102569580078125,-2.683441162109375,2.48272705078125
1663862565411842600,11.106842529296875,0.2447509765625,-3.571868896484375,2.0725860595703125
1663862565421730300,11.116730224609375,-1.229583740234375,-3.5122222900390625,2.0054779052734375
1663862565431587300,11.12658740234375,-2.219207763671875,-3.7061004638671875,1.3226470947265625
1663862565441444600,11.136444580078125,-2.856231689453125,-3.51434326171875,0.4576568603515625
1663862565451332400,11.146332275390625,-3.403778076171875,-3.15216064453125,-0.3625946044921875
1663862565461250600,11.15625048828125,-4.16864013671875,-3.7305908203125,-1.0028228759765625
1663862565471138000,11.166137939453124,-5.0943603515625,-4.6595001220703125,-1.6441192626953125
1663862565481025800,11.17602587890625,-5.76654052734375,-4.9705657958984375,-2.3258819580078125
1663862565490883000,11.185883056640625,-6.189453125,-4.72662353515625,-2.9213714599609375
1663862565500770800,11.195770751953125,-6.5921173095703125,-4.3740081787109375,-3.393280029296875
1663862565510658600,11.205658447265625,-7.019287109375,-3.9542999267578125,-3.823638916015625
1663862565520546000,11.215546142578125,-7.52423095703125,-3.2704010009765625,-4.226318359375
1663862565530433800,11.225433837890625,-8.105865478515625,-2.5076751708984375,-4.3243255615234375
1663862565540321500,11.235321533203125,-8.737564086914062,-1.703399658203125,-3.97705078125
1663862565550209300,11.245209228515625,-9.295761108398438,-0.55078125,-3.315521240234375
1663862565560097000,11.255096923828125,-9.718673706054688,0.87347412109375,-2.401519775390625
1663862565569984500,11.264984619140625,-10.065948486328125,2.22210693359375,-1.3351898193359375
1663862565579841800,11.274841796875,-10.418548583984375,2.9880218505859375,-0.23370361328125
1663862565589729500,11.2847294921875,-10.8734130859375,2.7760467529296875,0.8571319580078125
1663862565599617300,11.2946171875,-11.379409790039062,1.6575164794921875,1.9852447509765625
1663862565609504800,11.3045048828125,-11.8321533203125,0.5613555908203125,2.843841552734375
1663862565619392500,11.314392578125,-12.12615966796875,0.16827392578125,3.2071075439453125
1663862565629280300,11.3242802734375,-12.26678466796875,0.066009521484375,3.3061676025390625
1663862565639137500,11.334137451171875,-12.418045043945312,-0.3260040283203125,3.473419189453125
1663862565649025000,11.34402490234375,-12.680099487304688,-0.939605712890625,3.7067108154296875
1663862565658912800,11.353912841796875,-12.82177734375,-1.3518524169921875,3.8867340087890625
1663862565668800500,11.363800537109375,-12.639617919921875,-1.3795623779296875,4.1040496826171875
1663862565678688300,11.373688232421875,-12.023895263671875,-1.5595855712890625,4.1615753173828125
1663862565688545300,11.383545166015624,-10.581527709960938,-3.1329803466796875,3.792999267578125
1663862565698433000,11.39343310546875,-8.649139404296875,-4.6488494873046875,3.5788726806640625
1663862565708320800,11.40332080078125,-7.0363311767578125,-5.2997283935546875,3.44677734375
1663862565718208500,11.41320849609375,-5.834716796875,-5.508514404296875,3.175140380859375
1663862565728096300,11.42309619140625,-4.524444580078125,-5.1516571044921875,2.7501068115234375
1663862565737953300,11.432953369140625,-3.1065673828125,-3.93939208984375,2.4379730224609375
1663862565747841000,11.442841064453125,-2.011474609375,-2.281829833984375,2.251556396484375
1663862565757728800,11.452728759765625,-1.180572509765625,-0.9332122802734375,2.20574951171875
1663862565767616500,11.462616455078125,-0.47430419921875,-0.0895233154296875,2.2472991943359375
1663862565777504300,11.472504150390625,0.07110595703125,0.225799560546875,2.183380126953125
1663862565787391700,11.482391845703125,0.34808349609375,0.1757354736328125,2.01507568359375
1663862565797249000,11.4922490234375,0.4120025634765625,-0.45916748046875,1.8606109619140625
1663862565807106300,11.502106201171875,0.4002838134765625,-1.609649658203125,1.713592529296875
1663862565816993800,11.511993896484375,0.3054656982421875,-2.990234375,1.5921630859375
1663862565826881500,11.521881591796875,0.1925506591796875,-4.1503143310546875,1.5687255859375
1663862565836769300,11.531769287109375,-0.247406005859375,-3.1617431640625,2.0651397705078125
1663862565846657000,11.541656982421875,-1.2423553466796875,-0.263153076171875,3.4989776611328125
1663862565856544800,11.551544677734375,-1.476715087890625,-0.3824615478515625,3.948516845703125
1663862565866432300,11.561432373046875,-1.4010772705078125,-1.1718292236328125,3.66729736328125
1663862565876320000,11.571320068359375,-1.79949951171875,-1.4669036865234375,3.348785400390625
1663862565886207700,11.581207763671875,-2.6261444091796875,-1.78009033203125,2.937591552734375
1663862565896095500,11.591095458984375,-3.7052459716796875,-2.6557464599609375,2.2345123291015625
1663862565905952500,11.600952392578124,-4.752410888671875,-3.425933837890625,1.3482208251953125
1663862565915840300,11.61084033203125,-5.4299163818359375,-3.118072509765625,0.57696533203125
1663862565925728000,11.62072802734375,-5.6205902099609375,-1.9143218994140625,0.0805511474609375
1663862565935615700,11.63061572265625,-5.5928955078125,-0.730804443359375,-0.2283782958984375
1663862565945503500,11.64050341796875,-5.4608001708984375,0.1490936279296875,-0.5351715087890625
1663862565955391200,11.65039111328125,-5.0325775146484375,-0.05010986328125,-0.737579345703125
1663862565965248300,11.660248291015625,-4.4125823974609375,-1.518035888671875,-0.862213134765625
1663862565975136000,11.670135986328125,-3.7457275390625,-1.9036712646484375,-0.96234130859375
1663862565985023700,11.680023681640625,-2.9883270263671875,-2.1891632080078125,-0.860076904296875
1663862565994911500,11.689911376953125,-2.2586212158203125,-2.18170166015625,-0.7152099609375
1663862566004799000,11.699799072265625,-1.657806396484375,-1.6852874755859375,-0.5809783935546875
1663862566014656300,11.70965625,-1.178436279296875,-1.1601104736328125,-0.3647308349609375
1663862566024544000,11.7195439453125,-0.9749755859375,-0.8192291259765625,-0.223052978515625
1663862566034431700,11.729431640625,-1.1283721923828125,-0.7020416259765625,-0.333831787109375
1663862566044288800,11.739288818359375,-1.4160003662109375,-0.639190673828125,-0.5575408935546875
1663862566054176500,11.749176513671875,-1.6652679443359375,-0.3867340087890625,-0.6523590087890625
1663862566064024300,11.7590244140625,-1.77392578125,0.14697265625,-0.4307708740234375
1663862566073912000,11.768912109375,-1.7558135986328125,0.7893218994140625,0.0880126953125
1663862566083769300,11.778769287109375,-1.716400146484375,1.22821044921875,0.7324981689453125
1663862566093656800,11.78865673828125,-1.692962646484375,1.0641632080078125,1.4046783447265625
1663862566103575000,11.798574951171876,-1.6407623291015625,0.4356536865234375,1.912811279296875
1663862566113462800,11.808462890625,-1.502288818359375,-0.0554351806640625,2.09283447265625
1663862566123350500,11.8183505859375,-1.2221221923828125,-0.2237396240234375,2.093902587890625
1663862566133216000,11.828216064453125,-0.9494171142578125,-0.28765869140625,1.8946990966796875
1663862566143073300,11.8380732421875,-0.8013458251953125,-0.3750152587890625,1.511199951171875
1663862566152961000,11.8479609375,-0.72357177734375,-0.5561065673828125,1.045684814453125
1663862566162848800,11.857848876953126,-0.6490020751953125,-0.789398193359375,0.599334716796875
1663862566172736300,11.867736328125,-0.5914764404296875,-0.9129638671875,0.2392730712890625
1663862566182624000,11.8776240234375,-0.5605926513671875,-0.84478759765625,0.0006561279296875
1663862566192511700,11.88751171875,-0.5595245361328125,-0.6274871826171875,-0.143157958984375
1663862566202369000,11.897369140625,-0.5701751708984375,-0.5230865478515625,-0.2422332763671875
1663862566212256500,11.907256591796875,-0.60107421875,-0.60723876953125,-0.335968017578125
1663862566222174700,11.9171748046875,-0.6724395751953125,-0.7404022216796875,-0.4552764892578125
1663862566232032000,11.927031982421875,-0.748077392578125,-0.8980560302734375,-0.555419921875
1663862566241889300,11.93688916015625,-0.791748046875,-1.0226898193359375,-0.5820465087890625
1663862566251807500,11.946807373046875,-0.781097412109375,-1.07489013671875,-0.531982421875
1663862566261695000,11.956695068359375,-0.7214508056640625,-1.0695648193359375,-0.4201202392578125
1663862566271582700,11.966582763671875,-0.6671142578125,-1.029083251953125,-0.2901611328125
1663862566281470500,11.976470458984375,-0.6266326904296875,-0.9364013671875,-0.17510986328125
1663862566291358200,11.986358154296875,-0.5733795166015625,-0.9119110107421875,-0.1239776611328125
1663862566301246000,11.996245849609375,-0.51904296875,-1.019500732421875,-0.1729888916015625
1663862566311133400,12.006133544921875,-0.4817657470703125,-1.09619140625,-0.2859039306640625
1663862566321021200,12.016021240234375,-0.4561920166015625,-1.054656982421875,-0.4211883544921875
1663862566330909000,12.025908935546875,-0.442352294921875,-0.952392578125,-0.5479583740234375
1663862566340766200,12.03576611328125,-0.454071044921875,-0.87994384765625,-0.6821746826171875
1663862566350653700,12.04565380859375,-0.487091064453125,-0.8618316650390625,-0.8515625
1663862566360541400,12.05554150390625,-0.55419921875,-0.8511810302734375,-1.0614166259765625
1663862566370429200,12.06542919921875,-0.658599853515625,-0.80218505859375,-1.30535888671875
1663862566380317000,12.07531689453125,-0.7406158447265625,-0.758514404296875,-1.5610198974609375
1663862566390174200,12.08517431640625,-0.761932373046875,-0.7638397216796875,-1.7911224365234375
1663862566400031200,12.09503125,-0.7427520751953125,-0.798980712890625,-1.966888427734375
1663862566409919000,12.1049189453125,-0.7374267578125,-0.811767578125,-2.1437225341796875
1663862566419806700,12.114806640625,-0.7544708251953125,-0.7712860107421875,-2.34613037109375
1663862566429694500,12.124694580078126,-0.7288970947265625,-0.7361297607421875,-2.5304107666015625
1663862566439582000,12.13458203125,-0.63623046875,-0.63067626953125,-2.6582489013671875
1663862566449469700,12.1444697265625,-0.55633544921875,-0.403778076171875,-2.695526123046875
1663862566459357400,12.154357421875,-0.4774932861328125,-0.207763671875,-2.606048583984375
1663862566469245200,12.1642451171875,-0.402923583984375,-0.1225433349609375,-2.414306640625
1663862566479133000,12.1741328125,-0.3571319580078125,-0.1449127197265625,-2.1575775146484375
1663862566488990000,12.183989990234375,-0.325164794921875,-0.243988037109375,-1.8816680908203125
1663862566498847200,12.19384716796875,-0.3358154296875,-0.3878021240234375,-1.692047119140625
1663862566508735000,12.20373486328125,-0.383758544921875,-0.4613037109375,-1.614288330078125
1663862566518592000,12.213592041015625,-0.3475341796875,-0.5198822021484375,-1.5567626953125
1663862566528510200,12.22351025390625,-0.2761688232421875,-0.6136322021484375,-1.4939117431640625
1663862566538367500,12.233367431640625,-0.2388763427734375,-0.6477203369140625,-1.417205810546875
1663862566548285700,12.24328564453125,-0.2772369384765625,-0.6019134521484375,-1.32666015625
1663862566558173400,12.25317333984375,-0.32623291015625,-0.51776123046875,-1.226531982421875
1663862566568061000,12.26306103515625,-0.346466064453125,-0.3526458740234375,-1.1285247802734375
1663862566577918200,12.272918212890625,-0.327301025390625,-0.0991058349609375,-0.99749755859375
1663862566587806000,12.282805908203125,-0.2495269775390625,0.1267242431640625,-0.829193115234375
1663862566597693700,12.292693603515625,-0.13128662109375,0.1970367431640625,-0.669403076171875
1663862566607550700,12.30255078125,-0.1153106689453125,0.249237060546875,-0.5809783935546875
1663862566617438500,12.3124384765625,-0.1515350341796875,0.258819580078125,-0.505340576171875
1663862566627326200,12.322326171875,-0.1717681884765625,0.2439117431640625,-0.414794921875
1663862566637214000,12.3322138671875,-0.1621856689453125,0.2055511474609375,-0.314666748046875
1663862566647101700,12.342101806640626,-0.132354736328125,0.176788330078125,-0.213470458984375
1663862566656989200,12.3519892578125,-0.0929412841796875,0.2183380126953125,-0.121856689453125
1663862566666877000,12.361876953125,-0.040740966796875,0.284393310546875,-0.0249176025390625
1663862566676764700,12.3717646484375,0.0125274658203125,0.3355255126953125,0.086944580078125
1663862566686652400,12.38165234375,0.0540618896484375,0.337646484375,0.189208984375
1663862566696540200,12.3915400390625,0.095611572265625,0.3302001953125,0.279754638671875
1663862566706427600,12.401427734375,0.1350250244140625,0.3461761474609375,0.3639068603515625
1663862566716285000,12.411284912109375,0.1829681396484375,0.350433349609375,0.437408447265625
1663862566726172700,12.421172607421875,0.23089599609375,0.3696136474609375,0.4672393798828125
1663862566736060400,12.431060302734375,0.2799072265625,0.4111480712890625,0.41717529296875
1663862566745948000,12.440947998046875,0.3310394287109375,0.444183349609375,0.32769775390625
1663862566755835600,12.450835693359375,0.369384765625,0.4239349365234375,0.2850799560546875
1663862566765662500,12.460662353515625,0.38323974609375,0.3312530517578125,0.29254150390625
1663862566775550000,12.470550048828125,0.389617919921875,0.237518310546875,0.28826904296875
1663862566785437700,12.480437744140625,0.3970794677734375,0.237518310546875,0.2169036865234375
1663862566795325400,12.490325439453125,0.4311676025390625,0.3461761474609375,0.0656280517578125
1663862566805213200,12.500213134765625,0.497222900390625,0.53045654296875,-0.1048126220703125
1663862566815101000,12.510100830078125,0.5643310546875,0.679595947265625,-0.21026611328125
1663862566824958000,12.5199580078125,0.61865234375,0.716888427734375,-0.2028045654296875
1663862566834845700,12.529845703125,0.664459228515625,0.69024658203125,-0.094146728515625
1663862566844733400,12.5397333984375,0.7177276611328125,0.6519012451171875,0.06243896484375
1663862566854621200,12.54962109375,0.7656707763671875,0.6295318603515625,0.2062530517578125
1663862566864508700,12.5595087890625,0.78271484375,0.6657562255859375,0.31597900390625
1663862566874396400,12.569396484375,0.78271484375,0.747772216796875,0.3916015625
1663862566884284200,12.5792841796875,0.814666748046875,0.8521728515625,0.4768218994140625
1663862566894141400,12.589141357421875,0.8018798828125,0.8798675537109375,0.589752197265625
1663862566904029200,12.599029296875,0.72412109375,0.829803466796875,0.6941375732421875
1663862566913916700,12.608916748046875,0.588836669921875,0.7435150146484375,0.7420806884765625
1663862566923804400,12.618804443359375,0.4428863525390625,0.6636199951171875,0.8006744384765625
1663862566933692200,12.628692138671875,0.3651275634765625,0.56561279296875,0.9018707275390625
1663862566943580000,12.638579833984375,0.32464599609375,0.4899749755859375,0.99560546875
1663862566953467600,12.648467529296875,0.3097381591796875,0.46441650390625,1.1500701904296875
1663862566963355100,12.658355224609375,0.2852325439453125,0.488922119140625,1.353546142578125
1663862566973243000,12.668242919921875,0.255401611328125,0.5443115234375,1.4717864990234375
1663862566983100200,12.67810009765625,0.25433349609375,0.6305999755859375,1.4259796142578125
1663862566992988000,12.68798779296875,0.280975341796875,0.6689453125,1.2288970947265625
1663862567002875400,12.69787548828125,0.333160400390625,0.705169677734375,0.9764404296875
1663862567012732700,12.707732666015625,0.3981475830078125,0.8031768798828125,0.7772369384765625
1663862567022620400,12.717620361328125,0.471649169921875,0.8787994384765625,0.66644287109375
1663862567032477400,12.7274775390625,0.539825439453125,0.956573486328125,0.6707000732421875
1663862567042365200,12.737365234375,0.5600738525390625,1.0886688232421875,0.816650390625
1663862567052253000,12.7472529296875,0.5579376220703125,1.1536407470703125,1.03289794921875
1663862567062140700,12.757140625,0.5643310546875,1.0897216796875,1.21185302734375
1663862567072028400,12.7670283203125,0.5451507568359375,0.9373931884765625,1.280029296875
1663862567081916000,12.776916015625,0.495086669921875,0.782928466796875,1.20440673828125
1663862567091773200,12.786773193359375,0.4471435546875,0.7232818603515625,0.9902801513671875
1663862567101661000,12.796660888671875,0.403472900390625,0.705169677734375,0.6834869384765625
1663862567111518000,12.80651806640625,0.3640594482421875,0.6092987060546875,0.404388427734375
1663862567121436400,12.8164365234375,0.3203887939453125,0.430328369140625,0.2051849365234375
1663862567131324000,12.826323974609375,0.255401611328125,0.178924560546875,0.0432586669921875
1663862567141211600,12.836211669921875,0.1914825439453125,-0.0128173828125,-0.10693359375
1663862567151099400,12.846099365234375,0.140350341796875,-0.070343017578125,-0.2177276611328125
1663862567160987100,12.855987060546875,0.1041412353515625,-0.0479736328125,-0.23370361328125
1663862567170844200,12.86584423828125,0.0561981201171875,0.0489654541015625,-0.1463470458984375
1663862567180732000,12.87573193359375,-0.0162353515625,0.22686767578125,0.09759521484375
1663862567190619600,12.88561962890625,-0.130218505859375,0.4037017822265625,0.3969268798828125
1663862567200507400,12.89550732421875,-0.2431488037109375,0.4015655517578125,0.47576904296875
1663862567210395100,12.90539501953125,-0.313446044921875,0.35150146484375,0.429962158203125
1663862567220252200,12.915252197265625,-0.33795166015625,0.2982330322265625,0.3287506103515625
1663862567230109400,12.925109375,-0.3858795166015625,0.223663330078125,0.190277099609375
1663862567239997200,12.9349970703125,-0.430633544921875,0.1032867431640625,0.06243896484375
1663862567249884700,12.944884765625,-0.3997344970703125,-0.0437164306640625,-0.0238494873046875
1663862567259772400,12.9547724609375,-0.3070526123046875,-0.194976806640625,-0.0366363525390625
1663862567269660200,12.96466015625,-0.2378082275390625,-0.3441162109375,0.060302734375
1663862567279548000,12.9745478515625,-0.2175750732421875,-0.4900665283203125,0.2872161865234375
1663862567289435600,12.984435546875,-0.202667236328125,-0.5784759521484375,0.5130462646484375
1663862567299323100,12.9943232421875,-0.1813507080078125,-0.5784759521484375,0.57696533203125
1663862567309211000,13.0042109375,-0.164306640625,-0.514556884765625,0.4928131103515625
1663862567319098600,13.0140986328125,-0.1728363037109375,-0.4101715087890625,0.3319549560546875
1663862567328986400,13.023986328125,-0.1930694580078125,-0.3174896240234375,0.1455230712890625
1663862567338843400,13.033843505859375,-0.211181640625,-0.2684783935546875,-0.0131988525390625
1663862567348731100,13.043731201171875,-0.22076416015625,-0.265289306640625,-0.1229095458984375
