time,seconds_elapsed,z,y,x
1663862554502815200,0.197815185546875,-40.26031494140625,-24.72991943359375,-2.783203125
1663862554522804200,0.21780419921875,-38.29803466796875,-25.6317138671875,-2.1759033203125
1663862554542793200,0.237793212890625,-39.51263427734375,-25.34332275390625,-3.70025634765625
1663862554562782200,0.2577822265625,-40.14129638671875,-26.1138916015625,-4.77142333984375
1663862554582771200,0.277771240234375,-38.92974853515625,-26.5625,-4.315185546875
1663862554602760200,0.29776025390625,-37.72430419921875,-27.1728515625,-4.77447509765625
1663862554622749200,0.317749267578125,-38.03863525390625,-27.48565673828125,-5.84259033203125
1663862554642738200,0.33773828125,-37.274169921875,-27.47344970703125,-4.4708251953125
1663862554662727200,0.35772705078125,-37.8814697265625,-27.33306884765625,-5.69000244140625
1663862554682716200,0.377716064453125,-37.005615234375,-29.010009765625,-6.61163330078125
1663862554702705400,0.397705322265625,-36.87896728515625,-30.206298828125,-4.3304443359375
1663862554722663700,0.41766357421875,-38.226318359375,-29.1412353515625,-3.86962890625
1663862554742683400,0.437683349609375,-37.14141845703125,-28.37982177734375,-3.86505126953125
1663862554762672400,0.45767236328125,-37.75482177734375,-28.533935546875,-4.0191650390625
1663862554782631000,0.477630859375,-36.871337890625,-29.90570068359375,-4.63409423828125
1663862554802955500,0.49795556640625,-37.7655029296875,-28.99322509765625,-4.47845458984375
1663862554822731000,0.51773095703125,-36.75537109375,-31.55975341796875,-2.6611328125
1663862554842628400,0.53762841796875,-36.114501953125,-30.18951416015625,-2.50091552734375
1663862554862647800,0.557647705078125,-36.2396240234375,-28.97796630859375,-2.95257568359375
1663862554882576000,0.577575927734375,-37.43896484375,-28.070068359375,-3.10211181640625
1663862554902595300,0.59759521484375,-36.83624267578125,-28.37677001953125,-3.55987548828125
1663862554922584300,0.617584228515625,-35.43853759765625,-27.1759033203125,-5.8380126953125
1663862554942573600,0.637573486328125,-37.750244140625,-28.24249267578125,-5.5419921875
1663862554962562600,0.6575625,-37.4298095703125,-27.61993408203125,-3.86199951171875
1663862554982551600,0.677551513671875,-37.4420166015625,-28.094482421875,-6.1492919921875
1663862555002510000,0.697510009765625,-37.43438720703125,-27.65655517578125,-8.28094482421875
1663862555022529500,0.717529541015625,-35.4461669921875,-27.490234375,-7.0587158203125
1663862555042518500,0.7375185546875,-36.077880859375,-28.40728759765625,-7.52105712890625
1663862555062507500,0.757507568359375,-36.395263671875,-28.88336181640625,-9.80987548828125
1663862555082496500,0.77749658203125,-36.85302734375,-28.8848876953125,-9.8114013671875
1663862555102485500,0.797485595703125,-36.2640380859375,-29.78973388671875,-9.2041015625
1663862555122444000,0.817444091796875,-33.50067138671875,-28.88946533203125,-11.1785888671875
1663862555142463500,0.83746337890625,-36.0809326171875,-28.436279296875,-10.87493896484375
1663862555162422000,0.857422119140625,-33.97216796875,-29.50897216796875,-12.40081787109375
1663862555182441700,0.877441650390625,-34.442138671875,-30.108642578125,-11.3372802734375
1663862555202430700,0.8974306640625,-33.3587646484375,-29.345703125,-11.33270263671875
1663862555222419700,0.917419677734375,-33.52813720703125,-29.97894287109375,-14.23187255859375
1663862555242399200,0.937399169921875,-32.36083984375,-32.26318359375,-15.15655517578125
1663862555262388200,0.95738818359375,-30.37567138671875,-32.1197509765625,-16.6778564453125
1663862555282377200,0.977377197265625,-28.22418212890625,-31.35986328125,-17.12799072265625
1663862555302366200,0.9973662109375,-28.67431640625,-30.9234619140625,-19.4122314453125
1663862555322355200,1.017355224609375,-25.6378173828125,-31.402587890625,-22.91717529296875
1663862555342313700,1.037313720703125,-24.2462158203125,-30.364990234375,-26.263427734375
1663862555362333200,1.057333251953125,-19.976806640625,-30.23223876953125,-29.76226806640625
1663862555382322400,1.077322509765625,-17.64678955078125,-28.277587890625,-32.79876708984375
1663862555402311400,1.0973115234375,-13.2110595703125,-27.5390625,-36.4471435546875
1663862555422269700,1.117269775390625,-9.2926025390625,-22.70050048828125,-40.38238525390625
1663862555442289400,1.137289306640625,-4.6142578125,-17.99468994140625,-42.18292236328125
1663862555462278400,1.1572783203125,-1.79901123046875,-14.82086181640625,-44.9066162109375
1663862555482267400,1.177267333984375,1.39923095703125,-8.15277099609375,-47.918701171875
1663862555502256400,1.19725634765625,1.0467529296875,-3.5797119140625,-46.22039794921875
1663862555522215000,1.21721484375,5.8868408203125,1.43890380859375,-46.9512939453125
1663862555542234400,1.237234375,6.2591552734375,4.33349609375,-46.17462158203125
1663862555562193000,1.25719287109375,8.17108154296875,7.97882080078125,-46.91619873046875
1663862555582212400,1.27721240234375,8.2733154296875,12.4114990234375,-43.99871826171875
1663862555602201300,1.297201416015625,8.95233154296875,15.4449462890625,-44.8974609375
1663862555622190600,1.317190673828125,8.6517333984375,15.6005859375,-44.28863525390625
1663862555642179600,1.3371796875,10.07080078125,17.730712890625,-44.42901611328125
1663862555662168600,1.35716845703125,10.04486083984375,16.5252685546875,-43.0633544921875
1663862555682432300,1.377432373046875,10.05401611328125,16.97235107421875,-44.12689208984375
1663862555702207500,1.39720751953125,12.04833984375,17.4407958984375,-43.20831298828125
1663862555722166000,1.417166015625,11.58294677734375,17.1234130859375,-44.73419189453125
1663862555742124500,1.43712451171875,11.3037109375,18.19915771484375,-43.20526123046875
1663862555762113500,1.457113525390625,14.02740478515625,17.291259765625,-43.359375
1663862555782102500,1.4771025390625,15.2862548828125,18.98040771484375,-41.67327880859375
1663862555802091500,1.497091552734375,15.75927734375,19.72808837890625,-43.19305419921875
1663862555822080500,1.51708056640625,16.07208251953125,20.03936767578125,-42.4285888671875
1663862555842069500,1.537069580078125,15.29541015625,19.293212890625,-40.60516357421875
1663862555862058800,1.557058837890625,14.48974609375,17.45452880859375,-42.138671875
1663862555882047700,1.5770478515625,14.79949951171875,17.7490234375,-43.3563232421875
1663862555902036700,1.59703662109375,15.09552001953125,17.30499267578125,-41.986083984375
1663862555922025700,1.617025634765625,16.95098876953125,18.3837890625,-40.75927734375
1663862555942014700,1.6370146484375,17.913818359375,20.379638671875,-38.46282958984375
1663862555962003700,1.657003662109375,21.99249267578125,25.28228759765625,-34.77630615234375
1663862555981992700,1.67699267578125,23.29254150390625,28.6590576171875,-31.2530517578125
1663862556001981700,1.696981689453125,21.39892578125,32.470703125,-29.25567626953125
1663862556021970700,1.716970703125,22.2259521484375,35.10284423828125,-23.7548828125
1663862556041929200,1.73692919921875,23.48480224609375,36.79046630859375,-22.06878662109375
1663862556061948700,1.75694873046875,21.07391357421875,37.884521484375,-17.95196533203125
1663862556081937700,1.776937744140625,22.314453125,38.7969970703125,-18.09844970703125
1663862556101927000,1.796927001953125,22.03369140625,39.85748291015625,-18.55010986328125
1663862556121916000,1.816916015625,20.52764892578125,40.63262939453125,-16.2628173828125
1663862556141905000,1.83690478515625,20.52001953125,40.32440185546875,-16.7205810546875
1663862556161863400,1.856863525390625,21.28143310546875,40.31829833984375,-17.78717041015625
1663862556181883000,1.8768828125,20.3887939453125,41.2353515625,-16.86859130859375
1663862556201872000,1.896871826171875,21.112060546875,39.434814453125,-14.28680419921875
1663862556221860900,1.91686083984375,21.57745361328125,39.8651123046875,-17.4835205078125
1663862556241849900,1.936849853515625,20.196533203125,39.55535888671875,-17.791748046875
1663862556261838800,1.9568388671875,21.57745361328125,39.8651123046875,-17.4835205078125
1663862556281827800,1.976827880859375,21.71783447265625,39.40582275390625,-17.94281005859375
1663862556301816800,1.99681689453125,21.43096923828125,40.04364013671875,-14.2822265625
1663862556321775400,2.016775390625,23.11553955078125,40.350341796875,-14.4317626953125
1663862556341795000,2.036795166015625,23.47259521484375,42.510986328125,-10.4583740234375
1663862556361784000,2.0567841796875,23.6328125,42.7001953125,-6.19049072265625
1663862556381742600,2.07674267578125,23.30780029296875,41.66259765625,-2.99530029296875
1663862556401762000,2.096761962890625,22.39990234375,41.84112548828125,0.5096435546875
1663862556421751000,2.1167509765625,21.685791015625,43.83697509765625,3.1097412109375
1663862556441740000,2.136739990234375,22.71270751953125,41.9036865234375,7.82623291015625
1663862556461729000,2.15672900390625,21.185302734375,41.7510986328125,8.12835693359375
1663862556481718000,2.176718017578125,17.3583984375,41.12701416015625,7.20672607421875
1663862556501707000,2.19670703125,16.78924560546875,42.82379150390625,10.26153564453125
1663862556521696000,2.216696044921875,13.7542724609375,43.30596923828125,14.0716552734375
1663862556542020900,2.237020751953125,15.11383056640625,42.71087646484375,15.289306640625
1663862556561948700,2.25694873046875,14.83612060546875,43.92547607421875,15.29388427734375
1663862556581724200,2.27672412109375,14.5111083984375,43.01605224609375,15.594482421875
1663862556601652200,2.29665234375,14.208984375,43.15948486328125,14.68048095703125
1663862556621641200,2.31664111328125,13.73443603515625,42.4041748046875,15.2862548828125
1663862556641630200,2.336630126953125,14.52484130859375,43.61724853515625,14.83612060546875
1663862556661619200,2.356619140625,13.75274658203125,43.29681396484375,13.0035400390625
1663862556681608200,2.376608154296875,14.6697998046875,43.44024658203125,11.78741455078125
1663862556701597200,2.39659716796875,14.95513916015625,42.535400390625,12.54425048828125
1663862556721586200,2.416586181640625,14.51568603515625,43.29833984375,13.00506591796875
1663862556741575200,2.4365751953125,13.57269287109375,42.07916259765625,12.84637451171875
1663862556761564200,2.456564208984375,15.88592529296875,43.292236328125,11.94000244140625
1663862556781553200,2.47655322265625,14.51568603515625,43.2952880859375,12.69989013671875
1663862556801542400,2.49654248046875,13.15460205078125,43.756103515625,13.61541748046875
1663862556821531400,2.516531494140625,13.0157470703125,44.36798095703125,14.07623291015625
1663862556841520400,2.536520263671875,12.860107421875,44.2138671875,13.922119140625
1663862556861509400,2.55650927734375,14.0594482421875,43.310546875,14.5294189453125
1663862556881498400,2.576498291015625,12.9852294921875,42.999267578125,14.068603515625
1663862556901487400,2.5964873046875,14.20135498046875,42.8466796875,13.61236572265625
1663862556921446000,2.61644580078125,12.2528076171875,44.3603515625,13.46435546875
1663862556941465300,2.63646533203125,15.45257568359375,44.2230224609375,14.3829345703125
1663862556961454300,2.656454345703125,15.130615234375,43.597412109375,12.24517822265625
1663862556981443300,2.676443359375,13.7603759765625,43.603515625,13.46282958984375
1663862557001432300,2.696432373046875,14.95513916015625,42.53997802734375,13.15460205078125
1663862557021421300,2.71642138671875,17.53082275390625,41.78009033203125,12.54425048828125
1663862557041379800,2.7363798828125,16.61834716796875,41.9342041015625,13.00048828125
1663862557061399600,2.756399658203125,18.92547607421875,42.840576171875,11.7889404296875
1663862557081388500,2.776388427734375,18.621826171875,42.8466796875,12.55035400390625
1663862557101377500,2.79637744140625,20.2606201171875,41.17584228515625,12.23907470703125
1663862557121366500,2.816366455078125,21.60797119140625,40.106201171875,11.16790771484375
1663862557141355500,2.83635546875,22.686767578125,40.570068359375,11.93389892578125
1663862557161344500,2.856344482421875,21.28448486328125,39.33868408203125,10.40191650390625
1663862557181333500,2.87633349609375,23.73504638671875,39.7979736328125,10.10284423828125
1663862557201322500,2.896322509765625,24.4873046875,39.3463134765625,10.406494140625
1663862557221311500,2.9163115234375,24.64752197265625,39.66217041015625,11.77978515625
1663862557241300500,2.936300537109375,25.2197265625,37.98370361328125,10.858154296875
1663862557261289500,2.95628955078125,28.3416748046875,34.36431884765625,13.433837890625
1663862557281278700,2.97627880859375,30.767822265625,33.76922607421875,14.34783935546875
1663862557301267700,2.996267822265625,33.44573974609375,30.74493408203125,15.55633544921875
1663862557321256700,3.016256591796875,35.0311279296875,26.788330078125,14.471435546875
1663862557341245700,3.03624560546875,35.01129150390625,25.74920654296875,17.3614501953125
1663862557361204200,3.056204345703125,35.7147216796875,23.17352294921875,18.1121826171875
1663862557381223700,3.0762236328125,35.41107177734375,23.1781005859375,18.87359619140625
1663862557401212700,3.096212646484375,38.1439208984375,22.58453369140625,19.78759765625
1663862557421537300,3.116537353515625,35.83831787109375,21.81243896484375,19.02008056640625
1663862557441465300,3.13646533203125,36.7279052734375,20.62530517578125,22.06268310546875
1663862557461210400,3.15621044921875,36.773681640625,22.72796630859375,19.17724609375
1663862557481168600,3.176168701171875,35.8154296875,20.758056640625,20.08056640625
1663862557501188400,3.196188232421875,35.44464111328125,24.56207275390625,20.709228515625
1663862557521177300,3.21617724609375,34.8297119140625,24.39727783203125,19.3359375
1663862557541136000,3.236135986328125,35.79864501953125,26.82037353515625,18.1304931640625
1663862557561124900,3.256124755859375,35.9466552734375,26.66168212890625,17.2149658203125
1663862557581144300,3.276144287109375,33.85009765625,28.3355712890625,17.98248291015625
1663862557601102800,3.296102783203125,33.428955078125,29.99114990234375,16.31317138671875
1663862557621091800,3.316091796875,31.622314453125,31.0455322265625,15.5548095703125
1663862557641111300,3.336111328125,29.06494140625,32.55767822265625,15.25421142578125
1663862557661100300,3.356100341796875,29.8583984375,34.0576171875,12.67242431640625
1663862557681089300,3.37608935546875,27.43988037109375,34.967041015625,13.1317138671875
1663862557701109000,3.39610888671875,29.290771484375,36.0137939453125,10.546875
1663862557721067500,3.416067626953125,28.96728515625,35.23712158203125,8.71429443359375
1663862557741056500,3.436056396484375,29.27703857421875,35.53009033203125,7.34405517578125
1663862557761045500,3.45604541015625,28.118896484375,38.25836181640625,6.7474365234375
1663862557781248000,3.476248046875,28.8543701171875,37.18109130859375,4.913330078125
1663862557801023500,3.4960234375,26.26190185546875,37.1734619140625,4.60662841796875
1663862557820982000,3.51598193359375,26.31988525390625,39.752197265625,4.16107177734375
1663862557840971000,3.535970947265625,26.64031982421875,40.49835205078125,2.337646484375
1663862557860960000,3.5559599609375,26.49078369140625,40.6463623046875,1.8798828125
1663862557880979500,3.5759794921875,24.95269775390625,40.0360107421875,2.02789306640625
1663862557900968400,3.595968505859375,24.9359130859375,39.276123046875,2.02484130859375
1663862557920927000,3.615927001953125,26.9073486328125,38.81988525390625,1.41448974609375
1663862557940916000,3.635916015625,26.59759521484375,38.6627197265625,0.95672607421875
1663862557960905000,3.655905029296875,26.91192626953125,39.1143798828125,0.34942626953125
1663862557980955100,3.675955078125,27.05535888671875,38.65966796875,0.49896240234375
1663862558000944000,3.695944091796875,25.99334716796875,38.958740234375,0.1953125
1663862558020933000,3.71593310546875,27.545166015625,40.167236328125,-1.1688232421875
1663862558040922000,3.735922119140625,27.20947265625,38.80157470703125,-0.71868896484375
1663862558060911000,3.7559111328125,25.079345703125,39.08233642578125,-3.0059814453125
1663862558080930800,3.775930908203125,24.5086669921875,40.76690673828125,-1.3214111328125
1663862558100889000,3.79588916015625,23.760986328125,41.497802734375,-4.5196533203125
1663862558120847600,3.81584765625,22.23358154296875,41.351318359375,-3.607177734375
1663862558140836600,3.835836669921875,22.72491455078125,42.87261962890625,-3.44696044921875
1663862558160795100,3.855795166015625,22.5616455078125,42.41180419921875,-4.058837890625
1663862558180784000,3.8757841796875,21.81396484375,43.023681640625,-3.29437255859375
1663862558200803800,3.895803955078125,23.45733642578125,41.50848388671875,-3.14788818359375
1663862558220762400,3.915762451171875,22.8668212890625,42.40875244140625,-4.364013671875
1663862558240751400,3.93575146484375,23.76708984375,41.80450439453125,-4.21295166015625
1663862558260740400,3.955740234375,24.4873046875,39.97344970703125,-5.2886962890625
1663862558280729300,3.975729248046875,27.06146240234375,39.215087890625,-5.7464599609375
1663862558301023500,3.9960234375,26.61590576171875,39.68048095703125,-4.5257568359375
1663862558320951600,4.01595166015625,27.362060546875,38.9251708984375,-4.2236328125
1663862558340696300,4.0356962890625,27.94342041015625,37.70904541015625,-4.38079833984375
1663862558360685300,4.055685302734375,31.15386962890625,38.02642822265625,-3.61328125
1663862558380704800,4.075704833984375,29.91943359375,37.40997314453125,-4.22821044921875
1663862558400663300,4.095663330078125,32.78656005859375,36.05804443359375,-3.1646728515625
1663862558420652300,4.11565234375,33.795166015625,33.47625732421875,-3.17535400390625
1663862558440641300,4.135641357421875,35.882568359375,31.3507080078125,-3.4881591796875
1663862558460630500,4.155630615234375,37.91046142578125,26.65252685546875,-2.44293212890625
1663862558480650000,4.17564990234375,41.2567138671875,26.21612548828125,-0.91705322265625
1663862558500639000,4.195638916015625,43.28460693359375,21.5118408203125,-0.63323974609375
1663862558520628000,4.2156279296875,44.76318359375,19.40155029296875,1.1871337890625
1663862558540586500,4.23558642578125,43.78204345703125,16.38031005859375,3.60870361328125
1663862558560575500,4.255575439453125,44.9554443359375,14.263916015625,4.51507568359375
1663862558580564500,4.275564453125,44.79217529296875,13.80615234375,4.35943603515625
1663862558600553500,4.295553466796875,45.855712890625,13.653564453125,4.0557861328125
1663862558620542500,4.31554248046875,44.757080078125,12.28790283203125,4.656982421875
1663862558640531500,4.335531494140625,44.66705322265625,15.01617431640625,3.7567138671875
1663862558660581600,4.35558154296875,43.94378662109375,16.8212890625,1.63116455078125
1663862558680570600,4.375570556640625,43.81103515625,17.724609375,0.72021484375
1663862558700529200,4.395529052734375,43.56231689453125,20.166015625,1.95159912109375
1663862558720579000,4.4155791015625,42.0623779296875,21.35772705078125,-0.482177734375
1663862558740537600,4.43553759765625,40.618896484375,24.993896484375,-1.53350830078125
1663862558760465700,4.455465576171875,38.7054443359375,28.0242919921875,-2.130126953125
1663862558780454700,4.47545458984375,37.5396728515625,30.44891357421875,-2.57720947265625
1663862558800443600,4.495443603515625,35.60791015625,32.71331787109375,-3.9398193359375
1663862558820432600,4.5154326171875,32.91778564453125,35.1348876953125,-4.388427734375
1663862558840421600,4.535421630859375,32.293701171875,34.5245361328125,-4.5440673828125
1663862558860410600,4.55541064453125,30.0384521484375,36.1541748046875,-9.11102294921875
1663862558880399600,4.575399658203125,30.0628662109375,37.213134765625,-9.56268310546875
1663862558900388600,4.595388671875,28.5400390625,37.22381591796875,-8.03985595703125
1663862558920377600,4.615377685546875,27.032470703125,38.11187744140625,-10.4766845703125
1663862558940366800,4.635366943359375,28.0914306640625,37.79754638671875,-12.00103759765625
1663862558960355800,4.65535595703125,25.38604736328125,39.4683837890625,-11.3861083984375
1663862558980344800,4.6753447265625,24.47967529296875,39.9169921875,-11.993408203125
1663862559000333800,4.695333740234375,24.47509765625,39.6240234375,-10.7757568359375
1663862559020322800,4.71532275390625,26.57318115234375,38.092041015625,-12.60986328125
1663862559040311800,4.735311767578125,25.96435546875,38.09967041015625,-11.5447998046875
1663862559060300800,4.75530078125,27.484130859375,37.93487548828125,-13.52386474609375
1663862559080289800,4.775289794921875,29.02679443359375,38.71307373046875,-11.68975830078125
1663862559100278800,4.79527880859375,27.91900634765625,36.8865966796875,-11.700439453125
1663862559120267800,4.815267822265625,28.399658203125,38.0767822265625,-14.89410400390625
1663862559140256800,4.8352568359375,28.38287353515625,37.31536865234375,-15.20233154296875
1663862559160246000,4.85524609375,26.37939453125,36.39678955078125,-15.362548828125
1663862559180540200,4.8755400390625,25.4852294921875,37.3016357421875,-15.96832275390625
1663862559200468000,4.895468017578125,26.0009765625,39.89410400390625,-15.19317626953125
1663862559220213000,4.915212890625,24.591064453125,38.214111328125,-15.81268310546875
1663862559240202000,4.935201904296875,24.163818359375,39.5721435546875,-16.7205810546875
1663862559260191000,4.95519091796875,25.0762939453125,39.43023681640625,-15.8050537109375
1663862559280180000,4.975179931640625,25.0823974609375,39.73388671875,-15.8050537109375
1663862559300169000,4.9951689453125,24.32861328125,40.04974365234375,-14.2791748046875
1663862559320158000,5.015157958984375,24.4781494140625,39.9017333984375,-13.82293701171875
1663862559340147000,5.03514697265625,23.73199462890625,40.64788818359375,-15.191650390625
1663862559360136000,5.055135986328125,24.30419921875,38.9862060546875,-14.2852783203125
1663862559380125000,5.075125,25.22430419921875,39.14794921875,-13.36822509765625
1663862559400114200,5.0951142578125,23.7335205078125,40.66009521484375,-13.81988525390625
1663862559420133600,5.115133544921875,26.0284423828125,40.9820556640625,-12.29248046875
1663862559440122600,5.13512255859375,26.89666748046875,38.99383544921875,-13.97705078125
1663862559460081200,5.1550810546875,27.02178955078125,37.77923583984375,-13.83056640625
1663862559480070100,5.175070068359375,27.0538330078125,38.5101318359375,-12.6129150390625
1663862559500089600,5.195089599609375,29.12445068359375,35.63385009765625,-11.86370849609375
1663862559520048000,5.215048095703125,28.253173828125,37.6007080078125,-12.7685546875
1663862559540037000,5.235037109375,28.23486328125,36.83624267578125,-13.2293701171875
1663862559560056600,5.255056640625,28.69415283203125,36.846923828125,-12.01019287109375
1663862559580015000,5.27501513671875,30.7647705078125,33.97369384765625,-10.955810546875
1663862559600034800,5.295034912109375,33.48388671875,32.7728271484375,-9.7381591796875
1663862559620023800,5.31502392578125,34.82818603515625,31.5673828125,-8.9813232421875
1663862559640012800,5.3350126953125,37.67242431640625,29.1534423828125,-7.46612548828125
1663862559660001800,5.355001708984375,40.0421142578125,25.98114013671875,-5.80291748046875
1663862559679990800,5.37499072265625,41.0369873046875,22.796630859375,-5.20782470703125
1663862559699949300,5.39494921875,43.4356689453125,20.977783203125,-5.21392822265625
1663862559719938300,5.414938232421875,43.6981201171875,19.0216064453125,-3.08990478515625
1663862559739927300,5.43492724609375,43.68743896484375,18.56689453125,-2.7862548828125
1663862559759916300,5.454916259765625,45.06072998046875,18.57757568359375,-2.0233154296875
1663862559779905300,5.4749052734375,43.09234619140625,19.18182373046875,-1.86920166015625
1663862559799894300,5.494894287109375,43.084716796875,18.8720703125,-2.6336669921875
1663862559819852800,5.514852783203125,41.43524169921875,20.08056640625,-3.08685302734375
1663862559839872300,5.534872314453125,40.99578857421875,20.97320556640625,-5.21697998046875
1663862559859861200,5.554861328125,42.86651611328125,22.80120849609375,-5.20477294921875
1663862559879850500,5.5748505859375,39.97650146484375,23.0987548828125,-5.206298828125
1663862559899839500,5.594839599609375,39.263916015625,25.36468505859375,-6.56890869140625
1663862559919798000,5.614798095703125,38.39263916015625,27.32696533203125,-7.9315185546875
1663862559939817500,5.6348173828125,35.8428955078125,29.150390625,-7.4676513671875
1663862559959806500,5.654806396484375,35.41259765625,30.36346435546875,-7.6141357421875
1663862559979795500,5.67479541015625,32.867431640625,32.4737548828125,-9.130859375
1663862559999784400,5.694784423828125,31.10198974609375,35.35003662109375,-9.881591796875
1663862560019773400,5.7147734375,28.63616943359375,34.2681884765625,-11.41357421875
1663862560039762400,5.734762451171875,27.7435302734375,35.18829345703125,-10.3424072265625
1663862560060056600,5.755056640625,27.20947265625,38.65814208984375,-13.22174072265625
1663862560079954200,5.7749541015625,25.94451904296875,36.67755126953125,-13.385009765625
1663862560099760000,5.794760009765625,24.920654296875,38.519287109375,-11.09161376953125
1663862560119718700,5.81471875,22.48382568359375,38.66119384765625,-11.7034912109375
1663862560139707600,5.834707763671875,22.698974609375,41.39556884765625,-11.84234619140625
1663862560159696600,5.854696533203125,22.06878662109375,40.618896484375,-13.6749267578125
1663862560179716000,5.874716064453125,21.93145751953125,41.23077392578125,-13.21563720703125
1663862560199674600,5.894674560546875,22.0458984375,39.5660400390625,-12.30926513671875
1663862560219663600,5.91466357421875,22.94769287109375,38.958740234375,-12.46337890625
1663862560239652600,5.934652587890625,23.25897216796875,39.39208984375,-15.3564453125
1663862560259641600,5.9546416015625,24.00665283203125,38.6505126953125,-13.226318359375
1663862560279600000,5.97460009765625,25.51116943359375,37.738037109375,-13.68560791015625
1663862560299619600,5.99461962890625,25.22430419921875,38.50860595703125,-12.310791015625
1663862560319608600,6.014608642578125,25.24871826171875,39.57061767578125,-12.60986328125
1663862560339567000,6.034567138671875,24.74517822265625,37.58392333984375,-13.8397216796875
1663862560359586800,6.0545869140625,22.63031005859375,38.4857177734375,-14.447021484375
1663862560379575800,6.074575927734375,23.8739013671875,39.55535888671875,-14.1357421875
1663862560399564800,6.094564697265625,24.9237060546875,38.787841796875,-15.20538330078125
1663862560419553800,6.1145537109375,22.314453125,38.02947998046875,-14.4500732421875
1663862560439512300,6.13451220703125,22.93853759765625,38.6444091796875,-13.836669921875
1663862560459531800,6.15453173828125,22.637939453125,38.8031005859375,-12.921142578125
1663862560479520800,6.174520751953125,22.1954345703125,39.4134521484375,-12.46185302734375
1663862560499509800,6.194509765625,25.07476806640625,38.6505126953125,-13.52996826171875
1663862560519498800,6.214498779296875,24.7772216796875,38.96331787109375,-12.46185302734375
1663862560539487700,6.23448779296875,24.90386962890625,37.7593994140625,-11.09619140625
1663862560559476700,6.254476806640625,25.201416015625,37.451171875,-11.553955078125
1663862560579466000,6.274466064453125,26.84783935546875,36.08551025390625,-11.71112060546875
1663862560599455000,6.294455078125,25.34027099609375,36.8499755859375,-10.9466552734375
1663862560619444000,6.31444384765625,27.74200439453125,35.1776123046875,-11.56158447265625
1663862560639433000,6.334432861328125,28.68804931640625,36.55242919921875,-10.94512939453125
1663862560659422000,6.354421875,28.9764404296875,35.79559326171875,-10.64300537109375
1663862560679411000,6.374410888671875,29.27093505859375,35.33782958984375,-10.94970703125
1663862560699369500,6.394369384765625,31.95953369140625,32.78350830078125,-8.21685791015625
1663862560719389000,6.414388916015625,31.75201416015625,30.3497314453125,-8.38165283203125
1663862560739378000,6.4343779296875,36.11602783203125,27.78167724609375,-7.6263427734375
1663862560759336400,6.45433642578125,39.31427001953125,27.4993896484375,-5.7952880859375
1663862560779356000,6.47435595703125,39.02435302734375,21.429443359375,-4.60662841796875
1663862560799345000,6.494344970703125,42.041015625,19.9310302734375,-2.93426513671875
1663862560819334100,6.514334228515625,42.1630859375,18.56231689453125,-3.09295654296875
1663862560839323100,6.5343232421875,42.03338623046875,19.49615478515625,-0.3448486328125
1663862560859281400,6.554281494140625,42.1478271484375,17.950439453125,-3.55377197265625
1663862560879301000,6.574301025390625,42.35382080078125,20.23468017578125,-2.9327392578125
1663862560899290000,6.5942900390625,41.4581298828125,21.13189697265625,-4.6051025390625
1663862560919279000,6.614279052734375,41.05682373046875,23.57025146484375,-3.67889404296875
1663862560939542800,6.634542724609375,39.66217041015625,22.64404296875,-4.9041748046875
1663862560959470800,6.654470947265625,37.7044677734375,23.83270263671875,-7.6446533203125
1663862560979246000,6.67424609375,36.24114990234375,26.56097412109375,-8.2427978515625
1663862560999235000,6.694235107421875,34.74578857421875,27.91290283203125,-9.76104736328125
1663862561019254800,6.7142548828125,34.55810546875,33.07952880859375,-9.73663330078125
1663862561039213000,6.734213134765625,31.70166015625,34.90142822265625,-9.27276611328125
1663862561059202300,6.754202392578125,28.84674072265625,36.724853515625,-8.5052490234375
1663862561079191300,6.77419140625,27.6214599609375,36.5570068359375,-10.1837158203125
1663862561099180300,6.79418017578125,27.01416015625,36.69281005859375,-11.86065673828125
1663862561119169300,6.814169189453125,25.49591064453125,37.00103759765625,-11.0992431640625
1663862561139127800,6.8341279296875,24.188232421875,39.87274169921875,-12.60986328125
1663862561159147300,6.854147216796875,22.637939453125,38.7969970703125,-13.68408203125
1663862561179136300,6.87413623046875,22.20001220703125,39.7064208984375,-13.83209228515625
1663862561199125200,6.894125244140625,21.0113525390625,41.07208251953125,-13.6749267578125
1663862561219144700,6.914144775390625,19.18182373046875,41.07208251953125,-13.37127685546875
1663862561239103200,6.934103271484375,18.55621337890625,40.447998046875,-15.05126953125
1663862561259092200,6.95409228515625,18.2708740234375,41.2200927734375,-13.52386474609375
1663862561279081200,6.974081298828125,21.41571044921875,38.64898681640625,-12.7716064453125
1663862561299070500,6.994070556640625,23.4130859375,39.27001953125,-11.85150146484375
1663862561319059500,7.0140595703125,24.2645263671875,36.53106689453125,-12.47406005859375
1663862561339079000,7.034078857421875,25.01068115234375,35.7757568359375,-12.01934814453125
1663862561359068000,7.05406787109375,23.80218505859375,36.24267578125,-10.3424072265625
1663862561379057000,7.074056884765625,23.39324951171875,38.5009765625,-12.92266845703125
1663862561399046000,7.0940458984375,21.57135009765625,38.800048828125,-12.92266845703125
1663862561419035000,7.114034912109375,23.284912109375,40.46783447265625,-13.8275146484375
1663862561439023900,7.13402392578125,22.607421875,37.44049072265625,-12.31842041015625
1663862561459012900,7.154012939453125,22.63031005859375,38.4918212890625,-13.68560791015625
1663862561479002000,7.174002197265625,22.93243408203125,38.34228515625,-13.53302001953125
1663862561498960400,7.19396044921875,21.2890625,39.86053466796875,-13.3758544921875
1663862561518949400,7.213949462890625,21.87957763671875,38.95111083984375,-13.226318359375
1663862561538938600,7.233938720703125,23.42529296875,39.8681640625,-12.9150390625
1663862561558927600,7.253927734375,24.00665283203125,38.6505126953125,-13.226318359375
1663862561578916600,7.27391650390625,23.05450439453125,36.98272705078125,-12.6251220703125
1663862561598905600,7.293905517578125,23.20556640625,36.8377685546875,-11.71112060546875
1663862561618894600,7.31389453125,25.0335693359375,36.83319091796875,-12.77618408203125
1663862561638853000,7.33385302734375,24.8870849609375,36.99951171875,-11.0992431640625
1663862561658872600,7.35387255859375,24.69635009765625,35.3240966796875,-11.41204833984375
1663862561678861600,7.373861572265625,27.89154052734375,35.0341796875,-10.64910888671875
1663862561698850600,7.3938505859375,26.25885009765625,37.0025634765625,-11.09771728515625
1663862561718839600,7.413839599609375,29.1168212890625,35.1959228515625,-9.7320556640625
1663862561738828500,7.43382861328125,31.94732666015625,32.31353759765625,-9.74273681640625
1663862561758817800,7.45381787109375,33.71124267578125,29.425048828125,-10.36529541015625
1663862561778806800,7.473806884765625,35.1806640625,26.86920166015625,-7.4798583984375
1663862561798795800,7.493795654296875,37.6220703125,26.885986328125,-6.10504150390625
1663862561819059500,7.5140595703125,39.6942138671875,24.02801513671875,-3.06854248046875
1663862561838987300,7.5339873046875,39.19830322265625,22.3480224609375,-3.99169921875
1663862561858762800,7.5537626953125,40.240478515625,21.28143310546875,-4.45404052734375
1663862561878751700,7.573751708984375,39.16778564453125,20.98236083984375,-3.69415283203125
1663862561898740700,7.59374072265625,38.90380859375,22.802734375,-3.99017333984375
1663862561918760200,7.61376025390625,38.14697265625,23.09417724609375,-5.2093505859375
1663862561938718700,7.63371875,38.01422119140625,23.9990234375,-6.1187744140625
1663862561958707700,7.653707763671875,36.72637939453125,27.77862548828125,-8.08258056640625
1663862561978696700,7.67369677734375,33.84552001953125,28.52630615234375,-8.84552001953125
1663862561998686000,7.69368603515625,32.53021240234375,31.09588623046875,-10.205078125
1663862562018684700,7.7136845703125,31.1676025390625,31.54296875,-10.81390380859375
1663862562038673700,7.733673583984375,29.53033447265625,33.36334228515625,-10.80780029296875
1663862562058662700,7.75366259765625,28.338623046875,34.58099365234375,-10.345458984375
1663862562078651600,7.773651611328125,26.373291015625,35.32562255859375,-11.7156982421875
1663862562098640600,7.793640625,23.187255859375,36.07177734375,-12.47711181640625
1663862562118629600,7.813629638671875,23.20098876953125,36.8072509765625,-15.37017822265625
1663862562138618600,7.83361865234375,20.31097412109375,37.11395263671875,-14.30511474609375
1663862562158577200,7.8535771484375,18.670654296875,38.76953125,-15.97442626953125
1663862562178596600,7.8735966796875,17.61474609375,39.23797607421875,-14.1448974609375
1663862562198585600,7.893585693359375,17.315673828125,39.5263671875,-15.972900390625
1663862562218574600,7.91357470703125,17.5048828125,41.19415283203125,-16.4215087890625
1663862562238563800,7.933563720703125,16.5802001953125,40.606689453125,-13.68255615234375
1663862562258522000,7.953522216796875,15.6494140625,40.11688232421875,-17.4957275390625
1663862562278541800,7.973541748046875,14.89715576171875,40.44342041015625,-14.599609375
1663862562298530800,7.99353076171875,16.40472412109375,39.68048095703125,-15.362548828125
1663862562318519800,8.013519775390625,16.1102294921875,40.13824462890625,-15.05584716796875
1663862562338508800,8.0335087890625,18.23577880859375,39.6942138671875,-14.29443359375
1663862562358497800,8.053497802734375,17.6025390625,38.7664794921875,-15.9759521484375
1663862562378486800,8.07348681640625,19.53887939453125,36.78741455078125,-16.8975830078125
1663862562398475800,8.093475830078125,18.96514892578125,38.31787109375,-15.36712646484375
1663862562418464800,8.11346484375,19.27032470703125,38.31939697265625,-15.36712646484375
1663862562438453800,8.133453857421875,18.359375,38.4674072265625,-15.51971435546875
1663862562458442800,8.15344287109375,17.42095947265625,37.5396728515625,-17.20123291015625
1663862562478432000,8.173431884765625,18.20220947265625,38.31024169921875,-16.13006591796875
1663862562498421000,8.1934208984375,17.578125,37.69683837890625,-16.59088134765625
1663862562518440400,8.2134404296875,17.29583740234375,38.7481689453125,-18.109130859375
1663862562538399000,8.23339892578125,17.75665283203125,38.89923095703125,-18.26019287109375
1663862562558388000,8.253387939453125,19.25048828125,37.53814697265625,-17.96112060546875
1663862562578377000,8.273376953125,20.0439453125,38.90380859375,-18.2586669921875
1663862562598366000,8.293365966796875,18.35784912109375,38.4552001953125,-17.04254150390625
1663862562618355000,8.31335498046875,20.4742431640625,37.69378662109375,-17.8070068359375
1663862562638344000,8.333343994140625,18.46923828125,36.7584228515625,-20.098876953125
1663862562658333000,8.3533330078125,18.9117431640625,36.02142333984375,-17.51251220703125
1663862562678322000,8.373322021484375,20.8892822265625,35.86578369140625,-18.42498779296875
1663862562698585600,8.393585693359375,22.833251953125,34.1949462890625,-18.73626708984375
1663862562718513700,8.413513671875,22.845458984375,34.66339111328125,-17.2088623046875
1663862562738289200,8.4332890625,24.65362548828125,33.6212158203125,-15.0787353515625
1663862562758308600,8.45330859375,27.68707275390625,33.001708984375,-17.364501953125
1663862562778267100,8.47326708984375,29.45404052734375,30.13458251953125,-15.24200439453125
1663862562798256000,8.493256103515625,32.45086669921875,27.73284912109375,-12.50762939453125
1663862562818245000,8.5132451171875,34.2376708984375,25.897216796875,-14.34326171875
1663862562838234000,8.533234130859375,35.4400634765625,25.01068115234375,-11.602783203125
1663862562858223000,8.55322314453125,37.13531494140625,25.6500244140625,-8.3984375
1663862562878212000,8.573212158203125,36.63330078125,23.809814453125,-10.23712158203125
1663862562898201000,8.593201171875,36.5936279296875,21.99249267578125,-9.48333740234375
1663862562918159600,8.61315966796875,36.7919921875,23.97613525390625,-8.55865478515625
1663862562938179000,8.633178955078124,37.30010986328125,26.25579833984375,-8.5479736328125
1663862562958168300,8.653168212890625,35.7818603515625,26.55029296875,-9.30938720703125
1663862562978157300,8.6731572265625,33.9813232421875,27.9022216796875,-10.82916259765625
1663862562998146300,8.693146240234375,31.5704345703125,29.1259765625,-9.3017578125
1663862563018135300,8.71313525390625,30.8135986328125,29.4158935546875,-10.8245849609375
1663862563038124300,8.733124267578125,27.728271484375,34.5733642578125,-11.1083984375
1663862563058113300,8.75311328125,26.21612548828125,35.1654052734375,-12.6312255859375
1663862563078102300,8.773102294921875,21.9879150390625,36.98272705078125,-12.32147216796875
1663862563098091300,8.79309130859375,19.732666015625,38.4857177734375,-13.68865966796875
1663862563118049800,8.8130498046875,16.71142578125,39.697265625,-13.53302001953125
1663862563138069200,8.8330693359375,13.98162841796875,40.313720703125,-11.85760498046875
1663862563158058200,8.853058349609375,13.70697021484375,41.6717529296875,-12.9180908203125
1663862563178047200,8.873047119140624,12.47711181640625,41.2200927734375,-12.00714111328125
1663862563198036500,8.893036376953125,10.95733642578125,41.50543212890625,-13.836669921875
1663862563217994800,8.912994873046875,7.91015625,41.63818359375,-15.51513671875
1663862563238014500,8.933014404296875,7.940673828125,43.0023193359375,-15.96527099609375
1663862563258003500,8.95300341796875,3.63922119140625,41.62445068359375,-15.97747802734375
1663862563277962000,8.9729619140625,3.80706787109375,42.24395751953125,-14.6026611328125
1663862563297981400,8.9929814453125,1.96075439453125,41.48101806640625,-14.6087646484375
1663862563317970400,9.012970458984375,0.4608154296875,42.547607421875,-13.8427734375
1663862563337959400,9.03295947265625,-0.00762939453125,42.08831787109375,-14.1510009765625
1663862563357948400,9.052948486328125,3.05938720703125,42.85736083984375,-13.83819580078125
1663862563377937400,9.0729375,2.28118896484375,42.22869873046875,-16.1285400390625
1663862563397926400,9.092926513671875,3.082275390625,43.9056396484375,-15.66162109375
1663862563417915400,9.112915283203124,3.94439697265625,41.6290283203125,-15.51971435546875
1663862563437904600,9.132904541015625,5.194091796875,42.8558349609375,-14.59808349609375
1663862563457893600,9.1528935546875,2.8717041015625,41.3299560546875,-14.75982666015625
1663862563477882600,9.172882568359375,1.21917724609375,42.523193359375,-16.88995361328125
1663862563497902000,9.192902099609375,1.239013671875,43.4326171875,-17.1905517578125
1663862563517860600,9.212860595703125,-1.54571533203125,41.61376953125,-15.98358154296875
1663862563537849600,9.232849609375,-0.19378662109375,40.7012939453125,-16.44287109375
1663862563557838600,9.252838623046875,-2.1575927734375,41.5924072265625,-18.42193603515625
1663862563578071800,9.27307177734375,-1.99737548828125,41.9097900390625,-16.8975830078125
1663862563597999900,9.292999755859375,-2.9083251953125,42.05780029296875,-17.0501708984375
1663862563617805600,9.3128056640625,-2.89306640625,42.6727294921875,-16.2841796875
1663862563637794600,9.332794677734375,-3.8055419921875,42.81768798828125,-16.89453125
1663862563657783800,9.35278369140625,-4.88739013671875,42.20428466796875,-17.2027587890625
1663862563677772800,9.372772705078125,-2.92510986328125,41.30401611328125,-16.29180908203125
1663862563697792300,9.392792236328125,-2.89459228515625,42.6666259765625,-17.047119140625
1663862563717750800,9.412750732421875,-1.98211669921875,42.52777099609375,-15.67535400390625
1663862563737739800,9.43273974609375,-1.67694091796875,42.52471923828125,-16.131591796875
1663862563757728800,9.452728759765625,0.31585693359375,42.9901123046875,-15.51666259765625
1663862563777717800,9.4727177734375,1.0467529296875,41.61376953125,-16.58935546875
1663862563797706800,9.492706787109375,2.11334228515625,41.6168212890625,-16.58935546875
1663862563817695700,9.51269580078125,3.19061279296875,42.06390380859375,-17.803955078125
1663862563837684700,9.532684814453125,5.66253662109375,43.44329833984375,-17.18597412109375
1663862563857704400,9.552704345703125,5.15899658203125,41.45965576171875,-17.95806884765625
1663862563877662700,9.572662841796875,8.53271484375,42.2454833984375,-15.6646728515625
1663862563897682400,9.592682373046875,9.8876953125,41.47796630859375,-16.8853759765625
1663862563917641000,9.612640869140625,14.59503173828125,40.45867919921875,-12.77008056640625
1663862563937630000,9.6326298828125,17.1966552734375,40.7867431640625,-10.63232421875
1663862563957588500,9.65258837890625,20.196533203125,38.52691650390625,-8.9630126953125
1663862563977608000,9.67260791015625,22.1832275390625,38.690185546875,-8.04595947265625
1663862563997597000,9.692596923828125,23.5748291015625,39.4683837890625,-6.21185302734375
1663862564017586000,9.7125859375,23.9654541015625,36.5753173828125,-6.98699951171875
1663862564037575000,9.732574951171875,26.4068603515625,36.5936279296875,-5.46112060546875
1663862564057564000,9.75256396484375,25.02593994140625,36.1480712890625,-3.9398193359375
1663862564077553000,9.772552978515625,26.739501953125,37.811279296875,-5.30242919921875
1663862564097542000,9.7925419921875,24.761962890625,37.9638671875,-4.693603515625
1663862564117500400,9.81250048828125,22.3602294921875,39.63470458984375,-4.23126220703125
1663862564137520000,9.83252001953125,20.9808349609375,39.324951171875,-4.53948974609375
1663862564157509000,9.852509033203125,18.280029296875,41.29486083984375,-4.6844482421875
1663862564177498000,9.872498046875,14.33258056640625,42.03948974609375,-5.4473876953125
1663862564197487000,9.892487060546875,13.90228271484375,43.25408935546875,-5.44281005859375
1663862564217476000,9.91247607421875,11.17095947265625,43.85833740234375,-5.29022216796875
1663862564237465000,9.932465087890625,7.82623291015625,44.3023681640625,-5.74798583984375
1663862564257454000,9.9524541015625,7.220458984375,44.4580078125,-5.291748046875
1663862564277443000,9.972443115234375,3.72467041015625,44.90966796875,-4.83551025390625
1663862564297432000,9.99243212890625,2.960205078125,44.89593505859375,-6.36138916015625
1663862564317390600,10.012390625,1.1199951171875,44.4427490234375,-5.60302734375
1663862564337410000,10.03241015625,-1.15966796875,44.74334716796875,-5.45196533203125
1663862564357399000,10.05239892578125,-1.75933837890625,45.19195556640625,-6.05926513671875
1663862564377388300,10.07238818359375,-4.97894287109375,44.43511962890625,-4.84771728515625
1663862564397377300,10.092377197265625,-5.87921142578125,45.050048828125,-3.93218994140625
1663862564417366300,10.1123662109375,-8.15887451171875,45.34454345703125,-4.38995361328125
1663862564437355300,10.132355224609375,-7.2357177734375,45.66497802734375,-2.71148681640625
1663862564457588500,10.15258837890625,-9.40399169921875,44.146728515625,-1.959228515625
1663862564477485800,10.17248583984375,-6.50177001953125,44.44427490234375,-3.47747802734375
1663862564497322200,10.192322265625,-6.2042236328125,44.140625,-3.47900390625
1663862564517341700,10.212341796875,-5.4229736328125,44.91119384765625,-2.4078369140625
1663862564537300200,10.23230029296875,-5.853271484375,46.12274169921875,-2.8594970703125
1663862564557289200,10.252289306640625,-6.45751953125,46.28753662109375,-1.18255615234375
1663862564577278200,10.2722783203125,-6.4605712890625,46.27227783203125,-3.0120849609375
1663862564597328400,10.292328369140625,-5.8837890625,44.76165771484375,-2.10418701171875
1663862564617256400,10.31225634765625,-7.55615234375,44.91729736328125,-1.19171142578125
1663862564637276000,10.33227587890625,-7.53936767578125,45.67108154296875,-1.9500732421875
1663862564657234400,10.352234375,-9.381103515625,45.20263671875,-3.021240234375
1663862564677223400,10.372223388671875,-9.539794921875,45.0347900390625,-4.69818115234375
1663862564697243000,10.392242919921875,-11.07940673828125,44.2840576171875,-3.33099365234375
1663862564717231900,10.41223193359375,-13.409423828125,42.44232177734375,-4.8675537109375
1663862564737220900,10.432220947265625,-14.45465087890625,43.36395263671875,-3.49273681640625
1663862564757179400,10.452179443359375,-16.13616943359375,43.212890625,-2.88543701171875
1663862564777168400,10.47216845703125,-16.0186767578125,41.68243408203125,-4.26483154296875
1663862564797188000,10.49218798828125,-15.53802490234375,42.73834228515625,-5.3253173828125
1663862564817146400,10.512146484375,-14.61944580078125,42.89703369140625,-4.71343994140625
1663862564837135600,10.532135498046875,-16.4276123046875,43.9422607421875,-6.5399169921875
1663862564857124600,10.55212451171875,-15.2618408203125,41.6473388671875,-8.53118896484375
1663862564877479700,10.572479736328125,-14.00146484375,43.4600830078125,-10.19744873046875
1663862564897102600,10.5921025390625,-13.385009765625,43.76678466796875,-10.04180908203125
1663862564917091600,10.612091552734375,-13.7054443359375,43.0145263671875,-8.97979736328125
1663862564937080600,10.63208056640625,-12.80670166015625,42.27447509765625,-7.000732421875
1663862564957069600,10.652069580078125,-15.2374267578125,42.70782470703125,-8.98284912109375
1663862564977058600,10.67205859375,-15.234375,42.7276611328125,-6.69708251953125
1663862564997047600,10.692047607421875,-14.29290771484375,43.94683837890625,-6.536865234375
1663862565017036500,10.71203662109375,-15.679931640625,43.194580078125,-5.17120361328125
1663862565037025500,10.732025634765625,-13.55743408203125,42.60711669921875,-3.34320068359375
1663862565057014500,10.7520146484375,-16.12091064453125,43.95751953125,-4.71038818359375
1663862565077003800,10.772003662109375,-18.42803955078125,43.04046630859375,-4.87060546875
1663862565096992800,10.79199267578125,-19.07196044921875,41.522216796875,-4.42047119140625
1663862565116981800,10.811981689453125,-21.1822509765625,42.59033203125,-3.350830078125
1663862565136970800,10.831970703125,-22.90802001953125,40.32745361328125,-0.92620849609375
1663862565156959700,10.851959716796875,-24.74365234375,39.90325927734375,3.18450927734375
1663862565176948700,10.87194873046875,-24.15771484375,38.720703125,6.99005126953125
1663862565196937700,10.891937744140625,-25.44708251953125,35.29815673828125,15.96221923828125
1663862565216926700,10.9119267578125,-26.0986328125,33.3526611328125,19.76318359375
1663862565236915700,10.931915771484375,-28.94287109375,28.81317138671875,22.784423828125
1663862565256874200,10.951874267578125,-32.38983154296875,24.7100830078125,23.675537109375
1663862565276893700,10.971893798828125,-32.24639892578125,17.4468994140625,27.4505615234375
1663862565296882700,10.991882568359374,-29.27398681640625,7.03125,35.02197265625
1663862565316872000,11.011871826171875,-27.67333984375,-3.12957763671875,37.26043701171875
1663862565337105000,11.03210498046875,-29.364013671875,-10.2996826171875,34.32769775390625
1663862565357002500,11.05200244140625,-31.03485107421875,-16.5679931640625,30.33294677734375
1663862565376869400,11.071869384765625,-30.2337646484375,-21.45538330078125,27.2613525390625
1663862565396828000,11.091827880859375,-29.24957275390625,-25.11138916015625,26.025390625
1663862565416817000,11.11181689453125,-27.79388427734375,-28.01971435546875,23.1170654296875
1663862565436806000,11.131805908203125,-26.5716552734375,-27.88238525390625,21.13800048828125
1663862565456795000,11.151794921875,-28.8848876953125,-29.08935546875,22.8057861328125
1663862565476783900,11.171783935546875,-31.74285888671875,-27.28118896484375,21.5911865234375
1663862565496772900,11.19177294921875,-35.75286865234375,-22.58148193359375,21.30584716796875
1663862565516761900,11.211761962890625,-38.06304931640625,-16.81365966796875,21.026611328125
1663862565536750800,11.231750732421874,-39.90020751953125,-10.44158935546875,20.1416015625
1663862565556740000,11.251739990234375,-42.803955078125,-4.05426025390625,21.38824462890625
1663862565576698400,11.271698486328125,-41.290283203125,2.18353271484375,21.7254638671875
1663862565596718000,11.291718017578125,-40.12451171875,6.44683837890625,22.509765625
1663862565616707000,11.31170703125,-39.593505859375,9.7808837890625,21.15478515625
1663862565636696000,11.331696044921875,-41.070556640625,11.89422607421875,19.94476318359375
1663862565656685000,11.35168505859375,-42.69866943359375,14.28375244140625,15.38238525390625
1663862565676674000,11.371674072265625,-43.18084716796875,13.336181640625,11.26251220703125
1663862565696663000,11.3916630859375,-44.1131591796875,12.69989013671875,8.05816650390625
1663862565716652000,11.411652099609375,-44.81048583984375,9.1400146484375,0.57220458984375
1663862565736641000,11.43164111328125,-44.71588134765625,6.81304931640625,-5.078125
1663862565756630000,11.451630126953125,-45.82672119140625,4.9713134765625,-6.91680908203125
1663862565776619000,11.471618896484374,-43.4326171875,2.9937744140625,-7.83843994140625
1663862565796608300,11.491608154296875,-44.23828125,1.15509033203125,-9.3719482421875
1663862565816597200,11.51159716796875,-42.7703857421875,-1.416015625,-8.3160400390625
1663862565836586200,11.531586181640625,-44.92340087890625,-2.0538330078125,-11.370849609375
1663862565856575200,11.5515751953125,-40.899658203125,-6.03179931640625,-15.4998779296875
1663862565876564200,11.571564208984375,-43.2342529296875,-8.15582275390625,-14.44549560546875
1663862565896553200,11.59155322265625,-39.50347900390625,-11.65618896484375,-15.98358154296875
1663862565916542200,11.611542236328125,-39.849853515625,-13.48114013671875,-15.99273681640625
1663862565936531200,11.63153125,-37.0208740234375,-16.3818359375,-18.2891845703125
1663862565956520200,11.651520263671875,-36.92779541015625,-19.10552978515625,-16.93115234375
1663862565976509200,11.67150927734375,-37.24822998046875,-19.85015869140625,-15.106201171875
1663862565996498200,11.691498291015625,-36.96746826171875,-20.9136962890625,-15.11077880859375
1663862566016487400,11.7114873046875,-38.04168701171875,-21.21429443359375,-14.5050048828125
1663862566036476400,11.731476318359375,-35.8642578125,-19.3756103515625,-13.27362060546875
1663862566056465400,11.75146533203125,-36.6455078125,-20.147705078125,-14.49737548828125
1663862566076445000,11.77144482421875,-36.82403564453125,-21.3623046875,-14.1998291015625
1663862566096434000,11.791433837890626,-36.9873046875,-21.94366455078125,-11.1541748046875
1663862566116423200,11.811423095703125,-36.86370849609375,-23.16131591796875,-11.3128662109375
1663862566136420400,11.83142041015625,-37.32757568359375,-23.468017578125,-11.46697998046875
1663862566156409300,11.851409423828125,-36.175537109375,-26.49383544921875,-10.26153564453125
1663862566176398300,11.8713984375,-34.6343994140625,-25.74005126953125,-11.322021484375
1663862566196387600,11.8913876953125,-34.930419921875,-25.299072265625,-12.9974365234375
1663862566216620500,11.91162060546875,-34.64508056640625,-26.1993408203125,-11.78131103515625
1663862566237128400,11.93212841796875,-35.845947265625,-25.42572021484375,-9.79766845703125
1663862566256385000,11.951385009765625,-35.51177978515625,-24.0753173828125,-11.92474365234375
1663862566276526600,11.971526611328125,-36.01226806640625,-25.9063720703125,-12.69683837890625
1663862566296332500,11.99133251953125,-33.8623046875,-25.29449462890625,-12.69073486328125
1663862566316291000,12.011291015625,-36.0260009765625,-26.64947509765625,-10.71929931640625
1663862566336280000,12.031280029296875,-35.4095458984375,-26.21307373046875,-13.15460205078125
1663862566356299500,12.051299560546875,-35.980224609375,-24.5391845703125,-12.689208984375
1663862566376288500,12.07128857421875,-36.14501953125,-25.0030517578125,-13.60626220703125
1663862566396277500,12.091277587890625,-37.3199462890625,-23.03314208984375,-14.05487060546875
1663862566416266500,12.1112666015625,-36.2548828125,-23.0438232421875,-15.57769775390625
1663862566436255700,12.131255859375,-38.19122314453125,-21.06475830078125,-14.65606689453125
1663862566456214000,12.151214111328125,-40.5670166015625,-18.32275390625,-13.27362060546875
1663862566476203000,12.171203125,-40.72418212890625,-18.48907470703125,-14.95208740234375
1663862566496222700,12.19122265625,-42.333984375,-15.46478271484375,-16.31011962890625
1663862566516242200,12.2112421875,-42.30804443359375,-14.38751220703125,-14.78118896484375
1663862566536200700,12.23120068359375,-42.90771484375,-13.93280029296875,-14.7796630859375
1663862566556189700,12.251189697265625,-42.88482666015625,-12.87078857421875,-15.0787353515625
1663862566576178700,12.2711787109375,-43.7896728515625,-12.41912841796875,-15.38238525390625
1663862566596167700,12.291167724609375,-43.9117431640625,-11.0626220703125,-16.595458984375
1663862566616156700,12.31115673828125,-42.36602783203125,-10.13946533203125,-15.673828125
1663862566636878000,12.331878173828125,-43.57452392578125,-9.68475341796875,-15.521240234375
1663862566656134700,12.351134765625,-42.7764892578125,-8.1512451171875,-13.9892578125
1663862566676124000,12.3711240234375,-42.8131103515625,-9.6832275390625,-15.51971435546875
1663862566696113000,12.39111279296875,-43.2861328125,-10.43548583984375,-14.45770263671875
1663862566716102000,12.411101806640625,-46.453857421875,-8.92791748046875,-15.0634765625
1663862566736091000,12.4310908203125,-42.7764892578125,-8.148193359375,-13.68408203125
1663862566756049400,12.45104931640625,-44.17877197265625,-9.5184326171875,-13.53912353515625
1663862566776068900,12.47106884765625,-45.8648681640625,-9.8297119140625,-14.15252685546875
1663862566796057900,12.491057861328125,-44.31915283203125,-8.92333984375,-15.0604248046875
1663862566816046800,12.511046875,-44.48394775390625,-9.5184326171875,-13.5406494140625
1663862566836005400,12.53100537109375,-46.75140380859375,-8.6151123046875,-13.995361328125
1663862566856024800,12.55102490234375,-45.24688720703125,-9.51995849609375,-13.5406494140625
1663862566876013800,12.571013916015625,-44.45037841796875,-8.001708984375,-13.836669921875
1663862566896002800,12.5910029296875,-46.1456298828125,-8.9019775390625,-12.1673583984375
1663862566915992000,12.610991943359375,-44.32220458984375,-9.19342041015625,-11.0992431640625
1663862566936011500,12.631011474609375,-44.22454833984375,-11.6241455078125,-10.9588623046875
1663862566955970000,12.650969970703125,-45.42388916015625,-10.7086181640625,-10.34698486328125
1663862566975928600,12.670928466796875,-43.76678466796875,-11.6119384765625,-9.73968505859375
1663862566995948000,12.690947998046875,-44.56024169921875,-12.9852294921875,-10.20355224609375
1663862567015937000,12.71093701171875,-44.89288330078125,-14.19830322265625,-9.75341796875
1663862567035926000,12.730926025390625,-43.81256103515625,-13.72222900390625,-7.61566162109375
1663862567055915000,12.7509150390625,-43.37005615234375,-14.34326171875,-9.295654296875
1663862567075904000,12.770904052734375,-44.63958740234375,-16.60919189453125,-7.3272705078125
1663862567096137200,12.79113720703125,-45.5352783203125,-15.7073974609375,-8.23822021484375
1663862567116034600,12.81103466796875,-43.75457763671875,-17.96417236328125,-5.9600830078125
1663862567135871000,12.83087109375,-43.45703125,-18.27392578125,-6.7230224609375
1663862567155860200,12.850860107421875,-43.9361572265625,-19.19097900390625,-7.33795166015625
1663862567175849200,12.87084912109375,-43.78662109375,-19.34356689453125,-7.4920654296875
1663862567195838200,12.890838134765625,-42.39044189453125,-18.27392578125,-7.02667236328125
1663862567215827200,12.9108271484375,-42.71087646484375,-19.0185546875,-5.2032470703125
1663862567235816200,12.930816162109375,-43.8934326171875,-17.3553466796875,-5.80596923828125
1663862567255805200,12.95080517578125,-42.67578125,-17.498779296875,-5.19561767578125
1663862567275794200,12.970794189453125,-42.718505859375,-19.329833984375,-5.9661865234375
1663862567295783200,12.990783203125,-43.78662109375,-19.33746337890625,-6.7291259765625
1663862567315772200,13.010772216796875,-43.4814453125,-19.33746337890625,-6.7291259765625
1663862567335761200,13.03076123046875,-42.5567626953125,-18.8812255859375,-6.878662109375
1663862567355719700,13.0507197265625,-42.86651611328125,-19.1741943359375,-5.5084228515625
1663862567375739400,13.070739501953126,-42.12188720703125,-19.93408203125,-5.816650390625
1663862567395728400,13.090728271484375,-42.4072265625,-19.02923583984375,-6.4208984375
1663862567415717400,13.11071728515625,-42.68646240234375,-17.96112060546875,-5.9600830078125
1663862567435706400,13.130706298828125,-41.6229248046875,-17.98095703125,-8.54949951171875
1663862567455695400,13.1506953125,-42.85125732421875,-18.42498779296875,-6.8756103515625
1663862567475684400,13.170684326171875,-42.974853515625,-17.2088623046875,-6.71844482421875
1663862567495643000,13.190642822265625,-42.37213134765625,-17.5079345703125,-6.41326904296875
1663862567515662300,13.210662353515625,-42.66815185546875,-17.19512939453125,-5.194091796875
1663862567535651300,13.2306513671875,-42.61322021484375,-17.79937744140625,-5.70831298828125
1663862567555640300,13.250640380859375,-44.40765380859375,-16.28265380859375,-5.7037353515625
1663862567575629300,13.27062939453125,-42.74444580078125,-16.88232421875,-5.09490966796875
1663862567595587800,13.290587890625,-44.12689208984375,-17.3370361328125,-4.6417236328125
1663862567615607600,13.310607666015626,-45.46966552734375,-15.9881591796875,-6.46514892578125
1663862567635596500,13.330596435546875,-43.66302490234375,-17.041015625,-5.706787109375
1663862567655585500,13.35058544921875,-44.2596435546875,-16.4398193359375,-6.3140869140625
1663862567675574500,13.370574462890625,-44.41375732421875,-16.5740966796875,-4.180908203125
1663862567695563500,13.3905634765625,-43.81256103515625,-16.8975830078125,-6.62078857421875
1663862567715552500,13.410552490234375,-43.1915283203125,-16.4306640625,-5.54962158203125
1663862567735541500,13.43054150390625,-45.03326416015625,-16.8975830078125,-6.317138671875
1663862567755530500,13.450530517578125,-45.01495361328125,-16.13311767578125,-5.8563232421875
1663862567775519500,13.47051953125,-43.69659423828125,-18.42498779296875,-7.54241943359375
1663862567795478000,13.49047802734375,-44.573974609375,-16.88995361328125,-5.55419921875
1663862567815497500,13.51049755859375,-43.66455078125,-17.0501708984375,-6.77337646484375
1663862567835486500,13.530486572265625,-43.20068359375,-16.88079833984375,-4.78973388671875
1663862567855475700,13.550475830078126,-42.46826171875,-18.2342529296875,-3.27301025390625
1663862567875464700,13.570464599609375,-42.31414794921875,-18.096923828125,-4.94842529296875
1663862567895453700,13.59045361328125,-43.1915283203125,-16.4276123046875,-5.0933837890625
1663862567915442700,13.610442626953125,-44.09637451171875,-15.98052978515625,-6.005859375
1663862567935431700,13.630431640625,-43.33953857421875,-16.2750244140625,-4.93927001953125
1663862567955420700,13.650420654296875,-42.6788330078125,-13.8702392578125,-8.4320068359375
1663862567975745300,13.670745361328125,-44.69146728515625,-15.24200439453125,-8.28857421875
1663862567995520800,13.690520751953125,-44.1741943359375,-12.5152587890625,-9.4940185546875
1663862568015387600,13.7103876953125,-46.46453857421875,-12.6739501953125,-9.649658203125
1663862568035376600,13.730376708984375,-45.05157470703125,-10.85662841796875,-10.85968017578125
1663862568055365600,13.75036572265625,-43.707275390625,-12.07427978515625,-11.32049560546875
1663862568075354600,13.770354736328125,-44.6136474609375,-11.6241455078125,-11.9293212890625
1663862568095343900,13.79034375,-44.92034912109375,-11.77215576171875,-11.32049560546875
1663862568115332900,13.810332763671875,-43.52874755859375,-10.86578369140625,-12.2283935546875
1663862568135321900,13.83032177734375,-44.30084228515625,-11.32049560546875,-11.92779541015625
1663862568155310800,13.850310791015625,-43.5272216796875,-10.85052490234375,-10.400390625
1663862568175299800,13.8702998046875,-43.9788818359375,-10.552978515625,-11.16180419921875
1663862568195288800,13.890288818359375,-43.99566650390625,-11.3189697265625,-11.92626953125
1663862568215277800,13.91027783203125,-42.61932373046875,-11.02752685546875,-13.60015869140625
1663862568235266800,13.930266845703125,-45.67413330078125,-11.3250732421875,-12.23297119140625
1663862568255255800,13.950255859375,-43.377685546875,-11.00616455078125,-11.0107421875
1663862568275244800,13.970244873046875,-44.3084716796875,-11.6241455078125,-11.9293212890625
1663862568295203300,13.990203369140625,-45.20721435546875,-11.00616455078125,-10.55450439453125
1663862568315222800,14.010222900390625,-44.4610595703125,-11.75537109375,-9.490966796875
1663862568335212000,14.0302119140625,-45.6573486328125,-10.565185546875,-12.22991943359375
1663862568355201000,14.050200927734375,-44.1741943359375,-12.5244140625,-10.5621337890625
1663862568375190000,14.07018994140625,-43.096923828125,-12.066650390625,-10.55755615234375
1663862568395179000,14.090178955078125,-44.439697265625,-10.70556640625,-11.00921630859375
1663862568415168000,14.11016796875,-43.74847412109375,-13.8916015625,-10.5682373046875
1663862568435157000,14.130156982421875,-43.55010986328125,-11.9110107421875,-10.09979248046875
1663862568455146000,14.15014599609375,-43.39447021484375,-11.75384521484375,-9.48944091796875
1663862568475135000,14.170135009765625,-44.4854736328125,-12.8204345703125,-9.4970703125
1663862568495124000,14.1901240234375,-44.30694580078125,-11.60888671875,-10.09979248046875
1663862568515113000,14.210113037109375,-44.4793701171875,-12.5244140625,-10.5621337890625
1663862568535102000,14.23010205078125,-43.4356689453125,-13.58184814453125,-9.95635986328125
1663862568555091200,14.25009130859375,-42.84820556640625,-14.508056640625,-11.9415283203125
1663862568575080200,14.270080078125,-43.16558837890625,-15.10009765625,-9.9639892578125
1663862568595069200,14.290069091796875,-43.170166015625,-15.38543701171875,-7.67822265625
1663862568615058200,14.31005810546875,-41.65496826171875,-15.7073974609375,-10.2691650390625
1663862568635047200,14.330047119140625,-41.802978515625,-15.5548095703125,-10.1165771484375
1663862568655036200,14.3500361328125,-40.90728759765625,-16.45050048828125,-8.44268798828125
1663862568675025200,14.370025146484375,-44.28558349609375,-17.51861572265625,-8.148193359375
1663862568695014100,14.39001416015625,-42.730712890625,-16.14837646484375,-8.1390380859375
1663862568715003100,14.410003173828125,-41.20941162109375,-16.30706787109375,-9.356689453125
1663862568734992100,14.4299921875,-44.27337646484375,-16.92047119140625,-9.21173095703125
1663862568754981000,14.449981201171875,-42.2760009765625,-16.29486083984375,-7.53021240234375
1663862568774970000,14.46997021484375,-43.33648681640625,-16.00189208984375,-8.5968017578125
1663862568794959400,14.48995947265625,-42.44232177734375,-16.9097900390625,-8.447265625
1663862568814917600,14.509917724609375,-42.8619384765625,-15.240478515625,-8.59222412109375
1663862568834937300,14.529937255859375,-42.3095703125,-17.81463623046875,-7.537841796875
1663862568855262000,14.550261962890625,-43.1884765625,-16.15142822265625,-8.4442138671875
1663862568875037400,14.570037353515625,-43.12896728515625,-13.568115234375,-8.4320068359375
1663862568894904300,14.589904296875,-42.5567626953125,-15.2313232421875,-7.52410888671875
1663862568914893300,14.609893310546875,-44.6990966796875,-15.5517578125,-9.05303955078125
1663862568934882300,14.62988232421875,-44.9676513671875,-13.8824462890625,-9.197998046875
1663862568954871300,14.649871337890625,-43.74847412109375,-13.8885498046875,-10.2630615234375
1663862568974860300,14.6698603515625,-42.6910400390625,-14.34478759765625,-10.5682373046875
1663862568994818800,14.68981884765625,-44.2474365234375,-15.7196044921875,-11.03363037109375
1663862569014838300,14.70983837890625,-42.071533203125,-13.885498046875,-10.26153564453125
1663862569034827500,14.72982763671875,-44.0673828125,-14.495849609375,-10.113525390625
1663862569054816500,14.74981640625,-44.512939453125,-13.90533447265625,-12.09259033203125
1663862569074805500,14.769805419921875,-43.2891845703125,-13.75579833984375,-12.69989013671875
1663862569094794500,14.78979443359375,-43.1427001953125,-13.91754150390625,-13.92059326171875
1663862569114753000,14.8097529296875,-44.0521240234375,-13.751220703125,-11.9384765625
1663862569134772500,14.8297724609375,-43.2586669921875,-12.384033203125,-12.23602294921875
1663862569154761500,14.849761474609375,-41.748046875,-12.99591064453125,-12.99896240234375
1663862569174750500,14.86975048828125,-44.21844482421875,-14.36920166015625,-13.16070556640625
1663862569194739500,14.889739501953125,-43.27239990234375,-12.98980712890625,-11.93389892578125
1663862569214728400,14.909728515625,-44.16046142578125,-11.7828369140625,-12.84332275390625
1663862569234717400,14.929717529296875,-43.59588623046875,-13.7664794921875,-13.76800537109375
1663862569254706400,14.94970654296875,-45.18585205078125,-9.95941162109375,-12.530517578125
1663862569274695700,14.96969580078125,-45.0775146484375,-11.932373046875,-12.23602294921875
1663862569294684700,14.9896845703125,-45.233154296875,-12.08343505859375,-12.0849609375
1663862569314673700,15.009673583984375,-42.19970703125,-12.69683837890625,-13.4552001953125
1663862569334662700,15.02966259765625,-44.12078857421875,-9.97314453125,-14.3585205078125
1663862569354651600,15.049651611328125,-43.54095458984375,-11.34033203125,-14.5172119140625
1663862569374640600,15.069640625,-44.1558837890625,-11.49749755859375,-14.97650146484375
1663862569394629600,15.089629638671875,-43.20831298828125,-10.11962890625,-14.0533447265625
1663862569414588200,15.109588134765625,-43.40667724609375,-12.10174560546875,-14.6728515625
1663862569434607600,15.129607666015625,-43.2525634765625,-11.9598388671875,-15.89202880859375
1663862569454596600,15.1495966796875,-42.31414794921875,-11.0321044921875,-14.361572265625
1663862569474585600,15.169585693359375,-44.287109375,-10.58807373046875,-15.277099609375
1663862569494574600,15.18957470703125,-42.27294921875,-9.20562744140625,-13.89617919921875
1663862569514563800,15.209563720703125,-43.68896484375,-11.053466796875,-16.497802734375
1663862569534552800,15.229552734375,-43.3929443359375,-11.4959716796875,-14.9749755859375
1663862569554541800,15.249541748046875,-44.451904296875,-11.05194091796875,-16.192626953125
1663862569574530800,15.26953076171875,-43.06182861328125,-10.42022705078125,-13.59710693359375
1663862569594519800,15.289519775390625,-40.509033203125,-12.08953857421875,-13.90838623046875
1663862569614508800,15.3095087890625,-42.63153076171875,-11.505126953125,-16.19415283203125
1663862569634467300,15.32946728515625,-42.11273193359375,-8.7646484375,-15.875244140625
1663862569654486800,15.34948681640625,-43.6798095703125,-10.7269287109375,-13.90533447265625
1663862569674475800,15.369475830078125,-43.55621337890625,-11.9598388671875,-15.89202880859375
1663862569694464800,15.38946484375,-41.10260009765625,-11.34490966796875,-15.58074951171875
1663862569714423300,15.40942333984375,-42.35076904296875,-12.5640869140625,-15.740966796875
1663862569734778600,15.429778564453125,-43.08929443359375,-11.505126953125,-16.19415283203125
1663862569754553900,15.449553955078125,-42.30804443359375,-10.72845458984375,-14.36004638671875
1663862569774421000,15.4694208984375,-43.52569580078125,-10.589599609375,-15.58074951171875
1663862569794410000,15.489409912109375,-41.57562255859375,-12.09564208984375,-14.36614990234375
1663862569814399000,15.50939892578125,-44.47479248046875,-12.1063232421875,-14.97955322265625
1663862569834388000,15.529387939453125,-43.39752197265625,-11.78436279296875,-13.14697265625
1663862569854377000,15.549376953125,-42.17681884765625,-11.65008544921875,-15.58380126953125
1663862569874366000,15.569365966796875,-41.71295166015625,-11.34796142578125,-15.887451171875
1663862569894355000,15.58935498046875,-42.17071533203125,-11.3433837890625,-15.277099609375
1663862569914313500,15.6093134765625,-42.1539306640625,-10.589599609375,-15.8843994140625
1663862569934333000,15.6293330078125,-42.291259765625,-9.97314453125,-14.9658203125
1663862569954322000,15.649322021484375,-42.791748046875,-11.94305419921875,-14.0625
1663862569974311200,15.669311279296876,-42.620849609375,-11.04888916015625,-16.19110107421875
1663862569994300200,15.689300048828125,-42.19512939453125,-12.40997314453125,-15.58837890625
1663862570014289200,15.7092890625,-41.71905517578125,-11.6424560546875,-14.82086181640625
1663862570034278100,15.729278076171875,-42.4896240234375,-11.95831298828125,-15.8905029296875
1663862570054267100,15.74926708984375,-41.72515869140625,-11.944580078125,-14.51873779296875
1663862570074225700,15.7692255859375,-42.3309326171875,-11.7889404296875,-13.90838623046875
1663862570094245000,15.7892451171875,-41.71905517578125,-11.6424560546875,-14.82086181640625
1663862570114234000,15.809234130859375,-41.23992919921875,-10.72235107421875,-13.90228271484375
1663862570134192600,15.829192626953125,-40.50445556640625,-11.80419921875,-16.192626953125
1663862570154212000,15.849212158203125,-41.4306640625,-12.40234375,-14.825439453125
1663862570174201000,15.869201171875,-42.61474609375,-10.74676513671875,-16.4947509765625
1663862570194190000,15.889190185546875,-41.56951904296875,-11.78741455078125,-13.90838623046875
1663862570214179300,15.909179443359376,-41.74957275390625,-13.01116943359375,-14.8284912109375
1663862570234168300,15.929168212890625,-42.034912109375,-12.10784912109375,-15.7379150390625
1663862570254157300,15.9491572265625,-43.40057373046875,-11.80419921875,-15.43426513671875
1663862570274115800,15.96911572265625,-42.79327392578125,-11.9537353515625,-15.28167724609375
1663862570294135300,15.98913525390625,-42.35076904296875,-12.56103515625,-15.435791015625
1663862570314124300,16.009124267578127,-41.74346923828125,-12.7044677734375,-14.52178955078125
1663862570334082800,16.029082763671877,-42.33245849609375,-11.7950439453125,-14.67132568359375
1663862570354071800,16.04907177734375,-43.5699462890625,-12.6922607421875,-12.6953125
1663862570374091300,16.06909130859375,-41.748046875,-12.99591064453125,-12.99896240234375
1663862570394080300,16.089080322265627,-41.32232666015625,-14.3707275390625,-13.92059326171875
1663862570414069200,16.1090693359375,-42.41180419921875,-15.41900634765625,-11.79351806640625
1663862570434058200,16.129058349609377,-40.4266357421875,-15.26336669921875,-11.9415283203125
1663862570454047500,16.149047607421874,-41.2109375,-16.31317138671875,-10.11962890625
1663862570474036500,16.169036376953127,-40.8935546875,-15.7196044921875,-11.7919921875
1663862570494025500,16.189025390625,-40.92559814453125,-17.218017578125,-9.20867919921875
1663862570514014500,16.209014404296877,-40.8111572265625,-18.89190673828125,-9.674072265625
1663862570534003500,16.22900341796875,-40.71044921875,-21.1639404296875,-8.770751953125
1663862570553992400,16.248992431640627,-39.88189697265625,-18.27545166015625,-8.7554931640625
1663862570573981400,16.2689814453125,-40.9912109375,-20.10498046875,-9.22393798828125
1663862570593970400,16.288970458984377,-40.87677001953125,-21.771240234375,-8.6212158203125
1663862570614295300,16.30929541015625,-41.72210693359375,-18.73931884765625,-9.21783447265625
1663862570634040000,16.3290400390625,-40.3778076171875,-20.08209228515625,-6.6314697265625
1663862570653937400,16.3489375,-40.05584716796875,-19.189453125,-9.06524658203125
