time,seconds_elapsed,z,y,x
1663862554502815200,0.197815185546875,-86.260986328125,-67.34619140625,55.04608154296875
1663862554522804200,0.21780419921875,-84.2987060546875,-68.24798583984375,55.65338134765625
1663862554542793200,0.237793212890625,-85.5133056640625,-67.9595947265625,54.1290283203125
1663862554562782200,0.2577822265625,-86.1419677734375,-68.73016357421875,53.057861328125
1663862554582771200,0.277771240234375,-84.930419921875,-69.17877197265625,53.51409912109375
1663862554602760200,0.29776025390625,-83.7249755859375,-69.78912353515625,53.0548095703125
1663862554622749200,0.317749267578125,-84.039306640625,-70.1019287109375,51.9866943359375
1663862554642738200,0.33773828125,-83.27484130859375,-70.0897216796875,53.35845947265625
1663862554662727200,0.35772705078125,-83.88214111328125,-69.9493408203125,52.1392822265625
1663862554682716200,0.377716064453125,-83.00628662109375,-71.62628173828125,51.2176513671875
1663862554702705400,0.397705322265625,-82.879638671875,-72.82257080078125,53.49884033203125
1663862554722663700,0.41766357421875,-84.22698974609375,-71.75750732421875,53.95965576171875
1663862554742683400,0.437683349609375,-83.14208984375,-70.99609375,53.9642333984375
1663862554762672400,0.45767236328125,-83.7554931640625,-71.15020751953125,53.81011962890625
1663862554782631000,0.477630859375,-82.87200927734375,-72.52197265625,53.1951904296875
1663862554802955500,0.49795556640625,-83.76617431640625,-71.6094970703125,53.350830078125
1663862554822731000,0.51773095703125,-82.75604248046875,-74.176025390625,55.16815185546875
1663862554842628400,0.53762841796875,-82.11517333984375,-72.8057861328125,55.328369140625
1663862554862647800,0.557647705078125,-82.24029541015625,-71.59423828125,54.876708984375
1663862554882576000,0.577575927734375,-83.43963623046875,-70.68634033203125,54.7271728515625
1663862554902595300,0.59759521484375,-82.8369140625,-70.9930419921875,54.2694091796875
1663862554922584300,0.617584228515625,-81.439208984375,-69.79217529296875,51.99127197265625
1663862554942573600,0.637573486328125,-83.75091552734375,-70.8587646484375,52.28729248046875
1663862554962562600,0.6575625,-83.43048095703125,-70.2362060546875,53.96728515625
1663862554982551600,0.677551513671875,-83.44268798828125,-70.71075439453125,51.67999267578125
1663862555002510000,0.697510009765625,-83.43505859375,-70.2728271484375,49.54833984375
1663862555022529500,0.717529541015625,-81.44683837890625,-70.10650634765625,50.77056884765625
1663862555042518500,0.7375185546875,-82.07855224609375,-71.0235595703125,50.3082275390625
1663862555062507500,0.757507568359375,-82.39593505859375,-71.4996337890625,48.0194091796875
1663862555082496500,0.77749658203125,-82.85369873046875,-71.50115966796875,48.01788330078125
1663862555102485500,0.797485595703125,-82.26470947265625,-72.406005859375,48.62518310546875
1663862555122444000,0.817444091796875,-79.5013427734375,-71.5057373046875,46.65069580078125
1663862555142463500,0.83746337890625,-82.08160400390625,-71.05255126953125,46.954345703125
1663862555162422000,0.857422119140625,-79.97283935546875,-72.125244140625,45.428466796875
1663862555182441700,0.877441650390625,-80.44281005859375,-72.72491455078125,46.49200439453125
1663862555202430700,0.8974306640625,-79.35943603515625,-71.96197509765625,46.49658203125
1663862555222419700,0.917419677734375,-79.52880859375,-72.59521484375,43.597412109375
1663862555242399200,0.937399169921875,-78.36151123046875,-74.87945556640625,42.6727294921875
1663862555262388200,0.95738818359375,-76.3763427734375,-74.73602294921875,41.15142822265625
1663862555282377200,0.977377197265625,-74.224853515625,-73.97613525390625,40.7012939453125
1663862555302366200,0.9973662109375,-74.67498779296875,-73.53973388671875,38.41705322265625
1663862555322355200,1.017355224609375,-71.63848876953125,-74.01885986328125,34.912109375
1663862555342313700,1.037313720703125,-70.24688720703125,-72.98126220703125,31.56585693359375
1663862555362333200,1.057333251953125,-65.97747802734375,-72.8485107421875,28.0670166015625
1663862555382322400,1.077322509765625,-63.6474609375,-70.89385986328125,25.030517578125
1663862555402311400,1.0973115234375,-59.21173095703125,-70.15533447265625,21.38214111328125
1663862555422269700,1.117269775390625,-55.29327392578125,-65.3167724609375,17.4468994140625
1663862555442289400,1.137289306640625,-50.61492919921875,-60.6109619140625,15.6463623046875
1663862555462278400,1.1572783203125,-47.7996826171875,-57.4371337890625,12.92266845703125
1663862555482267400,1.177267333984375,-44.6014404296875,-50.76904296875,9.91058349609375
1663862555502256400,1.19725634765625,-44.95391845703125,-46.19598388671875,11.60888671875
1663862555522215000,1.21721484375,-40.11383056640625,-41.1773681640625,10.87799072265625
1663862555542234400,1.237234375,-39.74151611328125,-38.28277587890625,11.6546630859375
1663862555562193000,1.25719287109375,-37.82958984375,-34.637451171875,10.9130859375
1663862555582212400,1.27721240234375,-37.72735595703125,-30.20477294921875,13.83056640625
1663862555602201300,1.297201416015625,-37.04833984375,-27.17132568359375,12.93182373046875
1663862555622190600,1.317190673828125,-37.34893798828125,-27.01568603515625,13.5406494140625
1663862555642179600,1.3371796875,-35.92987060546875,-24.88555908203125,13.4002685546875
1663862555662168600,1.35716845703125,-35.955810546875,-26.09100341796875,14.76593017578125
1663862555682432300,1.377432373046875,-35.9466552734375,-25.6439208984375,13.702392578125
1663862555702207500,1.39720751953125,-33.95233154296875,-25.17547607421875,14.6209716796875
1663862555722166000,1.417166015625,-34.417724609375,-25.49285888671875,13.0950927734375
1663862555742124500,1.43712451171875,-34.69696044921875,-24.4171142578125,14.6240234375
1663862555762113500,1.457113525390625,-31.9732666015625,-25.32501220703125,14.46990966796875
1663862555782102500,1.4771025390625,-30.71441650390625,-23.6358642578125,16.156005859375
1663862555802091500,1.497091552734375,-30.24139404296875,-22.88818359375,14.63623046875
1663862555822080500,1.51708056640625,-29.9285888671875,-22.576904296875,15.40069580078125
1663862555842069500,1.537069580078125,-30.70526123046875,-23.32305908203125,17.22412109375
1663862555862058800,1.557058837890625,-31.51092529296875,-25.1617431640625,15.69061279296875
1663862555882047700,1.5770478515625,-31.201171875,-24.86724853515625,14.47296142578125
1663862555902036700,1.59703662109375,-30.9051513671875,-25.311279296875,15.84320068359375
1663862555922025700,1.617025634765625,-29.0496826171875,-24.23248291015625,17.07000732421875
1663862555942014700,1.6370146484375,-28.08685302734375,-22.23663330078125,19.366455078125
1663862555962003700,1.657003662109375,-24.0081787109375,-17.333984375,23.052978515625
1663862555981992700,1.67699267578125,-22.7081298828125,-13.95721435546875,26.57623291015625
1663862556001981700,1.696981689453125,-24.60174560546875,-10.14556884765625,28.5736083984375
1663862556021970700,1.716970703125,-23.77471923828125,-7.513427734375,34.07440185546875
1663862556041929200,1.73692919921875,-22.515869140625,-5.8258056640625,35.760498046875
1663862556061948700,1.75694873046875,-24.9267578125,-4.73175048828125,39.8773193359375
1663862556081937700,1.776937744140625,-23.68621826171875,-3.81927490234375,39.7308349609375
1663862556101927000,1.796927001953125,-23.96697998046875,-2.7587890625,39.2791748046875
1663862556121916000,1.816916015625,-25.4730224609375,-1.983642578125,41.56646728515625
1663862556141905000,1.83690478515625,-25.48065185546875,-2.2918701171875,41.10870361328125
1663862556161863400,1.856863525390625,-24.71923828125,-2.2979736328125,40.0421142578125
1663862556181883000,1.8768828125,-25.61187744140625,-1.38092041015625,40.960693359375
1663862556201872000,1.896871826171875,-24.88861083984375,-3.18145751953125,43.54248046875
1663862556221860900,1.91686083984375,-24.4232177734375,-2.75115966796875,40.34576416015625
1663862556241849900,1.936849853515625,-25.80413818359375,-3.0609130859375,40.03753662109375
1663862556261838800,1.9568388671875,-24.4232177734375,-2.75115966796875,40.34576416015625
1663862556281827800,1.976827880859375,-24.2828369140625,-3.21044921875,39.886474609375
1663862556301816800,1.99681689453125,-24.5697021484375,-2.5726318359375,43.54705810546875
1663862556321775400,2.016775390625,-22.8851318359375,-2.26593017578125,43.39752197265625
1663862556341795000,2.036795166015625,-22.528076171875,-0.10528564453125,47.37091064453125
1663862556361784000,2.0567841796875,-22.36785888671875,0.08392333984375,51.6387939453125
1663862556381742600,2.07674267578125,-22.69287109375,-0.95367431640625,54.833984375
1663862556401762000,2.096761962890625,-23.60076904296875,-0.775146484375,58.33892822265625
1663862556421751000,2.1167509765625,-24.31488037109375,1.220703125,60.93902587890625
1663862556441740000,2.136739990234375,-23.2879638671875,-0.71258544921875,65.655517578125
1663862556461729000,2.15672900390625,-24.81536865234375,-0.86517333984375,65.9576416015625
1663862556481718000,2.176718017578125,-28.64227294921875,-1.4892578125,65.0360107421875
1663862556501707000,2.19670703125,-29.21142578125,0.20751953125,68.0908203125
1663862556521696000,2.216696044921875,-32.24639892578125,0.689697265625,71.90093994140625
1663862556542020900,2.237020751953125,-30.8868408203125,0.0946044921875,73.11859130859375
1663862556561948700,2.25694873046875,-31.16455078125,1.3092041015625,73.1231689453125
1663862556581724200,2.27672412109375,-31.48956298828125,0.3997802734375,73.42376708984375
1663862556601652200,2.29665234375,-31.79168701171875,0.543212890625,72.509765625
1663862556621641200,2.31664111328125,-32.2662353515625,-0.21209716796875,73.11553955078125
1663862556641630200,2.336630126953125,-31.475830078125,1.0009765625,72.6654052734375
1663862556661619200,2.356619140625,-32.2479248046875,0.6805419921875,70.83282470703125
1663862556681608200,2.376608154296875,-31.33087158203125,0.823974609375,69.61669921875
1663862556701597200,2.39659716796875,-31.0455322265625,-0.08087158203125,70.37353515625
1663862556721586200,2.416586181640625,-31.4849853515625,0.68206787109375,70.8343505859375
1663862556741575200,2.4365751953125,-32.427978515625,-0.537109375,70.6756591796875
1663862556761564200,2.456564208984375,-30.11474609375,0.67596435546875,69.769287109375
1663862556781553200,2.47655322265625,-31.4849853515625,0.67901611328125,70.5291748046875
1663862556801542400,2.49654248046875,-32.8460693359375,1.13983154296875,71.4447021484375
1663862556821531400,2.516531494140625,-32.98492431640625,1.751708984375,71.905517578125
1663862556841520400,2.536520263671875,-33.14056396484375,1.59759521484375,71.75140380859375
1663862556861509400,2.55650927734375,-31.94122314453125,0.69427490234375,72.35870361328125
1663862556881498400,2.576498291015625,-33.01544189453125,0.38299560546875,71.89788818359375
1663862556901487400,2.5964873046875,-31.79931640625,0.23040771484375,71.441650390625
1663862556921446000,2.61644580078125,-33.74786376953125,1.74407958984375,71.29364013671875
1663862556941465300,2.63646533203125,-30.548095703125,1.60675048828125,72.21221923828125
1663862556961454300,2.656454345703125,-30.87005615234375,0.98114013671875,70.074462890625
1663862556981443300,2.676443359375,-32.24029541015625,0.98724365234375,71.2921142578125
1663862557001432300,2.696432373046875,-31.0455322265625,-0.0762939453125,70.98388671875
1663862557021421300,2.71642138671875,-28.4698486328125,-0.836181640625,70.37353515625
1663862557041379800,2.7363798828125,-29.38232421875,-0.68206787109375,70.82977294921875
1663862557061399600,2.756399658203125,-27.0751953125,0.22430419921875,69.61822509765625
1663862557081388500,2.776388427734375,-27.37884521484375,0.23040771484375,70.379638671875
1663862557101377500,2.79637744140625,-25.74005126953125,-1.4404296875,70.068359375
1663862557121366500,2.816366455078125,-24.3927001953125,-2.51007080078125,68.9971923828125
1663862557141355500,2.83635546875,-23.31390380859375,-2.04620361328125,69.76318359375
1663862557161344500,2.856344482421875,-24.7161865234375,-3.277587890625,68.231201171875
1663862557181333500,2.87633349609375,-22.265625,-2.81829833984375,67.93212890625
1663862557201322500,2.896322509765625,-21.51336669921875,-3.26995849609375,68.23577880859375
1663862557221311500,2.9163115234375,-21.3531494140625,-2.9541015625,69.60906982421875
1663862557241300500,2.936300537109375,-20.78094482421875,-4.632568359375,68.68743896484375
1663862557261289500,2.95628955078125,-17.65899658203125,-8.251953125,71.26312255859375
1663862557281278700,2.97627880859375,-15.23284912109375,-8.8470458984375,72.1771240234375
1663862557301267700,2.996267822265625,-12.554931640625,-11.871337890625,73.3856201171875
1663862557321256700,3.016256591796875,-10.96954345703125,-15.82794189453125,72.30072021484375
1663862557341245700,3.03624560546875,-10.9893798828125,-16.8670654296875,75.19073486328125
1663862557361204200,3.056204345703125,-10.28594970703125,-19.4427490234375,75.94146728515625
1663862557381223700,3.0762236328125,-10.589599609375,-19.43817138671875,76.702880859375
1663862557401212700,3.096212646484375,-7.85675048828125,-20.03173828125,77.61688232421875
1663862557421537300,3.116537353515625,-10.162353515625,-20.8038330078125,76.849365234375
1663862557441465300,3.13646533203125,-9.27276611328125,-21.990966796875,79.8919677734375
1663862557461210400,3.15621044921875,-9.22698974609375,-19.8883056640625,77.00653076171875
1663862557481168600,3.176168701171875,-10.18524169921875,-21.85821533203125,77.90985107421875
1663862557501188400,3.196188232421875,-10.5560302734375,-18.05419921875,78.53851318359375
1663862557521177300,3.21617724609375,-11.17095947265625,-18.218994140625,77.16522216796875
1663862557541136000,3.236135986328125,-10.2020263671875,-15.7958984375,75.95977783203125
1663862557561124900,3.256124755859375,-10.05401611328125,-15.95458984375,75.04425048828125
1663862557581144300,3.276144287109375,-12.15057373046875,-14.28070068359375,75.811767578125
1663862557601102800,3.296102783203125,-12.57171630859375,-12.6251220703125,74.1424560546875
1663862557621091800,3.316091796875,-14.37835693359375,-11.57073974609375,73.38409423828125
1663862557641111300,3.336111328125,-16.93572998046875,-10.05859375,73.08349609375
1663862557661100300,3.356100341796875,-16.14227294921875,-8.55865478515625,70.501708984375
1663862557681089300,3.37608935546875,-18.560791015625,-7.64923095703125,70.96099853515625
1663862557701109000,3.39610888671875,-16.70989990234375,-6.60247802734375,68.37615966796875
1663862557721067500,3.416067626953125,-17.03338623046875,-7.379150390625,66.5435791015625
1663862557741056500,3.436056396484375,-16.7236328125,-7.086181640625,65.17333984375
1663862557761045500,3.45604541015625,-17.88177490234375,-4.35791015625,64.57672119140625
1663862557781248000,3.476248046875,-17.14630126953125,-5.4351806640625,62.74261474609375
1663862557801023500,3.4960234375,-19.73876953125,-5.44281005859375,62.4359130859375
1663862557820982000,3.51598193359375,-19.6807861328125,-2.86407470703125,61.9903564453125
1663862557840971000,3.535970947265625,-19.3603515625,-2.117919921875,60.16693115234375
1663862557860960000,3.5559599609375,-19.5098876953125,-1.96990966796875,59.70916748046875
1663862557880979500,3.5759794921875,-21.0479736328125,-2.58026123046875,59.857177734375
1663862557900968400,3.595968505859375,-21.06475830078125,-3.34014892578125,59.8541259765625
1663862557920927000,3.615927001953125,-19.09332275390625,-3.79638671875,59.2437744140625
1663862557940916000,3.635916015625,-19.403076171875,-3.95355224609375,58.7860107421875
1663862557960905000,3.655905029296875,-19.0887451171875,-3.50189208984375,58.1787109375
1663862557980955100,3.675955078125,-18.9453125,-3.95660400390625,58.3282470703125
1663862558000944000,3.695944091796875,-20.00732421875,-3.65753173828125,58.02459716796875
1663862558020933000,3.71593310546875,-18.45550537109375,-2.44903564453125,56.66046142578125
1663862558040922000,3.735922119140625,-18.79119873046875,-3.814697265625,57.110595703125
1663862558060911000,3.7559111328125,-20.92132568359375,-3.533935546875,54.82330322265625
1663862558080930800,3.775930908203125,-21.49200439453125,-1.849365234375,56.50787353515625
1663862558100889000,3.79588916015625,-22.23968505859375,-1.11846923828125,53.30963134765625
1663862558120847600,3.81584765625,-23.76708984375,-1.26495361328125,54.22210693359375
1663862558140836600,3.835836669921875,-23.2757568359375,0.25634765625,54.38232421875
1663862558160795100,3.855795166015625,-23.43902587890625,-0.2044677734375,53.77044677734375
1663862558180784000,3.8757841796875,-24.18670654296875,0.40740966796875,54.534912109375
1663862558200803800,3.895803955078125,-22.5433349609375,-1.1077880859375,54.681396484375
1663862558220762400,3.915762451171875,-23.13385009765625,-0.20751953125,53.46527099609375
1663862558240751400,3.93575146484375,-22.23358154296875,-0.811767578125,53.6163330078125
1663862558260740400,3.955740234375,-21.51336669921875,-2.642822265625,52.54058837890625
1663862558280729300,3.975729248046875,-18.939208984375,-3.40118408203125,52.08282470703125
1663862558301023500,3.9960234375,-19.384765625,-2.935791015625,53.30352783203125
1663862558320951600,4.01595166015625,-18.63861083984375,-3.69110107421875,53.60565185546875
1663862558340696300,4.0356962890625,-18.0572509765625,-4.9072265625,53.448486328125
1663862558360685300,4.055685302734375,-14.8468017578125,-4.58984375,54.21600341796875
1663862558380704800,4.075704833984375,-16.08123779296875,-5.206298828125,53.60107421875
1663862558400663300,4.095663330078125,-13.214111328125,-6.5582275390625,54.66461181640625
1663862558420652300,4.11565234375,-12.20550537109375,-9.1400146484375,54.6539306640625
1663862558440641300,4.135641357421875,-10.11810302734375,-11.26556396484375,54.34112548828125
1663862558460630500,4.155630615234375,-8.0902099609375,-15.9637451171875,55.3863525390625
1663862558480650000,4.17564990234375,-4.74395751953125,-16.400146484375,56.9122314453125
1663862558500639000,4.195638916015625,-2.716064453125,-21.10443115234375,57.196044921875
1663862558520628000,4.2156279296875,-1.23748779296875,-23.2147216796875,59.01641845703125
1663862558540586500,4.23558642578125,-2.2186279296875,-26.2359619140625,61.43798828125
1663862558560575500,4.255575439453125,-1.04522705078125,-28.35235595703125,62.3443603515625
1663862558580564500,4.275564453125,-1.20849609375,-28.81011962890625,62.188720703125
1663862558600553500,4.295553466796875,-0.14495849609375,-28.96270751953125,61.88507080078125
1663862558620542500,4.31554248046875,-1.24359130859375,-30.328369140625,62.48626708984375
1663862558640531500,4.335531494140625,-1.3336181640625,-27.60009765625,61.58599853515625
1663862558660581600,4.35558154296875,-2.056884765625,-25.79498291015625,59.46044921875
1663862558680570600,4.375570556640625,-2.18963623046875,-24.89166259765625,58.54949951171875
1663862558700529200,4.395529052734375,-2.4383544921875,-22.45025634765625,59.7808837890625
1663862558720579000,4.4155791015625,-3.93829345703125,-21.258544921875,57.34710693359375
1663862558740537600,4.43553759765625,-5.38177490234375,-17.62237548828125,56.2957763671875
1663862558760465700,4.455465576171875,-7.29522705078125,-14.59197998046875,55.69915771484375
1663862558780454700,4.47545458984375,-8.46099853515625,-12.1673583984375,55.2520751953125
1663862558800443600,4.495443603515625,-10.39276123046875,-9.9029541015625,53.88946533203125
1663862558820432600,4.5154326171875,-13.0828857421875,-7.48138427734375,53.44085693359375
1663862558840421600,4.535421630859375,-13.70697021484375,-8.09173583984375,53.28521728515625
1663862558860410600,4.55541064453125,-15.96221923828125,-6.46209716796875,48.71826171875
1663862558880399600,4.575399658203125,-15.93780517578125,-5.40313720703125,48.2666015625
1663862558900388600,4.595388671875,-17.46063232421875,-5.3924560546875,49.7894287109375
1663862558920377600,4.615377685546875,-18.96820068359375,-4.50439453125,47.35260009765625
1663862558940366800,4.635366943359375,-17.90924072265625,-4.8187255859375,45.8282470703125
1663862558960355800,4.65535595703125,-20.6146240234375,-3.14788818359375,46.44317626953125
1663862558980344800,4.6753447265625,-21.52099609375,-2.69927978515625,45.83587646484375
1663862559000333800,4.695333740234375,-21.52557373046875,-2.99224853515625,47.05352783203125
1663862559020322800,4.71532275390625,-19.427490234375,-4.52423095703125,45.21942138671875
1663862559040311800,4.735311767578125,-20.03631591796875,-4.5166015625,46.28448486328125
1663862559060300800,4.75530078125,-18.51654052734375,-4.681396484375,44.305419921875
1663862559080289800,4.775289794921875,-16.973876953125,-3.9031982421875,46.1395263671875
1663862559100278800,4.79527880859375,-18.0816650390625,-5.72967529296875,46.12884521484375
1663862559120267800,4.815267822265625,-17.60101318359375,-4.53948974609375,42.9351806640625
1663862559140256800,4.8352568359375,-17.6177978515625,-5.3009033203125,42.626953125
1663862559160246000,4.85524609375,-19.62127685546875,-6.219482421875,42.46673583984375
1663862559180540200,4.8755400390625,-20.51544189453125,-5.31463623046875,41.8609619140625
1663862559200468000,4.895468017578125,-19.99969482421875,-2.72216796875,42.6361083984375
1663862559220213000,4.915212890625,-21.40960693359375,-4.40216064453125,42.0166015625
1663862559240202000,4.935201904296875,-21.83685302734375,-3.04412841796875,41.10870361328125
1663862559260191000,4.95519091796875,-20.92437744140625,-3.18603515625,42.02423095703125
1663862559280180000,4.975179931640625,-20.91827392578125,-2.88238525390625,42.02423095703125
1663862559300169000,4.9951689453125,-21.67205810546875,-2.5665283203125,43.55010986328125
1663862559320158000,5.015157958984375,-21.52252197265625,-2.71453857421875,44.00634765625
1663862559340147000,5.03514697265625,-22.2686767578125,-1.9683837890625,42.63763427734375
1663862559360136000,5.055135986328125,-21.69647216796875,-3.63006591796875,43.54400634765625
1663862559380125000,5.075125,-20.7763671875,-3.46832275390625,44.4610595703125
1663862559400114200,5.0951142578125,-22.26715087890625,-1.9561767578125,44.0093994140625
1663862559420133600,5.115133544921875,-19.97222900390625,-1.63421630859375,45.53680419921875
1663862559440122600,5.13512255859375,-19.10400390625,-3.6224365234375,43.85223388671875
1663862559460081200,5.1550810546875,-18.9788818359375,-4.8370361328125,43.99871826171875
1663862559480070100,5.175070068359375,-18.804931640625,-3.91998291015625,44.6136474609375
1663862559500089600,5.195089599609375,-16.73431396484375,-6.7962646484375,45.36285400390625
1663862559520048000,5.215048095703125,-17.6055908203125,-4.82940673828125,44.4580078125
1663862559540037000,5.235037109375,-17.6239013671875,-5.5938720703125,43.9971923828125
1663862559560056600,5.255056640625,-17.16461181640625,-5.58319091796875,45.21636962890625
1663862559580015000,5.27501513671875,-15.093994140625,-8.4564208984375,46.270751953125
1663862559600034800,5.295034912109375,-12.3748779296875,-9.65728759765625,47.4884033203125
1663862559620023800,5.31502392578125,-11.03057861328125,-10.86273193359375,48.2452392578125
1663862559640012800,5.3350126953125,-8.18634033203125,-13.27667236328125,49.76043701171875
1663862559660001800,5.355001708984375,-5.816650390625,-16.448974609375,51.42364501953125
1663862559679990800,5.37499072265625,-4.82177734375,-19.63348388671875,52.01873779296875
1663862559699949300,5.39494921875,-2.423095703125,-21.45233154296875,52.01263427734375
1663862559719938300,5.414938232421875,-2.16064453125,-23.40850830078125,54.13665771484375
1663862559739927300,5.43492724609375,-2.17132568359375,-23.86322021484375,54.4403076171875
1663862559759916300,5.454916259765625,-0.79803466796875,-23.8525390625,55.2032470703125
1663862559779905300,5.4749052734375,-2.76641845703125,-23.248291015625,55.35736083984375
1663862559799894300,5.494894287109375,-2.7740478515625,-23.55804443359375,54.5928955078125
1663862559819852800,5.514852783203125,-4.42352294921875,-22.34954833984375,54.13970947265625
1663862559839872300,5.534872314453125,-4.86297607421875,-21.4569091796875,52.00958251953125
1663862559859861200,5.554861328125,-2.99224853515625,-19.62890625,52.02178955078125
1663862559879850500,5.5748505859375,-5.88226318359375,-19.33135986328125,52.020263671875
1663862559899839500,5.594839599609375,-6.5948486328125,-17.0654296875,50.65765380859375
1663862559919798000,5.614798095703125,-7.46612548828125,-15.1031494140625,49.2950439453125
1663862559939817500,5.6348173828125,-10.015869140625,-13.27972412109375,49.7589111328125
1663862559959806500,5.654806396484375,-10.4461669921875,-12.066650390625,49.6124267578125
1663862559979795500,5.67479541015625,-12.9913330078125,-9.95635986328125,48.095703125
1663862559999784400,5.694784423828125,-14.75677490234375,-7.080078125,47.344970703125
1663862560019773400,5.7147734375,-17.22259521484375,-8.16192626953125,45.81298828125
1663862560039762400,5.734762451171875,-18.115234375,-7.2418212890625,46.8841552734375
1663862560060056600,5.755056640625,-18.6492919921875,-3.77197265625,44.00482177734375
1663862560079954200,5.7749541015625,-19.91424560546875,-5.7525634765625,43.841552734375
1663862560099760000,5.794760009765625,-20.9381103515625,-3.91082763671875,46.13494873046875
1663862560119718700,5.81471875,-23.37493896484375,-3.7689208984375,45.5230712890625
1663862560139707600,5.834707763671875,-23.1597900390625,-1.0345458984375,45.38421630859375
1663862560159696600,5.854696533203125,-23.78997802734375,-1.81121826171875,43.5516357421875
1663862560179716000,5.874716064453125,-23.92730712890625,-1.1993408203125,44.01092529296875
1663862560199674600,5.894674560546875,-23.8128662109375,-2.86407470703125,44.91729736328125
1663862560219663600,5.91466357421875,-22.91107177734375,-3.47137451171875,44.76318359375
1663862560239652600,5.934652587890625,-22.59979248046875,-3.03802490234375,41.8701171875
1663862560259641600,5.9546416015625,-21.85211181640625,-3.77960205078125,44.000244140625
1663862560279600000,5.97460009765625,-20.34759521484375,-4.69207763671875,43.54095458984375
1663862560299619600,5.99461962890625,-20.63446044921875,-3.9215087890625,44.915771484375
1663862560319608600,6.014608642578125,-20.61004638671875,-2.8594970703125,44.61669921875
1663862560339567000,6.034567138671875,-21.11358642578125,-4.84619140625,43.3868408203125
1663862560359586800,6.0545869140625,-23.22845458984375,-3.94439697265625,42.779541015625
1663862560379575800,6.074575927734375,-21.98486328125,-2.874755859375,43.0908203125
1663862560399564800,6.094564697265625,-20.93505859375,-3.64227294921875,42.02117919921875
1663862560419553800,6.1145537109375,-23.5443115234375,-4.400634765625,42.7764892578125
1663862560439512300,6.13451220703125,-22.92022705078125,-3.78570556640625,43.389892578125
1663862560459531800,6.15453173828125,-23.2208251953125,-3.62701416015625,44.305419921875
1663862560479520800,6.174520751953125,-23.663330078125,-3.01666259765625,44.76470947265625
1663862560499509800,6.194509765625,-20.78399658203125,-3.77960205078125,43.69659423828125
1663862560519498800,6.214498779296875,-21.08154296875,-3.466796875,44.76470947265625
1663862560539487700,6.23448779296875,-20.95489501953125,-4.67071533203125,46.13037109375
1663862560559476700,6.254476806640625,-20.6573486328125,-4.97894287109375,45.672607421875
1663862560579466000,6.274466064453125,-19.01092529296875,-6.3446044921875,45.51544189453125
1663862560599455000,6.294455078125,-20.51849365234375,-5.58013916015625,46.2799072265625
1663862560619444000,6.31444384765625,-18.11676025390625,-7.25250244140625,45.66497802734375
1663862560639433000,6.334432861328125,-17.17071533203125,-5.877685546875,46.28143310546875
1663862560659422000,6.354421875,-16.88232421875,-6.634521484375,46.58355712890625
1663862560679411000,6.374410888671875,-16.58782958984375,-7.09228515625,46.27685546875
1663862560699369500,6.394369384765625,-13.89923095703125,-9.6466064453125,49.00970458984375
1663862560719389000,6.414388916015625,-14.10675048828125,-12.08038330078125,48.84490966796875
1663862560739378000,6.4343779296875,-9.74273681640625,-14.6484375,49.6002197265625
1663862560759336400,6.45433642578125,-6.54449462890625,-14.93072509765625,51.4312744140625
1663862560779356000,6.47435595703125,-6.83441162109375,-21.00067138671875,52.61993408203125
1663862560799345000,6.494344970703125,-3.8177490234375,-22.49908447265625,54.29229736328125
1663862560819334100,6.514334228515625,-3.6956787109375,-23.8677978515625,54.13360595703125
1663862560839323100,6.5343232421875,-3.82537841796875,-22.9339599609375,56.8817138671875
1663862560859281400,6.554281494140625,-3.7109375,-24.47967529296875,53.67279052734375
1663862560879301000,6.574301025390625,-3.50494384765625,-22.1954345703125,54.2938232421875
1663862560899290000,6.5942900390625,-4.400634765625,-21.2982177734375,52.6214599609375
1663862560919279000,6.614279052734375,-4.80194091796875,-18.85986328125,53.54766845703125
1663862560939542800,6.634542724609375,-6.19659423828125,-19.78607177734375,52.3223876953125
1663862560959470800,6.654470947265625,-8.154296875,-18.597412109375,49.5819091796875
1663862560979246000,6.67424609375,-9.61761474609375,-15.869140625,48.9837646484375
1663862560999235000,6.694235107421875,-11.11297607421875,-14.5172119140625,47.46551513671875
1663862561019254800,6.7142548828125,-11.3006591796875,-9.3505859375,47.48992919921875
1663862561039213000,6.734213134765625,-14.1571044921875,-7.5286865234375,47.95379638671875
1663862561059202300,6.754202392578125,-17.01202392578125,-5.70526123046875,48.7213134765625
1663862561079191300,6.77419140625,-18.2373046875,-5.87310791015625,47.0428466796875
1663862561099180300,6.79418017578125,-18.8446044921875,-5.7373046875,45.36590576171875
1663862561119169300,6.814169189453125,-20.36285400390625,-5.4290771484375,46.1273193359375
1663862561139127800,6.8341279296875,-21.6705322265625,-2.557373046875,44.61669921875
1663862561159147300,6.854147216796875,-23.2208251953125,-3.63311767578125,43.54248046875
1663862561179136300,6.87413623046875,-23.65875244140625,-2.72369384765625,43.39447021484375
1663862561199125200,6.894125244140625,-24.847412109375,-1.3580322265625,43.5516357421875
1663862561219144700,6.914144775390625,-26.67694091796875,-1.3580322265625,43.85528564453125
1663862561239103200,6.934103271484375,-27.30255126953125,-1.98211669921875,42.17529296875
1663862561259092200,6.95409228515625,-27.587890625,-1.21002197265625,43.70269775390625
1663862561279081200,6.974081298828125,-24.44305419921875,-3.7811279296875,44.4549560546875
1663862561299070500,6.994070556640625,-22.4456787109375,-3.16009521484375,45.37506103515625
1663862561319059500,7.0140595703125,-21.59423828125,-5.8990478515625,44.75250244140625
1663862561339079000,7.034078857421875,-20.84808349609375,-6.65435791015625,45.20721435546875
1663862561359068000,7.05406787109375,-22.05657958984375,-6.18743896484375,46.8841552734375
1663862561379057000,7.074056884765625,-22.46551513671875,-3.92913818359375,44.30389404296875
1663862561399046000,7.0940458984375,-24.28741455078125,-3.63006591796875,44.30389404296875
1663862561419035000,7.114034912109375,-22.5738525390625,-1.9622802734375,43.3990478515625
1663862561439023900,7.13402392578125,-23.2513427734375,-4.9896240234375,44.90814208984375
1663862561459012900,7.154012939453125,-23.22845458984375,-3.93829345703125,43.54095458984375
1663862561479002000,7.174002197265625,-22.92633056640625,-4.08782958984375,43.69354248046875
1663862561498960400,7.19396044921875,-24.5697021484375,-2.569580078125,43.8507080078125
1663862561518949400,7.213949462890625,-23.97918701171875,-3.47900390625,44.000244140625
1663862561538938600,7.233938720703125,-22.4334716796875,-2.56195068359375,44.3115234375
1663862561558927600,7.253927734375,-21.85211181640625,-3.77960205078125,44.000244140625
1663862561578916600,7.27391650390625,-22.80426025390625,-5.4473876953125,44.6014404296875
1663862561598905600,7.293905517578125,-22.6531982421875,-5.59234619140625,45.51544189453125
1663862561618894600,7.31389453125,-20.8251953125,-5.596923828125,44.45037841796875
1663862561638853000,7.33385302734375,-20.9716796875,-5.43060302734375,46.1273193359375
1663862561658872600,7.35387255859375,-21.16241455078125,-7.10601806640625,45.81451416015625
1663862561678861600,7.373861572265625,-17.96722412109375,-7.39593505859375,46.57745361328125
1663862561698850600,7.3938505859375,-19.59991455078125,-5.42755126953125,46.12884521484375
1663862561718839600,7.413839599609375,-16.741943359375,-7.23419189453125,47.4945068359375
1663862561738828500,7.43382861328125,-13.91143798828125,-10.1165771484375,47.48382568359375
1663862561758817800,7.45381787109375,-12.14752197265625,-13.00506591796875,46.86126708984375
1663862561778806800,7.473806884765625,-10.6781005859375,-15.5609130859375,49.7467041015625
1663862561798795800,7.493795654296875,-8.2366943359375,-15.54412841796875,51.12152099609375
1663862561819059500,7.5140595703125,-6.16455078125,-18.402099609375,54.15802001953125
1663862561838987300,7.5339873046875,-6.66046142578125,-20.08209228515625,53.23486328125
1663862561858762800,7.5537626953125,-5.6182861328125,-21.148681640625,52.77252197265625
1663862561878751700,7.573751708984375,-6.69097900390625,-21.44775390625,53.53240966796875
1663862561898740700,7.59374072265625,-6.9549560546875,-19.62738037109375,53.23638916015625
1663862561918760200,7.61376025390625,-7.7117919921875,-19.3359375,52.0172119140625
1663862561938718700,7.63371875,-7.84454345703125,-18.43109130859375,51.1077880859375
1663862561958707700,7.653707763671875,-9.13238525390625,-14.6514892578125,49.14398193359375
1663862561978696700,7.67369677734375,-12.01324462890625,-13.90380859375,48.38104248046875
1663862561998686000,7.69368603515625,-13.32855224609375,-11.334228515625,47.021484375
1663862562018684700,7.7136845703125,-14.691162109375,-10.88714599609375,46.41265869140625
1663862562038673700,7.733673583984375,-16.32843017578125,-9.0667724609375,46.41876220703125
1663862562058662700,7.75366259765625,-17.5201416015625,-7.84912109375,46.881103515625
1663862562078651600,7.773651611328125,-19.4854736328125,-7.1044921875,45.5108642578125
1663862562098640600,7.793640625,-22.6715087890625,-6.35833740234375,44.74945068359375
1663862562118629600,7.813629638671875,-22.65777587890625,-5.62286376953125,41.85638427734375
1663862562138618600,7.83361865234375,-25.54779052734375,-5.316162109375,42.92144775390625
1663862562158577200,7.8535771484375,-27.1881103515625,-3.66058349609375,41.25213623046875
1663862562178596600,7.8735966796875,-28.2440185546875,-3.192138671875,43.0816650390625
1663862562198585600,7.893585693359375,-28.5430908203125,-2.90374755859375,41.253662109375
1663862562218574600,7.91357470703125,-28.3538818359375,-1.2359619140625,40.8050537109375
1663862562238563800,7.933563720703125,-29.278564453125,-1.82342529296875,43.54400634765625
1663862562258522000,7.953522216796875,-30.2093505859375,-2.313232421875,39.7308349609375
1663862562278541800,7.973541748046875,-30.96160888671875,-1.9866943359375,42.626953125
1663862562298530800,7.99353076171875,-29.45404052734375,-2.7496337890625,41.864013671875
1663862562318519800,8.013519775390625,-29.74853515625,-2.2918701171875,42.17071533203125
1663862562338508800,8.0335087890625,-27.62298583984375,-2.73590087890625,42.93212890625
1663862562358497800,8.053497802734375,-28.2562255859375,-3.66363525390625,41.2506103515625
1663862562378486800,8.07348681640625,-26.31988525390625,-5.6427001953125,40.3289794921875
1663862562398475800,8.093475830078125,-26.89361572265625,-4.11224365234375,41.85943603515625
1663862562418464800,8.11346484375,-26.58843994140625,-4.1107177734375,41.85943603515625
1663862562438453800,8.133453857421875,-27.4993896484375,-3.96270751953125,41.70684814453125
1663862562458442800,8.15344287109375,-28.43780517578125,-4.89044189453125,40.02532958984375
1663862562478432000,8.173431884765625,-27.65655517578125,-4.119873046875,41.09649658203125
1663862562498421000,8.1934208984375,-28.2806396484375,-4.7332763671875,40.63568115234375
1663862562518440400,8.2134404296875,-28.56292724609375,-3.68194580078125,39.117431640625
1663862562538399000,8.23339892578125,-28.10211181640625,-3.5308837890625,38.96636962890625
1663862562558388000,8.253387939453125,-26.6082763671875,-4.8919677734375,39.26544189453125
1663862562578377000,8.273376953125,-25.8148193359375,-3.52630615234375,38.9678955078125
1663862562598366000,8.293365966796875,-27.50091552734375,-3.97491455078125,40.18402099609375
1663862562618355000,8.31335498046875,-25.384521484375,-4.736328125,39.4195556640625
1663862562638344000,8.333343994140625,-27.3895263671875,-5.67169189453125,37.127685546875
1663862562658333000,8.3533330078125,-26.947021484375,-6.40869140625,39.71405029296875
1663862562678322000,8.373322021484375,-24.969482421875,-6.5643310546875,38.80157470703125
1663862562698585600,8.393585693359375,-23.0255126953125,-8.23516845703125,38.49029541015625
1663862562718513700,8.413513671875,-23.0133056640625,-7.7667236328125,40.0177001953125
1663862562738289200,8.4332890625,-21.20513916015625,-8.80889892578125,42.1478271484375
1663862562758308600,8.45330859375,-18.17169189453125,-9.42840576171875,39.862060546875
1663862562778267100,8.47326708984375,-16.40472412109375,-12.2955322265625,41.98455810546875
1663862562798256000,8.493256103515625,-13.40789794921875,-14.697265625,44.71893310546875
1663862562818245000,8.5132451171875,-11.62109375,-16.53289794921875,42.88330078125
1663862562838234000,8.533234130859375,-10.418701171875,-17.41943359375,45.623779296875
1663862562858223000,8.55322314453125,-8.72344970703125,-16.78009033203125,48.828125
1663862562878212000,8.573212158203125,-9.2254638671875,-18.62030029296875,46.98944091796875
1663862562898201000,8.593201171875,-9.26513671875,-20.4376220703125,47.74322509765625
1663862562918159600,8.61315966796875,-9.0667724609375,-18.4539794921875,48.66790771484375
1663862562938179000,8.633178955078124,-8.55865478515625,-16.17431640625,48.6785888671875
1663862562958168300,8.653168212890625,-10.076904296875,-15.87982177734375,47.91717529296875
1663862562978157300,8.6731572265625,-11.87744140625,-14.52789306640625,46.39739990234375
1663862562998146300,8.693146240234375,-14.288330078125,-13.30413818359375,47.9248046875
1663862563018135300,8.71313525390625,-15.045166015625,-13.01422119140625,46.4019775390625
1663862563038124300,8.733124267578125,-18.1304931640625,-7.85675048828125,46.1181640625
1663862563058113300,8.75311328125,-19.64263916015625,-7.26470947265625,44.5953369140625
1663862563078102300,8.773102294921875,-23.870849609375,-5.4473876953125,44.90509033203125
1663862563098091300,8.79309130859375,-26.1260986328125,-3.94439697265625,43.53790283203125
1663862563118049800,8.8130498046875,-29.1473388671875,-2.73284912109375,43.69354248046875
1663862563138069200,8.8330693359375,-31.87713623046875,-2.11639404296875,45.36895751953125
1663862563158058200,8.853058349609375,-32.15179443359375,-0.75836181640625,44.3084716796875
1663862563178047200,8.873047119140624,-33.38165283203125,-1.21002197265625,45.21942138671875
1663862563198036500,8.893036376953125,-34.90142822265625,-0.9246826171875,43.389892578125
1663862563217994800,8.912994873046875,-37.9486083984375,-0.79193115234375,41.71142578125
1663862563238014500,8.933014404296875,-37.9180908203125,0.57220458984375,41.26129150390625
1663862563258003500,8.95300341796875,-42.21954345703125,-0.8056640625,41.24908447265625
1663862563277962000,8.9729619140625,-42.05169677734375,-0.1861572265625,42.6239013671875
1663862563297981400,8.9929814453125,-43.89801025390625,-0.9490966796875,42.6177978515625
1663862563317970400,9.012970458984375,-45.39794921875,0.11749267578125,43.3837890625
1663862563337959400,9.03295947265625,-45.86639404296875,-0.341796875,43.0755615234375
1663862563357948400,9.052948486328125,-42.79937744140625,0.42724609375,43.38836669921875
1663862563377937400,9.0729375,-43.57757568359375,-0.201416015625,41.0980224609375
1663862563397926400,9.092926513671875,-42.7764892578125,1.47552490234375,41.56494140625
1663862563417915400,9.112915283203124,-41.91436767578125,-0.80108642578125,41.70684814453125
1663862563437904600,9.132904541015625,-40.6646728515625,0.42572021484375,42.62847900390625
1663862563457893600,9.1528935546875,-42.987060546875,-1.10015869140625,42.46673583984375
1663862563477882600,9.172882568359375,-44.63958740234375,0.09307861328125,40.33660888671875
1663862563497902000,9.192902099609375,-44.6197509765625,1.00250244140625,40.0360107421875
1663862563517860600,9.212860595703125,-47.40447998046875,-0.81634521484375,41.24298095703125
1663862563537849600,9.232849609375,-46.05255126953125,-1.72882080078125,40.78369140625
1663862563557838600,9.252838623046875,-48.016357421875,-0.83770751953125,38.80462646484375
1663862563578071800,9.27307177734375,-47.85614013671875,-0.52032470703125,40.3289794921875
1663862563597999900,9.292999755859375,-48.76708984375,-0.372314453125,40.1763916015625
1663862563617805600,9.3128056640625,-48.7518310546875,0.24261474609375,40.9423828125
1663862563637794600,9.332794677734375,-49.664306640625,0.3875732421875,40.33203125
1663862563657783800,9.35278369140625,-50.74615478515625,-0.225830078125,40.0238037109375
1663862563677772800,9.372772705078125,-48.78387451171875,-1.1260986328125,40.93475341796875
1663862563697792300,9.392792236328125,-48.75335693359375,0.23651123046875,40.179443359375
1663862563717750800,9.412750732421875,-47.84088134765625,0.09765625,41.55120849609375
1663862563737739800,9.43273974609375,-47.53570556640625,0.0946044921875,41.094970703125
1663862563757728800,9.452728759765625,-45.54290771484375,0.55999755859375,41.70989990234375
1663862563777717800,9.4727177734375,-44.81201171875,-0.81634521484375,40.63720703125
1663862563797706800,9.492706787109375,-43.74542236328125,-0.81329345703125,40.63720703125
1663862563817695700,9.51269580078125,-42.66815185546875,-0.3662109375,39.422607421875
1663862563837684700,9.532684814453125,-40.19622802734375,1.01318359375,40.04058837890625
1663862563857704400,9.552704345703125,-40.69976806640625,-0.970458984375,39.26849365234375
1663862563877662700,9.572662841796875,-37.3260498046875,-0.18463134765625,41.5618896484375
1663862563897682400,9.592682373046875,-35.9710693359375,-0.9521484375,40.3411865234375
1663862563917641000,9.612640869140625,-31.26373291015625,-1.971435546875,44.45648193359375
1663862563937630000,9.6326298828125,-28.662109375,-1.64337158203125,46.59423828125
1663862563957588500,9.65258837890625,-25.6622314453125,-3.9031982421875,48.2635498046875
1663862563977608000,9.67260791015625,-23.675537109375,-3.73992919921875,49.18060302734375
1663862563997597000,9.692596923828125,-22.283935546875,-2.96173095703125,51.01470947265625
1663862564017586000,9.7125859375,-21.893310546875,-5.85479736328125,50.23956298828125
1663862564037575000,9.732574951171875,-19.451904296875,-5.83648681640625,51.76544189453125
1663862564057564000,9.75256396484375,-20.83282470703125,-6.28204345703125,53.2867431640625
1663862564077553000,9.772552978515625,-19.1192626953125,-4.61883544921875,51.92413330078125
1663862564097542000,9.7925419921875,-21.0968017578125,-4.46624755859375,52.532958984375
1663862564117500400,9.81250048828125,-23.49853515625,-2.79541015625,52.99530029296875
1663862564137520000,9.83252001953125,-24.8779296875,-3.10516357421875,52.68707275390625
1663862564157509000,9.852509033203125,-27.5787353515625,-1.13525390625,52.5421142578125
1663862564177498000,9.872498046875,-31.52618408203125,-0.390625,51.7791748046875
1663862564197487000,9.892487060546875,-31.95648193359375,0.823974609375,51.78375244140625
1663862564217476000,9.91247607421875,-34.68780517578125,1.42822265625,51.93634033203125
1663862564237465000,9.932465087890625,-38.03253173828125,1.87225341796875,51.47857666015625
1663862564257454000,9.9524541015625,-38.6383056640625,2.02789306640625,51.934814453125
1663862564277443000,9.972443115234375,-42.13409423828125,2.47955322265625,52.39105224609375
1663862564297432000,9.99243212890625,-42.8985595703125,2.4658203125,50.86517333984375
1663862564317390600,10.012390625,-44.73876953125,2.01263427734375,51.62353515625
1663862564337410000,10.03241015625,-47.0184326171875,2.313232421875,51.77459716796875
1663862564357399000,10.05239892578125,-47.61810302734375,2.7618408203125,51.16729736328125
1663862564377388300,10.07238818359375,-50.83770751953125,2.0050048828125,52.37884521484375
1663862564397377300,10.092377197265625,-51.73797607421875,2.61993408203125,53.29437255859375
1663862564417366300,10.1123662109375,-54.01763916015625,2.9144287109375,52.83660888671875
1663862564437355300,10.132355224609375,-53.094482421875,3.23486328125,54.51507568359375
1663862564457588500,10.15258837890625,-55.26275634765625,1.71661376953125,55.267333984375
1663862564477485800,10.17248583984375,-52.36053466796875,2.01416015625,53.74908447265625
1663862564497322200,10.192322265625,-52.06298828125,1.71051025390625,53.74755859375
1663862564517341700,10.212341796875,-51.28173828125,2.4810791015625,54.8187255859375
1663862564537300200,10.23230029296875,-51.7120361328125,3.692626953125,54.3670654296875
1663862564557289200,10.252289306640625,-52.3162841796875,3.857421875,56.04400634765625
1663862564577278200,10.2722783203125,-52.3193359375,3.8421630859375,54.2144775390625
1663862564597328400,10.292328369140625,-51.7425537109375,2.33154296875,55.12237548828125
1663862564617256400,10.31225634765625,-53.4149169921875,2.4871826171875,56.03485107421875
1663862564637276000,10.33227587890625,-53.39813232421875,3.240966796875,55.2764892578125
1663862564657234400,10.352234375,-55.2398681640625,2.77252197265625,54.205322265625
1663862564677223400,10.372223388671875,-55.3985595703125,2.60467529296875,52.52838134765625
1663862564697243000,10.392242919921875,-56.93817138671875,1.85394287109375,53.89556884765625
1663862564717231900,10.41223193359375,-59.2681884765625,0.01220703125,52.3590087890625
1663862564737220900,10.432220947265625,-60.31341552734375,0.933837890625,53.73382568359375
1663862564757179400,10.452179443359375,-61.99493408203125,0.78277587890625,54.34112548828125
1663862564777168400,10.47216845703125,-61.87744140625,-0.7476806640625,52.96173095703125
1663862564797188000,10.49218798828125,-61.39678955078125,0.3082275390625,51.9012451171875
1663862564817146400,10.512146484375,-60.47821044921875,0.4669189453125,52.51312255859375
1663862564837135600,10.532135498046875,-62.286376953125,1.51214599609375,50.6866455078125
1663862564857124600,10.55212451171875,-61.12060546875,-0.78277587890625,48.69537353515625
1663862564877479700,10.572479736328125,-59.8602294921875,1.02996826171875,47.02911376953125
1663862564897102600,10.5921025390625,-59.2437744140625,1.336669921875,47.18475341796875
1663862564917091600,10.612091552734375,-59.564208984375,0.58441162109375,48.24676513671875
1663862564937080600,10.63208056640625,-58.66546630859375,-0.1556396484375,50.225830078125
1663862564957069600,10.652069580078125,-61.09619140625,0.2777099609375,48.24371337890625
1663862564977058600,10.67205859375,-61.0931396484375,0.29754638671875,50.52947998046875
1663862564997047600,10.692047607421875,-60.15167236328125,1.5167236328125,50.689697265625
1663862565017036500,10.71203662109375,-61.5386962890625,0.76446533203125,52.05535888671875
1663862565037025500,10.732025634765625,-59.41619873046875,0.177001953125,53.88336181640625
1663862565057014500,10.7520146484375,-61.97967529296875,1.52740478515625,52.51617431640625
1663862565077003800,10.772003662109375,-64.28680419921875,0.6103515625,52.35595703125
1663862565096992800,10.79199267578125,-64.93072509765625,-0.90789794921875,52.80609130859375
1663862565116981800,10.811981689453125,-67.041015625,0.16021728515625,53.875732421875
1663862565136970800,10.831970703125,-68.76678466796875,-2.1026611328125,56.30035400390625
1663862565156959700,10.851959716796875,-70.6024169921875,-2.52685546875,60.41107177734375
1663862565176948700,10.87194873046875,-70.0164794921875,-3.70941162109375,64.21661376953125
1663862565196937700,10.891937744140625,-71.30584716796875,-7.1319580078125,73.18878173828125
1663862565216926700,10.9119267578125,-71.9573974609375,-9.07745361328125,76.98974609375
1663862565236915700,10.931915771484375,-74.8016357421875,-13.616943359375,80.010986328125
1663862565256874200,10.951874267578125,-78.24859619140625,-17.72003173828125,80.902099609375
1663862565276893700,10.971893798828125,-78.10516357421875,-24.98321533203125,84.6771240234375
1663862565296882700,10.991882568359374,-75.13275146484375,-35.39886474609375,92.24853515625
1663862565316872000,11.011871826171875,-73.5321044921875,-45.5596923828125,94.48699951171875
1663862565337105000,11.03210498046875,-75.2227783203125,-52.72979736328125,91.55426025390625
1663862565357002500,11.05200244140625,-76.89361572265625,-58.99810791015625,87.55950927734375
1663862565376869400,11.071869384765625,-76.092529296875,-63.885498046875,84.4879150390625
1663862565396828000,11.091827880859375,-75.10833740234375,-67.54150390625,83.251953125
1663862565416817000,11.11181689453125,-73.65264892578125,-70.4498291015625,80.3436279296875
1663862565436806000,11.131805908203125,-72.430419921875,-70.3125,78.36456298828125
1663862565456795000,11.151794921875,-74.74365234375,-71.51947021484375,80.0323486328125
1663862565476783900,11.171783935546875,-77.60162353515625,-69.7113037109375,78.8177490234375
1663862565496772900,11.19177294921875,-81.61163330078125,-65.0115966796875,78.53240966796875
1663862565516761900,11.211761962890625,-83.92181396484375,-59.2437744140625,78.253173828125
1663862565536750800,11.231750732421874,-85.75897216796875,-52.8717041015625,77.3681640625
1663862565556740000,11.251739990234375,-88.6627197265625,-46.484375,78.61480712890625
1663862565576698400,11.271698486328125,-87.1490478515625,-40.24658203125,78.9520263671875
1663862565596718000,11.291718017578125,-85.9832763671875,-35.9832763671875,79.736328125
1663862565616707000,11.31170703125,-85.4522705078125,-32.64923095703125,78.38134765625
1663862565636696000,11.331696044921875,-86.9293212890625,-30.535888671875,77.17132568359375
1663862565656685000,11.35168505859375,-88.55743408203125,-28.1463623046875,72.60894775390625
1663862565676674000,11.371674072265625,-89.03961181640625,-29.09393310546875,68.48907470703125
1663862565696663000,11.3916630859375,-89.971923828125,-29.730224609375,65.28472900390625
1663862565716652000,11.411652099609375,-90.66925048828125,-33.29010009765625,57.79876708984375
1663862565736641000,11.43164111328125,-90.57464599609375,-35.6170654296875,52.1484375
1663862565756630000,11.451630126953125,-91.68548583984375,-37.45880126953125,50.30975341796875
1663862565776619000,11.471618896484374,-89.2913818359375,-39.43634033203125,49.38812255859375
1663862565796608300,11.491608154296875,-90.0970458984375,-41.2750244140625,47.8546142578125
1663862565816597200,11.51159716796875,-88.629150390625,-43.84613037109375,48.9105224609375
1663862565836586200,11.531586181640625,-90.78216552734375,-44.48394775390625,45.855712890625
1663862565856575200,11.5515751953125,-86.7584228515625,-48.4619140625,41.7266845703125
1663862565876564200,11.571564208984375,-89.093017578125,-50.5859375,42.78106689453125
1663862565896553200,11.59155322265625,-85.36224365234375,-54.0863037109375,41.24298095703125
1663862565916542200,11.611542236328125,-85.7086181640625,-55.9112548828125,41.23382568359375
1663862565936531200,11.63153125,-82.879638671875,-58.81195068359375,38.9373779296875
1663862565956520200,11.651520263671875,-82.78656005859375,-61.53564453125,40.29541015625
1663862565976509200,11.67150927734375,-83.10699462890625,-62.2802734375,42.120361328125
1663862565996498200,11.691498291015625,-82.82623291015625,-63.34381103515625,42.11578369140625
1663862566016487400,11.7114873046875,-83.90045166015625,-63.6444091796875,42.7215576171875
1663862566036476400,11.731476318359375,-81.7230224609375,-61.80572509765625,43.95294189453125
1663862566056465400,11.75146533203125,-82.5042724609375,-62.57781982421875,42.72918701171875
1663862566076445000,11.77144482421875,-82.68280029296875,-63.79241943359375,43.0267333984375
1663862566096434000,11.791433837890626,-82.8460693359375,-64.373779296875,46.0723876953125
1663862566116423200,11.811423095703125,-82.72247314453125,-65.5914306640625,45.9136962890625
1663862566136420400,11.83142041015625,-83.18634033203125,-65.89813232421875,45.75958251953125
1663862566156409300,11.851409423828125,-82.0343017578125,-68.9239501953125,46.96502685546875
1663862566176398300,11.8713984375,-80.4931640625,-68.170166015625,45.904541015625
1663862566196387600,11.8913876953125,-80.7891845703125,-67.72918701171875,44.2291259765625
1663862566216620500,11.91162060546875,-80.50384521484375,-68.62945556640625,45.44525146484375
1663862566237128400,11.93212841796875,-81.7047119140625,-67.8558349609375,47.42889404296875
1663862566256385000,11.951385009765625,-81.37054443359375,-66.50543212890625,45.30181884765625
1663862566276526600,11.971526611328125,-81.87103271484375,-68.33648681640625,44.52972412109375
1663862566296332500,11.99133251953125,-79.7210693359375,-67.724609375,44.53582763671875
1663862566316291000,12.011291015625,-81.884765625,-69.07958984375,46.50726318359375
1663862566336280000,12.031280029296875,-81.268310546875,-68.6431884765625,44.07196044921875
1663862566356299500,12.051299560546875,-81.8389892578125,-66.96929931640625,44.537353515625
1663862566376288500,12.07128857421875,-82.0037841796875,-67.43316650390625,43.62030029296875
1663862566396277500,12.091277587890625,-83.1787109375,-65.4632568359375,43.17169189453125
1663862566416266500,12.1112666015625,-82.1136474609375,-65.47393798828125,41.64886474609375
1663862566436255700,12.131255859375,-84.04998779296875,-63.494873046875,42.57049560546875
1663862566456214000,12.151214111328125,-86.42578125,-60.75286865234375,43.95294189453125
1663862566476203000,12.171203125,-86.58294677734375,-60.919189453125,42.27447509765625
1663862566496222700,12.19122265625,-88.1927490234375,-57.8948974609375,40.91644287109375
1663862566516242200,12.2112421875,-88.16680908203125,-56.817626953125,42.44537353515625
1663862566536200700,12.23120068359375,-88.7664794921875,-56.3629150390625,42.4468994140625
1663862566556189700,12.251189697265625,-88.74359130859375,-55.3009033203125,42.1478271484375
1663862566576178700,12.2711787109375,-89.6484375,-54.8492431640625,41.84417724609375
1663862566596167700,12.291167724609375,-89.7705078125,-53.49273681640625,40.631103515625
1663862566616156700,12.31115673828125,-88.22479248046875,-52.569580078125,41.552734375
1663862566636878000,12.331878173828125,-89.43328857421875,-52.1148681640625,41.705322265625
1663862566656134700,12.351134765625,-88.63525390625,-50.58135986328125,43.2373046875
1663862566676124000,12.3711240234375,-88.671875,-52.11334228515625,41.70684814453125
1663862566696113000,12.39111279296875,-89.1448974609375,-52.8656005859375,42.76885986328125
1663862566716102000,12.411101806640625,-92.3126220703125,-51.3580322265625,42.1630859375
1663862566736091000,12.4310908203125,-88.63525390625,-50.57830810546875,43.54248046875
1663862566756049400,12.45104931640625,-90.03753662109375,-51.94854736328125,43.68743896484375
1663862566776068900,12.47106884765625,-91.7236328125,-52.25982666015625,43.07403564453125
1663862566796057900,12.491057861328125,-90.17791748046875,-51.35345458984375,42.1661376953125
1663862566816046800,12.511046875,-90.34271240234375,-51.94854736328125,43.6859130859375
1663862566836005400,12.53100537109375,-92.61016845703125,-51.04522705078125,43.231201171875
1663862566856024800,12.55102490234375,-91.10565185546875,-51.9500732421875,43.6859130859375
1663862566876013800,12.571013916015625,-90.30914306640625,-50.43182373046875,43.389892578125
1663862566896002800,12.5910029296875,-92.00439453125,-51.33209228515625,45.0592041015625
1663862566915992000,12.610991943359375,-90.18096923828125,-51.62353515625,46.1273193359375
1663862566936011500,12.631011474609375,-90.08331298828125,-54.05426025390625,46.2677001953125
1663862566955970000,12.650969970703125,-91.28265380859375,-53.13873291015625,46.87957763671875
1663862566975928600,12.670928466796875,-89.62554931640625,-54.04205322265625,47.48687744140625
1663862566995948000,12.690947998046875,-90.41900634765625,-55.41534423828125,47.02301025390625
1663862567015937000,12.71093701171875,-90.75164794921875,-56.62841796875,47.47314453125
1663862567035926000,12.730926025390625,-89.67132568359375,-56.15234375,49.61090087890625
1663862567055915000,12.7509150390625,-89.22882080078125,-56.77337646484375,47.930908203125
1663862567075904000,12.770904052734375,-90.49835205078125,-59.039306640625,49.8992919921875
1663862567096137200,12.79113720703125,-91.39404296875,-58.13751220703125,48.98834228515625
1663862567116034600,12.81103466796875,-89.61334228515625,-60.394287109375,51.2664794921875
1663862567135871000,12.83087109375,-89.3157958984375,-60.70404052734375,50.5035400390625
1663862567155860200,12.850860107421875,-89.794921875,-61.62109375,49.88861083984375
1663862567175849200,12.87084912109375,-89.6453857421875,-61.773681640625,49.7344970703125
1663862567195838200,12.890838134765625,-88.24920654296875,-60.70404052734375,50.19989013671875
1663862567215827200,12.9108271484375,-88.56964111328125,-61.44866943359375,52.0233154296875
1663862567235816200,12.930816162109375,-89.752197265625,-59.78546142578125,51.42059326171875
1663862567255805200,12.95080517578125,-88.5345458984375,-59.92889404296875,52.03094482421875
1663862567275794200,12.970794189453125,-88.5772705078125,-61.75994873046875,51.2603759765625
1663862567295783200,12.990783203125,-89.6453857421875,-61.767578125,50.4974365234375
1663862567315772200,13.010772216796875,-89.3402099609375,-61.767578125,50.4974365234375
1663862567335761200,13.03076123046875,-88.41552734375,-61.31134033203125,50.347900390625
1663862567355719700,13.0507197265625,-88.72528076171875,-61.60430908203125,51.7181396484375
1663862567375739400,13.070739501953126,-87.98065185546875,-62.36419677734375,51.409912109375
1663862567395728400,13.090728271484375,-88.2659912109375,-61.4593505859375,50.8056640625
1663862567415717400,13.11071728515625,-88.54522705078125,-60.3912353515625,51.2664794921875
1663862567435706400,13.130706298828125,-87.481689453125,-60.41107177734375,48.67706298828125
1663862567455695400,13.1506953125,-88.71002197265625,-60.8551025390625,50.3509521484375
1663862567475684400,13.170684326171875,-88.8336181640625,-59.63897705078125,50.50811767578125
1663862567495643000,13.190642822265625,-88.23089599609375,-59.93804931640625,50.81329345703125
1663862567515662300,13.210662353515625,-88.52691650390625,-59.625244140625,52.032470703125
1663862567535651300,13.2306513671875,-88.69476318359375,-60.2386474609375,51.42059326171875
1663862567555640300,13.250640380859375,-90.48919677734375,-58.721923828125,51.4251708984375
1663862567575629300,13.27062939453125,-88.82598876953125,-59.32159423828125,52.03399658203125
1663862567595587800,13.290587890625,-90.20843505859375,-59.77630615234375,52.4871826171875
1663862567615607600,13.310607666015626,-91.55120849609375,-58.42742919921875,50.66375732421875
1663862567635596500,13.330596435546875,-89.74456787109375,-59.48028564453125,51.422119140625
1663862567655585500,13.35058544921875,-90.3411865234375,-58.87908935546875,50.8148193359375
1663862567675574500,13.370574462890625,-90.49530029296875,-59.01336669921875,52.947998046875
1663862567695563500,13.3905634765625,-89.89410400390625,-59.33685302734375,50.50811767578125
1663862567715552500,13.410552490234375,-89.2730712890625,-58.86993408203125,51.57928466796875
1663862567735541500,13.43054150390625,-91.11480712890625,-59.33685302734375,50.811767578125
1663862567755530500,13.450530517578125,-91.09649658203125,-58.5723876953125,51.2725830078125
1663862567775519500,13.47051953125,-89.77813720703125,-60.8642578125,49.58648681640625
1663862567795478000,13.49047802734375,-90.655517578125,-59.3292236328125,51.57470703125
1663862567815497500,13.51049755859375,-89.74609375,-59.48944091796875,50.35552978515625
1663862567835486500,13.530486572265625,-89.2822265625,-59.320068359375,52.33917236328125
1663862567855475700,13.550475830078126,-88.5498046875,-60.67352294921875,53.85589599609375
1663862567875464700,13.570464599609375,-88.39569091796875,-60.53619384765625,52.18048095703125
1663862567895453700,13.59045361328125,-89.2730712890625,-58.86688232421875,52.0355224609375
1663862567915442700,13.610442626953125,-90.17791748046875,-58.4197998046875,51.123046875
1663862567935431700,13.630431640625,-89.42108154296875,-58.71429443359375,52.18963623046875
1663862567955420700,13.650420654296875,-88.7603759765625,-56.30950927734375,48.6968994140625
1663862567975745300,13.670745361328125,-90.77301025390625,-57.6812744140625,48.84033203125
1663862567995520800,13.690520751953125,-90.2557373046875,-54.95452880859375,47.6348876953125
1663862568015387600,13.7103876953125,-92.54608154296875,-55.11322021484375,47.479248046875
1663862568035376600,13.730376708984375,-91.13311767578125,-53.2958984375,46.26922607421875
1663862568055365600,13.75036572265625,-89.788818359375,-54.5135498046875,45.80841064453125
1663862568075354600,13.770354736328125,-90.6951904296875,-54.06341552734375,45.1995849609375
1663862568095343900,13.79034375,-91.00189208984375,-54.21142578125,45.80841064453125
1663862568115332900,13.810332763671875,-89.61029052734375,-53.3050537109375,44.9005126953125
1663862568135321900,13.83032177734375,-90.38238525390625,-53.759765625,45.20111083984375
1663862568155310800,13.850310791015625,-89.6087646484375,-53.289794921875,46.728515625
1663862568175299800,13.8702998046875,-90.0604248046875,-52.99224853515625,45.96710205078125
1663862568195288800,13.890288818359375,-90.07720947265625,-53.75823974609375,45.20263671875
1663862568215277800,13.91027783203125,-88.70086669921875,-53.466796875,43.52874755859375
1663862568235266800,13.930266845703125,-91.75567626953125,-53.76434326171875,44.89593505859375
1663862568255255800,13.950255859375,-89.459228515625,-53.4454345703125,46.1181640625
1663862568275244800,13.970244873046875,-90.3900146484375,-54.06341552734375,45.1995849609375
1663862568295203300,13.990203369140625,-91.28875732421875,-53.4454345703125,46.57440185546875
1663862568315222800,14.010222900390625,-90.5426025390625,-54.19464111328125,47.637939453125
1663862568335212000,14.0302119140625,-91.7388916015625,-53.00445556640625,44.89898681640625
1663862568355201000,14.050200927734375,-90.2557373046875,-54.96368408203125,46.5667724609375
1663862568375190000,14.07018994140625,-89.178466796875,-54.50592041015625,46.57135009765625
1663862568395179000,14.090178955078125,-90.521240234375,-53.14483642578125,46.11968994140625
1663862568415168000,14.11016796875,-89.83001708984375,-56.33087158203125,46.5606689453125
1663862568435157000,14.130156982421875,-89.63165283203125,-54.35028076171875,47.02911376953125
1663862568455146000,14.15014599609375,-89.47601318359375,-54.193115234375,47.63946533203125
1663862568475135000,14.170135009765625,-90.5670166015625,-55.25970458984375,47.6318359375
1663862568495124000,14.1901240234375,-90.38848876953125,-54.04815673828125,47.02911376953125
1663862568515113000,14.210113037109375,-90.5609130859375,-54.96368408203125,46.5667724609375
1663862568535102000,14.23010205078125,-89.5172119140625,-56.0211181640625,47.17254638671875
1663862568555091200,14.25009130859375,-88.92974853515625,-56.94732666015625,45.1873779296875
1663862568575080200,14.270080078125,-89.24713134765625,-57.53936767578125,47.1649169921875
1663862568595069200,14.290069091796875,-89.251708984375,-57.82470703125,49.45068359375
1663862568615058200,14.31005810546875,-87.73651123046875,-58.14666748046875,46.8597412109375
1663862568635047200,14.330047119140625,-87.884521484375,-57.99407958984375,47.0123291015625
1663862568655036200,14.3500361328125,-86.98883056640625,-58.8897705078125,48.68621826171875
1663862568675025200,14.370025146484375,-90.36712646484375,-59.9578857421875,48.980712890625
1663862568695014100,14.39001416015625,-88.812255859375,-58.587646484375,48.9898681640625
1663862568715003100,14.410003173828125,-87.29095458984375,-58.746337890625,47.772216796875
1663862568734992100,14.4299921875,-90.35491943359375,-59.3597412109375,47.91717529296875
1663862568754981000,14.449981201171875,-88.3575439453125,-58.734130859375,49.59869384765625
1663862568774970000,14.46997021484375,-89.41802978515625,-58.441162109375,48.5321044921875
1663862568794959400,14.48995947265625,-88.52386474609375,-59.34906005859375,48.681640625
1663862568814917600,14.509917724609375,-88.9434814453125,-57.67974853515625,48.53668212890625
1663862568834937300,14.529937255859375,-88.39111328125,-60.25390625,49.591064453125
1663862568855262000,14.550261962890625,-89.27001953125,-58.5906982421875,48.6846923828125
1663862568875037400,14.570037353515625,-89.21051025390625,-56.00738525390625,48.6968994140625
1663862568894904300,14.589904296875,-88.6383056640625,-57.67059326171875,49.60479736328125
1663862568914893300,14.609893310546875,-90.7806396484375,-57.99102783203125,48.07586669921875
1663862568934882300,14.62988232421875,-91.0491943359375,-56.32171630859375,47.930908203125
1663862568954871300,14.649871337890625,-89.83001708984375,-56.32781982421875,46.8658447265625
1663862568974860300,14.6698603515625,-88.7725830078125,-56.7840576171875,46.5606689453125
1663862568994818800,14.68981884765625,-90.3289794921875,-58.15887451171875,46.09527587890625
1663862569014838300,14.70983837890625,-88.153076171875,-56.32476806640625,46.86737060546875
1663862569034827500,14.72982763671875,-90.14892578125,-56.93511962890625,47.015380859375
1663862569054816500,14.74981640625,-90.594482421875,-56.3446044921875,45.03631591796875
1663862569074805500,14.769805419921875,-89.3707275390625,-56.195068359375,44.42901611328125
1663862569094794500,14.78979443359375,-89.2242431640625,-56.3568115234375,43.20831298828125
1663862569114753000,14.8097529296875,-90.1336669921875,-56.19049072265625,45.1904296875
1663862569134772500,14.8297724609375,-89.3402099609375,-54.82330322265625,44.89288330078125
1663862569154761500,14.849761474609375,-87.82958984375,-55.4351806640625,44.12994384765625
1663862569174750500,14.86975048828125,-90.29998779296875,-56.8084716796875,43.96820068359375
1663862569194739500,14.889739501953125,-89.35394287109375,-55.4290771484375,45.19500732421875
1663862569214728400,14.909728515625,-90.24200439453125,-54.22210693359375,44.28558349609375
1663862569234717400,14.929717529296875,-89.67742919921875,-56.20574951171875,43.36090087890625
1663862569254706400,14.94970654296875,-91.26739501953125,-52.398681640625,44.598388671875
1663862569274695700,14.96969580078125,-91.1590576171875,-54.37164306640625,44.89288330078125
1663862569294684700,14.9896845703125,-91.314697265625,-54.522705078125,45.0439453125
1663862569314673700,15.009673583984375,-88.28125,-55.1361083984375,43.6737060546875
1663862569334662700,15.02966259765625,-90.20233154296875,-52.41241455078125,42.7703857421875
1663862569354651600,15.049651611328125,-89.62249755859375,-53.77960205078125,42.6116943359375
1663862569374640600,15.069640625,-90.2374267578125,-53.936767578125,42.15240478515625
1663862569394629600,15.089629638671875,-89.28985595703125,-52.55889892578125,43.0755615234375
1663862569414588200,15.109588134765625,-89.48822021484375,-54.541015625,42.4560546875
1663862569434607600,15.129607666015625,-89.3341064453125,-54.39910888671875,41.23687744140625
1663862569454596600,15.1495966796875,-88.39569091796875,-53.47137451171875,42.767333984375
1663862569474585600,15.169585693359375,-90.36865234375,-53.02734375,41.851806640625
1663862569494574600,15.18957470703125,-88.3544921875,-51.6448974609375,43.23272705078125
1663862569514563800,15.209563720703125,-89.7705078125,-53.49273681640625,40.631103515625
1663862569534552800,15.229552734375,-89.4744873046875,-53.93524169921875,42.1539306640625
1663862569554541800,15.249541748046875,-90.533447265625,-53.4912109375,40.936279296875
1663862569574530800,15.26953076171875,-89.14337158203125,-52.8594970703125,43.53179931640625
1663862569594519800,15.289519775390625,-86.590576171875,-54.52880859375,43.22052001953125
1663862569614508800,15.3095087890625,-88.71307373046875,-53.94439697265625,40.93475341796875
1663862569634467300,15.32946728515625,-88.19427490234375,-51.20391845703125,41.253662109375
1663862569654486800,15.34948681640625,-89.7613525390625,-53.16619873046875,43.22357177734375
1663862569674475800,15.369475830078125,-89.63775634765625,-54.39910888671875,41.23687744140625
1663862569694464800,15.38946484375,-87.18414306640625,-53.7841796875,41.54815673828125
1663862569714423300,15.40942333984375,-88.43231201171875,-55.00335693359375,41.387939453125
1663862569734778600,15.429778564453125,-89.17083740234375,-53.94439697265625,40.93475341796875
1663862569754553900,15.449553955078125,-88.38958740234375,-53.167724609375,42.76885986328125
1663862569774421000,15.4694208984375,-89.60723876953125,-53.02886962890625,41.54815673828125
1663862569794410000,15.489409912109375,-87.65716552734375,-54.534912109375,42.76275634765625
1663862569814399000,15.50939892578125,-90.55633544921875,-54.54559326171875,42.14935302734375
1663862569834388000,15.529387939453125,-89.47906494140625,-54.2236328125,43.98193359375
1663862569854377000,15.549376953125,-88.25836181640625,-54.08935546875,41.54510498046875
1663862569874366000,15.569365966796875,-87.79449462890625,-53.7872314453125,41.241455078125
1663862569894355000,15.58935498046875,-88.25225830078125,-53.78265380859375,41.851806640625
1663862569914313500,15.6093134765625,-88.2354736328125,-53.02886962890625,41.2445068359375
1663862569934333000,15.6293330078125,-88.372802734375,-52.41241455078125,42.1630859375
1663862569954322000,15.649322021484375,-88.873291015625,-54.38232421875,43.06640625
1663862569974311200,15.669311279296876,-88.702392578125,-53.4881591796875,40.93780517578125
1663862569994300200,15.689300048828125,-88.27667236328125,-54.8492431640625,41.54052734375
1663862570014289200,15.7092890625,-87.80059814453125,-54.08172607421875,42.30804443359375
1663862570034278100,15.729278076171875,-88.5711669921875,-54.3975830078125,41.2384033203125
1663862570054267100,15.74926708984375,-87.80670166015625,-54.38385009765625,42.61016845703125
1663862570074225700,15.7692255859375,-88.4124755859375,-54.22821044921875,43.22052001953125
1663862570094245000,15.7892451171875,-87.80059814453125,-54.08172607421875,42.30804443359375
1663862570114234000,15.809234130859375,-87.32147216796875,-53.16162109375,43.22662353515625
1663862570134192600,15.829192626953125,-86.58599853515625,-54.24346923828125,40.936279296875
1663862570154212000,15.849212158203125,-87.51220703125,-54.84161376953125,42.303466796875
1663862570174201000,15.869201171875,-88.6962890625,-53.18603515625,40.6341552734375
1663862570194190000,15.889190185546875,-87.65106201171875,-54.2266845703125,43.22052001953125
1663862570214179300,15.909179443359376,-87.83111572265625,-55.450439453125,42.3004150390625
1663862570234168300,15.929168212890625,-88.116455078125,-54.547119140625,41.3909912109375
1663862570254157300,15.9491572265625,-89.48211669921875,-54.24346923828125,41.69464111328125
1663862570274115800,15.96911572265625,-88.87481689453125,-54.39300537109375,41.84722900390625
1663862570294135300,15.98913525390625,-88.43231201171875,-55.00030517578125,41.693115234375
1663862570314124300,16.009124267578127,-87.82501220703125,-55.14373779296875,42.60711669921875
1663862570334082800,16.029082763671877,-88.41400146484375,-54.23431396484375,42.45758056640625
1663862570354071800,16.04907177734375,-89.6514892578125,-55.13153076171875,44.43359375
1663862570374091300,16.06909130859375,-87.82958984375,-55.4351806640625,44.12994384765625
1663862570394080300,16.089080322265627,-87.40386962890625,-56.80999755859375,43.20831298828125
1663862570414069200,16.1090693359375,-88.49334716796875,-57.8582763671875,45.33538818359375
1663862570434058200,16.129058349609377,-86.5081787109375,-57.70263671875,45.1873779296875
1663862570454047500,16.149047607421874,-87.29248046875,-58.75244140625,47.00927734375
1663862570474036500,16.169036376953127,-86.97509765625,-58.15887451171875,45.3369140625
1663862570494025500,16.189025390625,-87.00714111328125,-59.65728759765625,47.92022705078125
1663862570514014500,16.209014404296877,-86.8927001953125,-61.3311767578125,47.454833984375
1663862570534003500,16.22900341796875,-86.7919921875,-63.60321044921875,48.358154296875
1663862570553992400,16.248992431640627,-85.96343994140625,-60.7147216796875,48.3734130859375
1663862570573981400,16.2689814453125,-87.07275390625,-62.54425048828125,47.90496826171875
1663862570593970400,16.288970458984377,-86.95831298828125,-64.21051025390625,48.5076904296875
1663862570614295300,16.30929541015625,-87.80364990234375,-61.1785888671875,47.91107177734375
1663862570634040000,16.3290400390625,-86.4593505859375,-62.5213623046875,50.4974365234375
1663862570653937400,16.3489375,-86.13739013671875,-61.62872314453125,48.06365966796875
