time,seconds_elapsed,z,y,x
1663861875010980000,0.19697998046875,9.114608764648438,2.943572998046875,-0.8179168701171875
1663861875020928800,0.2069287109375,9.753860473632812,2.9100494384765625,-0.6287689208984375
1663861875030816500,0.21681640625,10.227920532226562,2.637115478515625,-0.1954193115234375
1663861875040673800,0.226673828125,10.309326171875,2.2636260986328125,0.2810211181640625
1663861875050561500,0.2365615234375,9.55035400390625,2.0265960693359375,0.0152587890625
1663861875060449300,0.24644921875,9.267837524414062,2.1798248291015625,-0.7029876708984375
1663861875070306300,0.256306396484375,9.430648803710938,2.330657958984375,-1.227325439453125
1663861875080194000,0.266194091796875,9.725128173828125,2.330657958984375,-0.592864990234375
1663861875090081800,0.276081787109375,10.400299072265625,2.2492523193359375,-0.03741455078125
1663861875099969500,0.285969482421875,10.819290161132812,2.1486968994140625,0.1277923583984375
1663861875109857000,0.29585693359375,10.160873413085938,2.11517333984375,0.13018798828125
1663861875119744800,0.305744873046875,9.109832763671875,2.0265960693359375,-0.2145843505859375
1663861875129602000,0.31560205078125,8.267059326171875,1.84942626953125,-0.719757080078125
1663861875139459000,0.325458984375,7.44586181640625,0.8390655517578125,-2.125152587890625
1663861875149346800,0.335346923828125,7.1082763671875,0.5541534423828125,-2.716522216796875
1663861875159204000,0.3452041015625,8.010879516601562,1.1718597412109375,-2.2592315673828125
1663861875169091800,0.355091796875,8.599853515625,1.782379150390625,-1.66546630859375
1663861875179010000,0.365010009765625,9.662887573242188,2.1558837890625,-1.1722564697265625
1663861875188867000,0.3748671875,10.821685791015625,2.500640869140625,-0.4635772705078125
1663861875198754800,0.3847548828125,11.245452880859375,2.6227569580078125,0.304962158203125
1663861875208642600,0.394642578125,10.704360961914062,2.572479248046875,0.9250640869140625
1663861875218499600,0.40449951171875,9.667678833007812,2.4120635986328125,0.68084716796875
1663861875228387300,0.41438720703125,8.195236206054688,2.17742919921875,-0.6287689208984375
1663861875238305500,0.424305419921875,7.5392303466796875,1.9212493896484375,-2.21612548828125
1663861875248193300,0.434193359375,8.731536865234375,1.368194580078125,-2.694976806640625
1663861875258050600,0.444050537109375,9.868789672851562,0.9659576416015625,-2.2568359375
1663861875267938000,0.45393798828125,10.802520751953125,1.030609130859375,-1.3829498291015625
1663861875277825800,0.46382568359375,10.915054321289062,1.4998626708984375,-0.9496002197265625
1663861875287713500,0.473713623046875,10.239883422851562,1.993072509765625,-0.69342041015625
1663861875297601300,0.483601318359375,9.540786743164062,2.3162994384765625,-0.298370361328125
1663861875307489000,0.493489013671875,9.610214233398438,2.3785400390625,0.041595458984375
1663861875317376800,0.503376708984375,10.333267211914062,2.373748779296875,0.3025665283203125
1663861875327264300,0.51326416015625,10.400299072265625,2.32586669921875,0.812530517578125
1663861875337152000,0.523152099609375,10.340438842773438,2.6443023681640625,1.32489013671875
1663861875347039700,0.533039794921875,10.713943481445312,3.166229248046875,1.4158782958984375
1663861875356897000,0.54289697265625,9.832870483398438,3.0896148681640625,1.3799591064453125
1663861875366784500,0.552784423828125,8.911102294921875,2.900482177734375,0.3241119384765625
1663861875376672300,0.56267236328125,8.154541015625,2.63232421875,-0.74609375
1663861875386560000,0.57256005859375,8.444244384765625,2.361785888671875,-1.63433837890625
1663861875396447700,0.58244775390625,8.233551025390625,2.4024810791015625,-1.3925323486328125
1663861875406335500,0.59233544921875,7.8025970458984375,2.773590087890625,-0.1092376708984375
1663861875416223000,0.602222900390625,8.302978515625,2.881317138671875,0.6976165771484375
1663861875426110700,0.61211083984375,8.681259155273438,3.0968017578125,1.0782928466796875
1663861875435998500,0.62199853515625,8.9158935546875,3.788726806640625,1.0639190673828125
1663861875445886200,0.63188623046875,8.223968505859375,3.6785888671875,0.7024078369140625
1663861875455743200,0.6417431640625,7.4123382568359375,3.4272003173828125,-0.0254364013671875
1663861875465631000,0.651630859375,6.8425140380859375,3.0776519775390625,-0.7125701904296875
1663861875475518700,0.661518798828125,7.52008056640625,2.7783660888671875,-0.877777099609375
1663861875485406500,0.671406494140625,9.471343994140625,2.8094940185546875,-0.7173614501953125
1663861875495294200,0.681294189453125,10.54156494140625,2.9363861083984375,-0.1571197509765625
1663861875505181700,0.691181640625,10.287765502929688,2.953155517578125,0.4965057373046875
1663861875515039000,0.7010390625,9.44500732421875,2.996246337890625,0.4294586181640625
1663861875524926700,0.7109267578125,8.389175415039062,3.2763671875,0.0368194580078125
1663861875534814500,0.720814453125,7.7140045166015625,3.2883453369140625,-0.013458251953125
1663861875544702200,0.7307021484375,7.4386749267578125,3.338623046875,0.283416748046875
1663861875554589700,0.740589599609375,7.80499267578125,3.2524261474609375,0.6401519775390625
1663861875564477400,0.7504775390625,8.602249145507812,3.0297698974609375,0.367218017578125
1663861875574365200,0.760365234375,9.339675903320312,3.058502197265625,0.4366455078125
1663861875584222500,0.770222412109375,10.455368041992188,2.89569091796875,0.48931884765625
1663861875594110000,0.78010986328125,10.6373291015625,2.881317138671875,0.66888427734375
1663861875603997700,0.789997802734375,9.409103393554688,3.4224090576171875,1.11181640625
1663861875613885400,0.799885498046875,8.010879516601562,3.6546478271484375,1.3272857666015625
1663861875623773200,0.809773193359375,7.510498046875,3.6378936767578125,1.21954345703125
1663861875633661000,0.819660888671875,7.64697265625,3.3817138671875,0.769439697265625
1663861875643518000,0.82951806640625,8.053985595703125,2.9603271484375,0.3863677978515625
1663861875653405700,0.83940576171875,8.698028564453125,2.773590087890625,0.4222869873046875
1663861875663293400,0.84929345703125,8.901535034179688,2.5509185791015625,0.257080078125
1663861875673181200,0.85918115234375,8.243118286132812,2.627532958984375,0.5108642578125
1663861875683068700,0.869068603515625,6.4402923583984375,3.0968017578125,1.4374237060546875
1663861875692956400,0.878956298828125,3.78033447265625,3.4631195068359375,1.8659820556640625
1663861875702844200,0.88884423828125,1.6016082763671875,3.1470794677734375,1.7079620361328125
1663861875712701400,0.898701416015625,0.457183837890625,1.7847747802734375,2.6105804443359375
1663861875722589000,0.9085888671875,1.022216796875,-0.4346466064453125,4.561859130859375
1663861875732492800,0.918492919921875,2.9064483642578125,-1.9142608642578125,4.7462005615234375
1663861875742350000,0.92835009765625,4.2543792724609375,-2.0938262939453125,3.5036163330078125
1663861875752207400,0.938207275390625,4.484222412109375,-1.9932708740234375,1.32489013671875
1663861875762125600,0.94812548828125,4.989410400390625,-2.6756134033203125,-0.6168060302734375
1663861875772013000,0.958012939453125,5.1761474609375,-3.7889251708984375,0.1397705078125
1663861875781900800,0.96790087890625,5.2455902099609375,-3.6476593017578125,2.735076904296875
1663861875791788500,0.97778857421875,4.17059326171875,-2.9437713623046875,3.9154205322265625
1663861875801676300,0.98767626953125,1.156280517578125,-2.481689453125,4.001617431640625
1663861875811564000,0.99756396484375,-2.4613494873046875,-1.842437744140625,4.901824951171875
1663861875821451500,1.007451416015625,-4.31207275390625,-1.5814666748046875,5.629669189453125
1663861875831339300,1.01733935546875,-3.483673095703125,-2.8815155029296875,3.2474365234375
1663861875841196500,1.027196533203125,-1.1014404296875,-5.752166748046875,-1.0142364501953125
1663861875851084300,1.037084228515625,0.47393798828125,-8.780838012695312,-3.3150634765625
1663861875860971800,1.0469716796875,1.1323394775390625,-9.910888671875,-2.431610107421875
1663861875870859500,1.056859619140625,0.78997802734375,-9.654708862304688,0.1182098388671875
1663861875880747300,1.066747314453125,0.53619384765625,-9.345870971679688,4.7725372314453125
1663861875890604500,1.0766044921875,0.141143798828125,-8.416915893554688,9.232940673828125
1663861875900461600,1.086461669921875,0.2273406982421875,-6.97320556640625,11.5194091796875
1663861875910349300,1.096349365234375,0.600830078125,-6.3459320068359375,12.199356079101562
1663861875920237000,1.106237060546875,1.05572509765625,-6.4752197265625,12.845794677734375
1663861875930124800,1.116124755859375,2.0828399658203125,-6.89898681640625,13.530532836914062
1663861875940012500,1.126012451171875,4.1155242919921875,-7.4137420654296875,15.0484619140625
1663861875949900000,1.135900146484375,5.54486083984375,-7.083343505859375,17.227188110351562
1663861875959787800,1.145787841796875,5.5376739501953125,-6.4369049072265625,18.520050048828125
1663861875969675500,1.155675537109375,4.9343414306640625,-6.3267822265625,18.625396728515625
1663861875979563300,1.165563232421875,3.81146240234375,-5.804840087890625,18.965377807617188
1663861875989420300,1.175420166015625,2.4563446044921875,-4.92138671875,19.346054077148438
1663861875999277600,1.185277587890625,1.6494903564453125,-3.733856201171875,20.107406616210938
1663861876009165300,1.195165283203125,0.363800048828125,-2.4314117431640625,21.031570434570312
1663861876019053000,1.205052978515625,-1.053558349609375,-1.5838623046875,22.006011962890625
1663861876028940500,1.2149404296875,-2.221923828125,-1.0140380859375,22.42498779296875
1663861876038828300,1.224828369140625,-1.6521148681640625,-0.279022216796875,23.10015869140625
1663861876048716000,1.234716064453125,-0.165313720703125,0.0609588623046875,22.906234741210938
1663861876058603800,1.244603759765625,0.933624267578125,0.3793792724609375,22.848770141601562
1663861876068460800,1.254460693359375,0.670257568359375,1.406494140625,23.03790283203125
1663861876078379000,1.26437890625,-1.0391998291015625,2.4384002685546875,21.927001953125
1663861876088236300,1.274236328125,-3.2897491455078125,3.04412841796875,20.241485595703125
1663861876098124000,1.2841240234375,-4.824432373046875,3.43438720703125,18.290206909179688
1663861876108011800,1.29401171875,-4.8220367431640625,3.5421295166015625,15.96783447265625
1663861876117899300,1.303899169921875,-4.106170654296875,3.4702911376953125,14.248794555664062
1663861876127787000,1.313787109375,-3.3160858154296875,3.47747802734375,12.867340087890625
1663861876137674800,1.3236748046875,-3.124542236328125,3.3003082275390625,11.162673950195312
1663861876147562500,1.3335625,-3.8978729248046875,3.0034332275390625,9.659103393554688
1663861876157450200,1.3434501953125,-4.561065673828125,2.1175689697265625,7.7054443359375
1663861876167337700,1.353337646484375,-4.4676971435546875,0.8271026611328125,5.945709228515625
1663861876177225500,1.3632255859375,-2.90667724609375,-0.003692626953125,4.92816162109375
1663861876187113200,1.37311328125,-0.4861297607421875,-0.427459716796875,4.49481201171875
1663861876197001000,1.3830009765625,-0.2323455810546875,-1.3899383544921875,5.227447509765625
1663861876206858200,1.392858154296875,0.2440948486328125,-3.8224334716796875,5.691925048828125
1663861876216745700,1.402745849609375,-3.1413116455078125,-7.1958770751953125,5.6799468994140625
1663861876226603000,1.41260302734375,-8.7293701171875,-8.788009643554688,5.5219268798828125
1663861876236490800,1.42249072265625,-12.301513671875,-6.2357940673828125,4.3224334716796875
1663861876246347800,1.43234765625,-12.698959350585938,0.6595001220703125,-0.4061126708984375
1663861876256235500,1.442235595703125,-3.706329345703125,0.6116180419921875,0.99688720703125
1663861876266153700,1.45215380859375,-3.610565185546875,-6.142425537109375,6.01513671875
1663861876276011000,1.462010986328125,10.919845581054688,-2.9126434326171875,4.50439453125
1663861876285898800,1.471898681640625,20.451156616210938,-11.172637939453125,21.994033813476562
1663861876295786200,1.4817861328125,17.561355590820312,-11.316299438476562,18.924667358398438
1663861876305674000,1.491674072265625,10.783370971679688,-4.3659210205078125,10.67425537109375
1663861876315561700,1.501561767578125,-12.947952270507812,-2.9892578125,8.485946655273438
1663861876325449500,1.511449462890625,-13.256805419921875,-4.114532470703125,8.574539184570312
1663861876335337200,1.521337158203125,-1.316925048828125,-6.19989013671875,12.158660888671875
1663861876345224700,1.531224609375,-0.957794189453125,-8.325927734375,11.473907470703125
1663861876355112400,1.541112548828125,0.054962158203125,-8.565353393554688,7.8036041259765625
1663861876365000200,1.551000244140625,1.134735107421875,-10.009063720703125,4.74859619140625
1663861876374888000,1.560887939453125,-1.12298583984375,-12.321853637695312,1.6696624755859375
1663861876384775700,1.570775634765625,0.0477752685546875,-12.597183227539062,4.1069488525390625
1663861876394632700,1.5806328125,0.667877197265625,-12.0537109375,11.215347290039062
1663861876404490000,1.590489990234375,-1.628173828125,-9.252487182617188,12.146682739257812
1663861876414377700,1.600377685546875,-0.3424835205078125,-6.681121826171875,8.114852905273438
1663861876424265500,1.610265380859375,-0.2993927001953125,-8.730560302734375,5.4357452392578125
1663861876434153000,1.620153076171875,-0.8404693603515625,-10.080886840820312,4.320037841796875
1663861876444040700,1.630040771484375,-2.3560028076171875,-10.559722900390625,4.880279541015625
1663861876453928400,1.639928466796875,-0.6800689697265625,-8.211013793945312,6.654388427734375
1663861876463816200,1.649816162109375,-3.155670166015625,-8.45281982421875,6.4149627685546875
1663861876473704000,1.659703857421875,-2.839630126953125,-9.092071533203125,4.6456451416015625
1663861876483591400,1.66959130859375,-0.9027252197265625,-9.901321411132812,1.7558441162109375
1663861876493479200,1.679479248046875,0.308746337890625,-9.633163452148438,2.2825775146484375
1663861876503367000,1.689366943359375,0.394927978515625,-10.770416259765625,4.04949951171875
1663861876513254700,1.699254638671875,-2.9641265869140625,-10.054550170898438,6.3096160888671875
1663861876523142400,1.709142333984375,-1.4486083984375,-8.728164672851562,7.9927520751953125
1663861876533030000,1.71902978515625,0.0525665283203125,-11.436004638671875,5.4117889404296875
1663861876542887200,1.72888720703125,0.224945068359375,-12.379318237304688,3.4892578125
1663861876552775000,1.73877490234375,-5.2338409423828125,-8.141586303710938,7.3558807373046875
1663861876562662700,1.74866259765625,0.4763336181640625,-3.5734405517578125,8.689453125
1663861876572550100,1.758550048828125,2.212127685546875,-2.022003173828125,3.9848480224609375
1663861876582438000,1.76843798828125,-0.25628662109375,-5.9676513671875,-1.91925048828125
1663861876592325600,1.77832568359375,0.3278961181640625,-9.214187622070312,2.8069000244140625
1663861876602213400,1.78821337890625,0.3494415283203125,-9.345870971679688,4.9521026611328125
1663861876612070400,1.7980703125,-0.524444580078125,-9.20220947265625,4.3918609619140625
1663861876621958100,1.807958251953125,-1.644927978515625,-7.4185333251953125,4.5905914306640625
1663861876631846000,1.817845947265625,-2.4565582275390625,-4.7298431396484375,4.06146240234375
1663861876641733600,1.827733642578125,-0.8979339599609375,-4.1600189208984375,3.1061859130859375
1663861876651621400,1.837621337890625,-0.2969970703125,-3.1975555419921875,2.723114013671875
1663861876661509000,1.847509033203125,-1.254669189453125,-4.4976043701171875,1.3416595458984375
1663861876671396600,1.857396728515625,-0.9242706298828125,-5.024322509765625,1.0112457275390625
1663861876681254000,1.86725390625,0.0381927490234375,-5.66119384765625,2.0551300048828125
1663861876691141600,1.8771416015625,-0.36163330078125,-6.3890228271484375,2.830841064453125
1663861876701029400,1.887029296875,-2.2506561279296875,-6.5111236572265625,2.3256683349609375
1663861876710916900,1.896916748046875,0.24169921875,-8.16552734375,1.7438812255859375
1663861876720804600,1.9068046875,-0.1365814208984375,-8.87420654296875,1.8803558349609375
1663861876730692400,1.9166923828125,-0.5483856201171875,-8.191864013671875,3.0391387939453125
1663861876740549600,1.926549560546875,1.4244384765625,-7.657958984375,4.054290771484375
1663861876750437000,1.93643701171875,0.155517578125,-8.555770874023438,3.1588592529296875
1663861876760324900,1.946324951171875,-0.84765625,-9.953994750976562,2.6728363037109375
1663861876770212600,1.956212646484375,-2.5666961669921875,-11.823867797851562,2.723114013671875
1663861876780100400,1.966100341796875,-3.55072021484375,-12.19256591796875,1.3488311767578125
1663861876789988000,1.975988037109375,-0.9027252197265625,-11.1558837890625,0.7933807373046875
1663861876799845000,1.98584521484375,2.2241058349609375,-9.798370361328125,1.17645263671875
1663861876809732900,1.99573291015625,1.01263427734375,-11.577255249023438,2.8595733642578125
1663861876819620600,2.00562060546875,-1.307342529296875,-15.81500244140625,2.64410400390625
1663861876829508400,2.01550830078125,-1.3360748291015625,-18.941818237304688,2.131744384765625
1663861876839395800,2.025395751953125,-1.8077392578125,-19.870773315429688,2.1197662353515625
1663861876849283600,2.03528369140625,-2.425445556640625,-19.2171630859375,2.7398681640625
1663861876859171300,2.04517138671875,-3.2897491455078125,-17.36883544921875,3.9273834228515625
1663861876869028600,2.055028564453125,-2.3488311767578125,-14.036102294921875,3.3934783935546875
1663861876878916000,2.064916015625,-1.5515594482421875,-11.787948608398438,1.55712890625
1663861876888773400,2.0747734375,-0.177276611328125,-10.265243530273438,0.7047882080078125
1663861876898661000,2.0846611328125,0.65350341796875,-10.260452270507812,-0.4851226806640625
1663861876908548900,2.094548828125,0.1435394287109375,-12.929977416992188,-2.35260009765625
1663861876918436600,2.1044365234375,-0.42388916015625,-12.501419067382812,-1.8067169189453125
1663861876928324000,2.114323974609375,-0.2682647705078125,-9.78399658203125,0.1325836181640625
1663861876938211800,2.1242119140625,-0.1940460205078125,-9.44403076171875,0.1517333984375
1663861876948069000,2.134069091796875,0.1746673583984375,-9.874984741210938,-0.762847900390625
1663861876957956900,2.143956787109375,0.584075927734375,-9.384170532226562,-0.106842041015625
1663861876967814000,2.15381396484375,-0.3424835205078125,-9.11602783203125,0.843658447265625
1663861876977732000,2.163732177734375,-1.233123779296875,-9.695419311523438,1.4278411865234375
1663861876987589400,2.17358935546875,-0.7494964599609375,-10.897308349609375,2.03118896484375
1663861876997477000,2.18347705078125,2.8226470947265625,-8.735336303710938,4.3128509521484375
1663861877007364600,2.193364501953125,3.95989990234375,-6.776885986328125,4.7725372314453125
1663861877017222000,2.203221923828125,4.3645172119140625,-6.597320556640625,2.61297607421875
1663861877027140000,2.21314013671875,2.106781005859375,-7.8040008544921875,0.6497344970703125
1663861877037027800,2.22302783203125,-0.9721527099609375,-8.550994873046875,-0.6527099609375
1663861877046915600,2.23291552734375,-3.483673095703125,-9.843856811523438,-2.1131744384765625
1663861877056803000,2.242802978515625,-5.7150726318359375,-11.8118896484375,-3.4371795654296875
1663861877066660400,2.252660400390625,-4.1684112548828125,-12.094406127929688,-3.149871826171875
1663861877076548000,2.262548095703125,1.8649749755859375,-11.23968505859375,-1.3087310791015625
1663861877086435800,2.272435791015625,4.177764892578125,-10.806320190429688,1.1836395263671875
1663861877096323300,2.2823232421875,4.1729888916015625,-10.593246459960938,2.4214324951171875
1663861877106211000,2.292211181640625,2.899261474609375,-10.044967651367188,2.0024566650390625
1663861877116098800,2.302098876953125,-0.1365814208984375,-9.35064697265625,0.7024078369140625
1663861877125986600,2.311986572265625,-3.34002685546875,-8.845474243164062,-0.2097930908203125
1663861877135874300,2.321874267578125,-3.8619537353515625,-8.519866943359375,-1.7899627685546875
1663861877145762000,2.331761962890625,-2.3248748779296875,-7.8040008544921875,-1.385345458984375
1663861877155649500,2.3416494140625,-2.4182586669921875,-7.885406494140625,-1.143524169921875
1663861877165537300,2.351537353515625,-2.415863037109375,-8.512680053710938,-1.8737640380859375
1663861877175425000,2.361425048828125,-1.429443359375,-8.457611083984375,-2.2257080078125
1663861877185312800,2.371312744140625,1.027008056640625,-8.924484252929688,-3.6382904052734375
1663861877195169800,2.381169677734375,1.79315185546875,-9.829498291015625,-5.623077392578125
1663861877205057500,2.3910576171875,1.00067138671875,-10.023422241210938,-5.9486846923828125
1663861877214914800,2.400914794921875,1.048553466796875,-9.98272705078125,-5.44830322265625
1663861877224802600,2.410802490234375,0.9575653076171875,-9.894134521484375,-4.23443603515625
1663861877234690000,2.42068994140625,0.837860107421875,-9.767242431640625,-3.1331024169921875
1663861877244547300,2.43054736328125,0.797149658203125,-10.981109619140625,-4.2440185546875
1663861877254435000,2.44043505859375,0.2800140380859375,-10.0904541015625,-5.6733551025390625
1663861877264322800,2.45032275390625,0.62237548828125,-4.3659210205078125,-3.985443115234375
1663861877274210300,2.460210205078125,-1.549163818359375,-5.857513427734375,-2.369354248046875
1663861877284098000,2.47009814453125,-3.356781005859375,-6.7313995361328125,-5.0915679931640625
1663861877293955300,2.479955322265625,-4.381500244140625,-7.9237060546875,-8.33331298828125
1663861877303873500,2.48987353515625,-4.3144683837890625,-12.9515380859375,-8.989334106445312
1663861877313761300,2.49976123046875,-4.496429443359375,-14.783096313476562,-3.5161895751953125
1663861877323648800,2.509648681640625,-1.4773406982421875,-15.49896240234375,-0.15472412109375
1663861877333506000,2.519506103515625,2.3509979248046875,-14.8956298828125,-0.963958740234375
1663861877343363300,2.52936328125,2.396484375,-11.831039428710938,-3.3174591064453125
1663861877353250800,2.539250732421875,1.2879638671875,-9.1806640625,-6.5927276611328125
1663861877363169300,2.549169189453125,-1.273834228515625,-9.537399291992188,-7.8760223388671875
1663861877373056800,2.559056884765625,7.9127197265625,-8.098480224609375,1.5379791259765625
1663861877382944500,2.568944580078125,-9.801971435546875,-6.7840728759765625,-5.4626617431640625
1663861877392801800,2.5788017578125,-9.287216186523438,-13.25799560546875,-10.112213134765625
1663861877402658800,2.588658935546875,-2.494873046875,-15.360092163085938,-7.01171875
1663861877412577000,2.598576904296875,-2.47332763671875,-13.655426025390625,-2.63751220703125
1663861877422434300,2.608434326171875,-2.394317626953125,-14.658599853515625,-3.1115570068359375
1663861877432352500,2.6183525390625,-3.658447265625,-12.082443237304688,-0.6335601806640625
1663861877442240300,2.628240234375,-4.697540283203125,-10.830276489257812,0.4773406982421875
1663861877452128000,2.6381279296875,0.5242156982421875,-10.272415161132812,-1.0286102294921875
1663861877462015500,2.648015380859375,8.358047485351562,-10.404098510742188,-2.1658477783203125
1663861877471903200,2.6579033203125,-0.5938720703125,-10.947586059570312,-0.6958160400390625
1663861877481760500,2.667760498046875,-2.437408447265625,-10.938003540039062,-1.639129638671875
1663861877491648300,2.677648193359375,-1.32171630859375,-10.858993530273438,-1.766021728515625
1663861877501505300,2.68750537109375,-0.34967041015625,-10.202987670898438,-1.406890869140625
1663861877511393000,2.69739306640625,0.09326171875,-9.760055541992188,-1.4308319091796875
1663861877521280800,2.70728076171875,0.246490478515625,-10.155105590820312,-1.52899169921875
1663861877531168500,2.71716845703125,0.236907958984375,-10.54296875,-1.4332275390625
1663861877541056000,2.727055908203125,-0.2060089111328125,-10.265243530273438,-1.069305419921875
1663861877550943700,2.73694384765625,-0.7423095703125,-9.865402221679688,-0.762847900390625
1663861877560801000,2.746801025390625,-0.905120849609375,-9.240524291992188,-0.91607666015625
1663861877570719200,2.75671923828125,-0.905120849609375,-8.414520263671875,-1.830657958984375
1663861877580607000,2.76660693359375,-1.096649169921875,-7.454437255859375,-3.109161376953125
1663861877590494700,2.77649462890625,-1.328887939453125,-7.21502685546875,-3.65264892578125
1663861877600382200,2.78638232421875,-1.7646331787109375,-8.39776611328125,-3.456329345703125
1663861877610270000,2.79627001953125,-2.8468170166015625,-9.362625122070312,-3.3773193359375
1663861877620157700,2.80615771484375,-4.118133544921875,-9.4775390625,-4.0141754150390625
1663861877630045400,2.81604541015625,-4.201934814453125,-7.9859619140625,-2.9104461669921875
1663861877639902500,2.82590234375,-2.7510528564453125,-6.480010986328125,-1.3518218994140625
1663861877649790200,2.835790283203125,-1.0439910888671875,-4.5454864501953125,0.0176544189453125
1663861877659678000,2.845677978515625,0.172271728515625,-3.470489501953125,0.0391998291015625
1663861877669565700,2.855565673828125,-0.20361328125,-4.01397705078125,-1.70855712890625
1663861877679453400,2.865453369140625,-2.236297607421875,-6.1184844970703125,-4.208099365234375
1663861877689325300,2.8753251953125,-4.391082763671875,-7.9787750244140625,-5.2615509033203125
1663861877699213000,2.885213134765625,-5.1763763427734375,-9.132781982421875,-5.2304229736328125
1663861877709070300,2.8950703125,-5.1332855224609375,-10.418472290039062,-5.316619873046875
1663861877718958000,2.9049580078125,-5.5785980224609375,-11.687393188476562,-5.1849365234375
1663861877728845800,2.914845703125,-4.6927490234375,-12.182998657226562,-4.9383392333984375
1663861877738733300,2.9247333984375,-3.59381103515625,-13.202926635742188,-4.6701812744140625
1663861877748590600,2.934590576171875,-3.20355224609375,-15.374465942382812,-4.35894775390625
1663861877758478300,2.944478271484375,-3.2155303955078125,-17.806976318359375,-4.078826904296875
1663861877768335400,2.95433544921875,-3.0335693359375,-19.020828247070312,-4.217681884765625
1663861877778192600,2.964192626953125,-3.3639678955078125,-17.2108154296875,-3.942352294921875
1663861877788080400,2.974080322265625,-4.6113433837890625,-13.454315185546875,-2.220916748046875
1663861877797968100,2.983968017578125,-4.675994873046875,-10.35382080078125,-1.31829833984375
1663861877807855600,2.993855712890625,-2.4972686767578125,-8.340301513671875,-1.2560577392578125
1663861877817743400,3.003743408203125,0.8402557373046875,-6.7098541259765625,-1.3206939697265625
1663861877827631000,3.013631103515625,3.1698150634765625,-5.3212127685546875,-1.62237548828125
1663861877837518800,3.023518798828125,2.5999908447265625,-4.16241455078125,-1.6199798583984375
1663861877847406600,3.033406494140625,0.0214385986328125,-4.0858001708984375,-1.459564208984375
1663861877857263600,3.043263671875,-2.109405517578125,-5.129669189453125,-0.477935791015625
1663861877867181800,3.053181884765625,-2.130950927734375,-6.5781707763671875,1.0639190673828125
1663861877877069600,3.063069580078125,-0.8907623291015625,-9.23333740234375,1.71514892578125
1663861877886957300,3.072957275390625,-0.03363037109375,-11.682601928710938,1.53558349609375
1663861877896845000,3.082844970703125,-0.328125,-13.51177978515625,0.19244384765625
1663861877906732500,3.092732666015625,-1.1253814697265625,-14.28271484375,-0.7915802001953125
1663861877916589800,3.10258984375,-1.707183837890625,-13.502197265625,-0.731719970703125
1663861877926477600,3.1124775390625,-2.056732177734375,-12.597183227539062,-1.2129669189453125
1663861877936365300,3.122365234375,-1.3719940185546875,-11.881317138671875,-2.146697998046875
1663861877946252800,3.132252685546875,-0.43585205078125,-11.057723999023438,-3.1115570068359375
1663861877956140500,3.142140625,-0.2227783203125,-10.193405151367188,-4.33978271484375
1663861877965997800,3.151997802734375,-1.0296173095703125,-9.259674072265625,-5.1873321533203125
1663861877975885600,3.161885498046875,-1.5994415283203125,-8.2086181640625,-5.2783203125
1663861877985773300,3.171773193359375,-1.86041259765625,-7.179107666015625,-5.15380859375
1663861877995660800,3.181660888671875,-1.4581756591796875,-6.2788848876953125,-4.69891357421875
1663861878005518000,3.19151806640625,-1.0559539794921875,-5.8311767578125,-3.8968658447265625
1663861878015405800,3.20140576171875,-1.5898590087890625,-5.8934326171875,-3.022979736328125
1663861878025293600,3.21129345703125,-2.643310546875,-6.53985595703125,-2.14190673828125
1663861878035181000,3.22118115234375,-3.2586212158203125,-7.5190887451171875,-1.23211669921875
1663861878045068800,3.23106884765625,-3.53155517578125,-8.754501342773438,-0.3797760009765625
1663861878054956500,3.24095654296875,-3.1939697265625,-10.02581787109375,-0.0637359619140625
1663861878064813800,3.250813720703125,-3.96490478515625,-10.633941650390625,-0.4468231201171875
1663861878074701300,3.260701416015625,-4.010406494140625,-10.791961669921875,-0.9878997802734375
1663861878084589000,3.270589111328125,-3.325653076171875,-10.250869750976562,-0.94720458984375
1663861878094476800,3.280476806640625,-2.257843017578125,-9.376983642578125,-0.82989501953125
1663861878104364500,3.290364501953125,-2.5882415771484375,-8.337905883789062,-0.9926910400390625
1663861878114221600,3.3002216796875,-3.620147705078125,-7.1934814453125,-1.46435546875
1663861878124109300,3.310109375,-3.5531005859375,-6.501556396484375,-2.2137298583984375
1663861878133997000,3.3199970703125,-3.239471435546875,-5.910186767578125,-3.1115570068359375
1663861878143884800,3.329884765625,-3.423828125,-4.959686279296875,-3.774749755859375
1663861878153772500,3.3397724609375,-4.9034423828125,-4.3922576904296875,-4.126708984375
1663861878163629600,3.349629638671875,-4.6280975341796875,-4.104949951171875,-4.0979766845703125
1663861878173517300,3.359517333984375,-3.768585205078125,-3.7147064208984375,-3.595184326171875
1663861878183405000,3.369405029296875,-5.1859588623046875,-3.93017578125,-2.5513153076171875
1663861878193292800,3.379292724609375,-5.585784912109375,-4.796875,-1.354217529296875
1663861878203180500,3.3891806640625,-7.192291259765625,-5.1201019287109375,-1.6199798583984375
1663861878213068000,3.399068115234375,-7.6016998291015625,-4.294097900390625,-2.0533294677734375
1663861878222955800,3.408955810546875,-7.6974639892578125,-2.8480072021484375,-2.970306396484375
1663861878232843500,3.418843505859375,-8.2218017578125,-1.5766754150390625,-4.29669189453125
1663861878242700800,3.42870068359375,-7.9297027587890625,-1.7610321044921875,-5.2232513427734375
1663861878252619000,3.438618896484375,-8.683883666992188,-2.8719482421875,-5.105926513671875
1663861878262476000,3.44847607421875,-8.4444580078125,-3.51837158203125,-3.4850616455078125
1663861878272363800,3.45836376953125,-8.841903686523438,-3.4297943115234375,-1.00946044921875
1663861878282251500,3.46825146484375,-9.387771606445312,-2.9461669921875,0.2451019287109375
1663861878292139300,3.47813916015625,-8.643173217773438,-1.92144775390625,-0.4300537109375
1663861878302026800,3.48802685546875,-9.809158325195312,-1.1313629150390625,-2.4723052978515625
1663861878311884000,3.497884033203125,-10.285598754882812,-0.331695556640625,-4.8138427734375
1663861878321802200,3.50780224609375,-8.42291259765625,-1.21514892578125,-4.7970733642578125
1663861878331690000,3.51768994140625,-7.48199462890625,-2.519989013671875,-4.1099395751953125
1663861878341577700,3.52757763671875,-9.675079345703125,-2.6923828125,-3.837005615234375
1663861878351465200,3.53746533203125,-10.115615844726562,-2.3476104736328125,-4.9000244140625
1663861878361322500,3.547322509765625,-9.931259155273438,-1.6125946044921875,-5.876861572265625
1663861878371179800,3.5571796875,-11.343841552734375,-0.9039154052734375,-5.8361663818359375
1663861878381098000,3.567097900390625,-10.94879150390625,-0.6429443359375,-4.440338134765625
1663861878390955000,3.576955078125,-10.783599853515625,-0.2550811767578125,-3.667022705078125
1663861878400873200,3.586873291015625,-10.951187133789062,0.4464263916015625,-3.6694183349609375
1663861878410761000,3.596760986328125,-11.2432861328125,1.4495849609375,-3.793914794921875
1663861878420648700,3.606648681640625,-11.80352783203125,1.875762939453125,-4.165008544921875
1663861878430536400,3.616536376953125,-11.248077392578125,2.20855712890625,-4.998199462890625
1663861878440424200,3.626424072265625,-10.781204223632812,2.5222015380859375,-5.19451904296875
1663861878450311700,3.636311767578125,-10.496292114257812,3.123138427734375,-6.17852783203125
1663861878460199400,3.646199462890625,-10.57769775390625,3.810272216796875,-6.4442901611328125
1663861878470087200,3.656087158203125,-11.353424072265625,3.858154296875,-5.860107421875
1663861878479944400,3.6659443359375,-12.358978271484375,4.020965576171875,-5.9199676513671875
1663861878489832000,3.67583203125,-12.265609741210938,4.0353240966796875,-4.919189453125
1663861878499719700,3.6857197265625,-12.31109619140625,4.4686737060546875,-5.443511962890625
1663861878509607400,3.695607421875,-12.294342041015625,4.77752685546875,-5.2615509033203125
1663861878519464700,3.705464599609375,-12.203353881835938,5.004974365234375,-4.9335479736328125
1663861878529352200,3.715352294921875,-12.378128051757812,5.045684814453125,-5.13226318359375
1663861878539240000,3.725239990234375,-12.224899291992188,4.930755615234375,-5.0771942138671875
1663861878549127700,3.735127685546875,-12.186599731445312,5.1151123046875,-5.0484771728515625
1663861878559015400,3.745015380859375,-12.876129150390625,5.4598846435546875,-5.1346588134765625
1663861878568903200,3.754903076171875,-12.612762451171875,5.6562042236328125,-4.9766387939453125
1663861878578760200,3.76476025390625,-12.5433349609375,5.7208404541015625,-4.8689117431640625
1663861878588648000,3.77464794921875,-12.663040161132812,5.66339111328125,-4.7851104736328125
1663861878598535700,3.78453564453125,-12.466720581054688,5.649017333984375,-4.8329925537109375
1663861878608423400,3.79442333984375,-12.572067260742188,5.7088775634765625,-4.7635650634765625
1663861878618280400,3.804280517578125,-12.239273071289062,5.7783050537109375,-4.818634033203125
1663861878628168200,3.814168212890625,-12.248855590820312,5.7711181640625,-4.7515869140625
1663861878638056000,3.824055908203125,-12.49066162109375,5.5125579833984375,-4.8377838134765625
1663861878647913000,3.833912841796875,-12.2464599609375,5.447906494140625,-4.9742584228515625
1663861878657831200,3.8438310546875,-11.875350952148438,5.194122314453125,-5.019744873046875
1663861878667688400,3.8536884765625,-11.726913452148438,4.983428955078125,-5.3333740234375
1663861878677545700,3.863545654296875,-11.554534912109375,4.9858245849609375,-5.31182861328125
1663861878687433500,3.87343359375,-11.334259033203125,4.708099365234375,-4.95269775390625
1663861878697351700,3.8833515625,-11.193008422851562,4.4567108154296875,-4.7970733642578125
1663861878707208700,3.893208740234375,-11.22174072265625,4.3824920654296875,-4.713287353515625
1663861878717096400,3.903096435546875,-11.293563842773438,4.1358795166015625,-4.7491912841796875
1663861878726984200,3.912984130859375,-11.293563842773438,3.9563140869140625,-4.78271484375
1663861878736872000,3.922871826171875,-11.2552490234375,3.7504119873046875,-4.7899017333984375
1663861878746729000,3.93272900390625,-11.003860473632812,3.37213134765625,-4.904815673828125
1663861878756647200,3.942647216796875,-10.666275024414062,3.0345458984375,-4.97186279296875
1663861878766535000,3.952534912109375,-10.876968383789062,2.5916290283203125,-5.13226318359375
1663861878776422700,3.962422607421875,-10.912887573242188,2.1103973388671875,-5.273529052734375
1663861878786310400,3.972310302734375,-10.841064453125,1.6794281005859375,-5.1921234130859375
1663861878796198000,3.982197998046875,-10.78839111328125,1.0928497314453125,-5.2184600830078125
1663861878806085600,3.992085693359375,-10.565719604492188,0.3937530517578125,-5.2878875732421875
1663861878815943000,4.00194287109375,-10.615997314453125,-0.26226806640625,-5.3333740234375
1663861878825800000,4.011800048828125,-10.718948364257812,-0.8656005859375,-5.316619873046875
1663861878835718100,4.02171826171875,-10.307144165039062,-1.4809112548828125,-5.1753692626953125
1663861878845606000,4.03160595703125,-10.115615844726562,-1.9932708740234375,-4.9239654541015625
1663861878855493600,4.04149365234375,-10.496292114257812,-2.402679443359375,-4.77313232421875
1663861878865351000,4.051350830078125,-10.252090454101562,-2.8072967529296875,-4.7108917236328125
1663861878875238400,4.06123828125,-9.833099365234375,-3.22149658203125,-4.4786529541015625
1663861878885095700,4.071095703125,-9.734939575195312,-3.4513397216796875,-4.2416229248046875
1663861878895014000,4.081013916015625,-9.809158325195312,-3.6428680419921875,-4.17938232421875
1663861878904901600,4.090901611328125,-10.216171264648438,-3.650054931640625,-4.2320556640625
1663861878914789400,4.100789306640625,-9.67987060546875,-3.5518951416015625,-4.239227294921875
1663861878924677000,4.110677001953125,-8.681488037109375,-3.44415283203125,-4.0141754150390625
1663861878934564600,4.120564697265625,-8.39178466796875,-3.4202117919921875,-3.9232025146484375
1663861878944452400,4.130452392578125,-7.76690673828125,-3.5614776611328125,-3.7771453857421875
1663861878954340000,4.140340087890625,-6.9672393798828125,-3.733856201171875,-3.5137939453125
1663861878964197400,4.150197265625,-6.7517547607421875,-3.9277801513671875,-3.3174591064453125
1663861878974054400,4.160054443359375,-6.50994873046875,-4.1696014404296875,-2.9798736572265625
1663861878983972600,4.16997265625,-6.3543243408203125,-4.437744140625,-2.7308807373046875
1663861878993830000,4.179829833984375,-6.308837890625,-4.6460418701171875,-2.5728607177734375
1663861879003717600,4.189717529296875,-5.490020751953125,-4.9620819091796875,-2.3909149169921875
1663861879013605000,4.199605224609375,-4.8292236328125,-5.2158660888671875,-2.1179656982421875
1663861879023492900,4.209492919921875,-4.867523193359375,-5.519927978515625,-1.98150634765625
1663861879033380600,4.219380615234375,-4.391082763671875,-5.7856903076171875,-1.9120635986328125
1663861879043238000,4.22923779296875,-3.6129608154296875,-5.9868011474609375,-1.7277069091796875
1663861879053125400,4.23912548828125,-3.1484832763671875,-6.1232757568359375,-1.4475860595703125
1663861879063013000,4.24901318359375,-3.124542236328125,-6.27410888671875,-1.3254852294921875
1663861879072900900,4.25890087890625,-3.177215576171875,-6.4105682373046875,-1.1818389892578125
1663861879082788600,4.26878857421875,-3.3017120361328125,-6.5494384765625,-1.1195831298828125
1663861879092676400,4.27867626953125,-2.954559326171875,-6.755340576171875,-0.9256591796875
1663861879102563800,4.288563720703125,-2.585845947265625,-6.934906005859375,-0.9256591796875
1663861879112451600,4.29845166015625,-2.5499420166015625,-6.93011474609375,-0.9711456298828125
1663861879122339300,4.30833935546875,-3.02398681640625,-6.80322265625,-0.911285400390625
1663861879132227000,4.31822705078125,-3.5171966552734375,-6.61407470703125,-1.057342529296875
1663861879142084400,4.32808447265625,-3.663238525390625,-6.49676513671875,-1.227325439453125
1663861879151971800,4.337971923828125,-3.0048370361328125,-6.14959716796875,-1.1171875
1663861879161859600,4.347859619140625,-1.702392578125,-5.7449798583984375,-1.02142333984375
1663861879171747300,4.357747314453125,-0.7064056396484375,-5.44091796875,-1.0334014892578125
1663861879181635000,4.367635009765625,0.00946044921875,-5.4217681884765625,-1.44281005859375
1663861879191522800,4.377522705078125,0.394927978515625,-5.7976531982421875,-2.2257080078125
1663861879201410300,4.387410400390625,0.25128173828125,-6.0993194580078125,-2.82904052734375
1663861879211298000,4.397298095703125,-0.0479888916015625,-6.5566253662109375,-3.39886474609375
1663861879221155300,4.4071552734375,-0.481353759765625,-7.4759979248046875,-4.3685150146484375
1663861879231043000,4.41704296875,-1.032012939453125,-8.689849853515625,-5.290283203125
1663861879240930600,4.4269306640625,-1.3312835693359375,-10.53338623046875,-6.14501953125
1663861879250818300,4.436818359375,-1.7454833984375,-11.967514038085938,-6.310211181640625
1663861879260706000,4.4467060546875,-1.8388519287109375,-13.061660766601562,-5.8912353515625
1663861879270593800,4.45659375,-1.2977752685546875,-14.004974365234375,-5.0388946533203125
1663861879280481500,4.4664814453125,-1.0344085693359375,-14.692123413085938,-3.99981689453125
1663861879290369000,4.476369140625,-1.0439910888671875,-14.416778564453125,-2.8625640869140625
1663861879300226300,4.486226318359375,-1.1828460693359375,-13.392059326171875,-2.17303466796875
1663861879310083600,4.49608349609375,-1.582672119140625,-12.147079467773438,-2.046142578125
1663861879319971000,4.50597119140625,-1.58746337890625,-11.141510009765625,-1.9743194580078125
1663861879329858800,4.51585888671875,-1.1182098388671875,-10.42803955078125,-1.6199798583984375
1663861879339746600,4.52574658203125,-0.2347412109375,-10.08807373046875,-1.2153472900390625
1663861879349634300,4.53563427734375,0.828277587890625,-9.910888671875,-0.846649169921875
1663861879359491300,4.5454912109375,1.7763824462890625,-9.90850830078125,-0.5425872802734375
1663861879369409800,4.555409912109375,2.2911376953125,-9.879776000976562,-0.2528839111328125
1663861879379297300,4.56529736328125,1.8170928955078125,-9.870193481445312,-0.1619110107421875
1663861879389185000,4.57518505859375,1.0940399169921875,-9.829498291015625,-0.47076416015625
1663861879399042300,4.585042236328125,0.9886932373046875,-9.683441162109375,-0.9017181396484375
1663861879408930000,4.594929931640625,1.175445556640625,-9.525436401367188,-1.2249298095703125
1663861879418817500,4.604817626953125,1.1203765869140625,-9.511062622070312,-1.6199798583984375
1663861879428705300,4.614705322265625,0.806732177734375,-9.60205078125,-2.0892333984375
1663861879438562600,4.6245625,0.6439208984375,-9.733718872070312,-2.422027587890625
1663861879448450300,4.6344501953125,0.679840087890625,-9.932449340820312,-2.60638427734375
1663861879458337800,4.644337890625,0.5697021484375,-10.188629150390625,-2.7883453369140625
1663861879468225500,4.6542255859375,0.3398590087890625,-10.480712890625,-2.9104461669921875
1663861879478082800,4.664082763671875,-0.038421630859375,-10.626754760742188,-2.8817138671875
1663861879487970600,4.673970458984375,0.0118560791015625,-10.6171875,-2.68060302734375
1663861879497888800,4.683888671875,0.4116973876953125,-10.519027709960938,-2.41485595703125
1663861879507776300,4.6937763671875,0.5337982177734375,-10.401702880859375,-2.1323394775390625
1663861879517633500,4.703633544921875,0.4452056884765625,-10.320297241210938,-2.02459716796875
1663861879527490800,4.71349072265625,0.299163818359375,-10.210174560546875,-2.0054473876953125
1663861879537409000,4.723408935546875,-0.1006622314453125,-10.12158203125,-1.9479827880859375
1663861879547266000,4.73326611328125,-0.625,-10.040176391601562,-1.75164794921875
1663861879557184300,4.743184326171875,-0.7710418701171875,-10.02581787109375,-1.46435546875
1663861879567072000,4.753072021484375,-0.8787841796875,-10.076095581054688,-1.31591796875
1663861879576929300,4.76292919921875,-1.084686279296875,-10.140731811523438,-1.2847900390625
1663861879586816800,4.772816650390625,-0.8189239501953125,-10.126373291015625,-1.41168212890625
1663861879596704500,4.78270458984375,-0.2275543212890625,-10.08807373046875,-1.651092529296875
1663861879606561800,4.792561767578125,-0.3688201904296875,-10.073699951171875,-1.902496337890625
1663861879616449500,4.802449462890625,-1.0344085693359375,-10.133560180664062,-2.0652923583984375
1663861879626337300,4.812337158203125,-1.34326171875,-10.186233520507812,-2.1395111083984375
1663861879636255500,4.82225537109375,-1.2379150390625,-10.176651000976562,-1.99346923828125
1663861879646143000,4.83214306640625,-0.8979339599609375,-10.095245361328125,-1.766021728515625
1663861879656030700,4.84203076171875,-0.61541748046875,-9.977935791015625,-1.639129638671875
1663861879665888000,4.851887939453125,-0.31854248046875,-9.903717041015625,-1.670257568359375
1663861879675775700,4.861775634765625,0.0621337890625,-9.891738891601562,-1.7995452880859375
1663861879685663200,4.871663330078125,0.1435394287109375,-9.92047119140625,-2.1012115478515625
1663861879695551000,4.881551025390625,-0.1485595703125,-9.882171630859375,-2.314300537109375
1663861879705408300,4.891408203125,-0.2275543212890625,-9.738510131835938,-2.400482177734375
1663861879715296000,4.9012958984375,-0.103057861328125,-9.707382202148438,-2.5297698974609375
1663861879725153000,4.911153076171875,-0.43585205078125,-9.819915771484375,-2.7452545166015625
1663861879735071200,4.9210712890625,-0.7279510498046875,-9.915679931640625,-2.886505126953125
1663861879744959000,4.930958984375,-0.6585235595703125,-9.8677978515625,-2.9631195068359375
1663861879754846700,4.9408466796875,-0.5076904296875,-9.863006591796875,-2.9990386962890625
1663861879764734500,4.950734375,-0.3784027099609375,-9.827102661132812,-2.9774932861328125
1663861879774591500,4.960591552734375,0.054962158203125,-9.733718872070312,-2.9415740966796875
1663861879784479200,4.970479248046875,-0.028839111328125,-9.60443115234375,-2.90325927734375
1663861879794367000,4.980366943359375,-0.88836669921875,-9.614013671875,-2.9727020263671875
1663861879804254700,4.990254638671875,-1.211578369140625,-9.649932861328125,-3.128326416015625
1663861879814111700,5.00011181640625,-0.8811798095703125,-9.62359619140625,-3.087615966796875
1663861879823999500,5.00999951171875,-0.4741668701171875,-9.439239501953125,-2.690185546875
1663861879833887200,5.01988720703125,-0.3161468505859375,-9.324310302734375,-2.14190673828125
1663861879843775000,5.02977490234375,-0.502899169921875,-9.345870971679688,-1.883331298828125
1663861879853662700,5.039662841796875,-1.48211669921875,-9.489517211914062,-2.1490936279296875
1663861879863519700,5.049519775390625,-2.717529296875,-9.60205078125,-2.7260894775390625
1663861879873438000,5.05943798828125,-3.2705841064453125,-9.558944702148438,-3.08282470703125
1663861879883325700,5.06932568359375,-2.8899078369140625,-9.357833862304688,-2.9942474365234375
1663861879893213400,5.07921337890625,-2.068695068359375,-8.9580078125,-2.5991973876953125
1663861879903101200,5.08910107421875,-2.2075653076171875,-8.543807983398438,-2.1850128173828125
1663861879912988700,5.09898876953125,-3.715911865234375,-8.268478393554688,-2.0605010986328125
1663861879922876400,5.10887646484375,-5.4301605224609375,-8.055389404296875,-2.125152587890625
1663861879932764200,5.11876416015625,-5.1189117431640625,-7.61724853515625,-2.0126190185546875
1663861879942652000,5.12865185546875,-2.91864013671875,-6.8463134765625,-2.010223388671875
1663861879952539600,5.13853955078125,-1.802947998046875,-6.015533447265625,-2.3190765380859375
1663861879962396700,5.148396728515625,-2.5762786865234375,-5.4792327880859375,-2.8074951171875
1663861879972284400,5.158284423828125,-4.063079833984375,-4.88067626953125,-3.0325469970703125
1663861879982172200,5.168172119140625,-4.6113433837890625,-4.3060760498046875,-3.20733642578125
1663861879992060000,5.178059814453125,-4.1875762939453125,-4.0211639404296875,-3.209716796875
1663861880001917000,5.1879169921875,-4.4198150634765625,-3.5949859619140625,-3.2528228759765625
1663861880011804700,5.1978046875,-5.935333251953125,-3.3723297119140625,-3.5592803955078125
1663861880021692400,5.2076923828125,-6.32080078125,-3.566253662109375,-3.5640716552734375
1663861880031580200,5.217580078125,-5.8252105712890625,-4.0283355712890625,-3.604766845703125
1663861880041467600,5.227467529296875,-6.399810791015625,-4.5287322998046875,-3.5449066162109375
1663861880051355400,5.23735546875,-7.8291473388671875,-5.3044586181640625,-3.2169036865234375
1663861880061243100,5.2472431640625,-8.748519897460938,-5.82159423828125,-2.8769378662109375
1663861880071131000,5.257130859375,-7.709442138671875,-5.5390777587890625,-2.3071136474609375
1663861880081018600,5.2670185546875,-7.41973876953125,-5.1799468994140625,-2.343017578125
1663861880090875600,5.276875732421875,-7.1515960693359375,-4.92138671875,-3.0157928466796875
1663861880100763400,5.286763427734375,-7.4293212890625,-4.0977783203125,-4.387664794921875
1663861880110651100,5.296651123046875,-9.5960693359375,-3.532745361328125,-6.1282501220703125
1663861880120539000,5.306538818359375,-9.581710815429688,-3.2095184326171875,-7.667724609375
1663861880130426600,5.316426513671875,-8.039840698242188,-3.247833251953125,-7.5049285888671875
1663861880140283600,5.32628369140625,-7.2090606689453125,-3.458526611328125,-6.79144287109375
1663861880150171400,5.33617138671875,-7.012725830078125,-3.470489501953125,-5.364501953125
1663861880160059100,5.34605908203125,-7.910552978515625,-3.1568450927734375,-4.564849853515625
1663861880169947000,5.35594677734375,-7.3263702392578125,-2.1105804443359375,-5.6494140625
1663861880179834400,5.36583447265625,-7.7238006591796875,-1.42584228515625,-6.6837158203125
1663861880189722000,5.37572216796875,-10.108428955078125,-1.1505126953125,-6.3748626708984375
1663861880199609900,5.38560986328125,-10.917678833007812,-0.4466094970703125,-4.979034423828125
1663861880209497600,5.39549755859375,-10.405319213867188,-0.554351806640625,-2.694976806640625
1663861880219354600,5.405354736328125,-10.754867553710938,-1.1121978759765625,-0.9615631103515625
1663861880229242400,5.415242431640625,-10.575302124023438,-1.626953125,-1.0453643798828125
1663861880239130000,5.425130126953125,-9.43804931640625,-1.1121978759765625,-2.4866790771484375
1663861880249017900,5.435017822265625,-9.627197265625,0.027435302734375,-4.9335479736328125
1663861880258905600,5.444905517578125,-10.381378173828125,0.8558349609375,-6.8872222900390625
1663861880268793000,5.45479296875,-9.866622924804688,1.126373291015625,-7.5504150390625
1663861880278680800,5.464680908203125,-9.8067626953125,0.9396209716796875,-6.949462890625
1663861880288538000,5.4745380859375,-10.412490844726562,1.5788726806640625,-5.9654541015625
1663861880298425900,5.48442578125,-10.860214233398438,1.6722564697265625,-3.889678955078125
1663861880308313600,5.494313720703125,-11.985488891601562,1.6507110595703125,-2.496246337890625
1663861880318170600,5.504170654296875,-11.470733642578125,1.753662109375,-2.3861236572265625
1663861880328058400,5.514058349609375,-11.030197143554688,1.9451904296875,-4.0045928955078125
1663861880337915600,5.52391552734375,-10.817108154296875,2.5916290283203125,-6.19769287109375
1663861880347803100,5.53380322265625,-10.939224243164062,3.0944061279296875,-6.901580810546875
1663861880357691000,5.54369091796875,-11.15948486328125,3.259613037109375,-6.4490814208984375
1663861880367578600,5.55357861328125,-11.6885986328125,3.4319915771484375,-5.706878662109375
1663861880377436000,5.563435791015625,-11.8681640625,3.6019744873046875,-4.83538818359375
1663861880387323400,5.573323486328125,-11.853805541992188,3.86773681640625,-4.5361175537109375
1663861880397241600,5.58324169921875,-11.45635986328125,4.48065185546875,-4.8880615234375
1663861880407129300,5.59312939453125,-11.439605712890625,4.58599853515625,-5.220855712890625
1663861880417017000,5.60301708984375,-11.633544921875,4.76556396484375,-5.706878662109375
1663861880426874400,5.612874267578125,-11.362991333007812,5.0073699951171875,-6.152191162109375
1663861880436761900,5.622761962890625,-11.257644653320312,5.2491912841796875,-6.0420684814453125
1663861880446619100,5.632619140625,-11.554534912109375,5.2491912841796875,-5.5943450927734375
1663861880456537300,5.642537353515625,-12.220123291015625,5.2659454345703125,-5.4147796630859375
1663861880466425000,5.652425048828125,-12.653472900390625,5.368896484375,-5.3621063232421875
1663861880476282000,5.6622822265625,-12.528976440429688,5.27313232421875,-5.2878875732421875
1663861880486169900,5.672169921875,-12.303909301757812,5.0600433349609375,-5.2830963134765625
1663861880496057600,5.6820576171875,-12.241668701171875,4.8206329345703125,-5.2447967529296875
1663861880505915000,5.691914794921875,-12.090835571289062,4.5093841552734375,-5.2830963134765625
1663861880515833000,5.7018330078125,-12.251235961914062,4.3250274658203125,-5.390838623046875
1663861880525720600,5.711720458984375,-11.990280151367188,4.243621826171875,-5.3884429931640625
1663861880535577900,5.721577880859375,-11.94000244140625,4.1071624755859375,-5.189727783203125
1663861880545465600,5.731465576171875,-12.06689453125,3.819854736328125,-5.067626953125
1663861880555322600,5.741322509765625,-11.87774658203125,3.5900115966796875,-5.1490325927734375
1663861880565210400,5.75121044921875,-11.789154052734375,3.4559326171875,-5.0987548828125
1663861880575098000,5.76109814453125,-11.781982421875,3.333831787109375,-4.93115234375
1663861880584985900,5.77098583984375,-11.315109252929688,3.0968017578125,-4.85693359375
1663861880594904000,5.780904052734375,-10.9703369140625,2.7664031982421875,-5.189727783203125
1663861880604791800,5.790791748046875,-10.793167114257812,2.421630859375,-5.711669921875
1663861880614648800,5.80064892578125,-10.678253173828125,2.13433837890625,-6.01812744140625
1663861880624536600,5.81053662109375,-10.711776733398438,1.8997039794921875,-6.077972412109375
1663861880634424300,5.82042431640625,-10.75726318359375,1.559722900390625,-5.8792572021484375
1663861880644312000,5.83031201171875,-10.642333984375,1.169464111328125,-5.512939453125
1663861880654199800,5.84019970703125,-10.276031494140625,0.767242431640625,-5.220855712890625
1663861880664087300,5.85008740234375,-9.969573974609375,0.3458709716796875,-5.2830963134765625
1663861880673975000,5.85997509765625,-10.022247314453125,0.0034942626953125,-5.474639892578125
1663861880683862800,5.86986279296875,-10.208984375,-0.353240966796875,-5.49139404296875
1663861880693750500,5.87975048828125,-10.426864624023438,-0.669281005859375,-5.1753692626953125
1663861880703638300,5.88963818359375,-10.345458984375,-1.1050262451171875,-4.8880615234375
1663861880713525800,5.89952587890625,-9.813949584960938,-1.4449920654296875,-4.639068603515625
1663861880723413500,5.90941357421875,-9.612838745117188,-1.84722900390625,-4.44512939453125
1663861880733270800,5.919270751953125,-9.799575805664062,-2.297332763671875,-4.3948516845703125
1663861880743127800,5.9291279296875,-9.598464965820312,-2.6612548828125,-4.4547119140625
1663861880753015600,5.939015625,-9.368621826171875,-2.9581298828125,-4.3158416748046875
1663861880762903300,5.9489033203125,-9.153152465820312,-3.1760101318359375,-4.0141754150390625
1663861880772791000,5.958791015625,-9.0142822265625,-3.2813568115234375,-3.75799560546875
1663861880782648000,5.96864794921875,-8.796401977539062,-3.4297943115234375,-3.678985595703125
1663861880792535800,5.978535888671875,-8.521072387695312,-3.5471038818359375,-3.6167449951171875
1663861880802423600,5.988423583984375,-8.8035888671875,-3.6356964111328125,-3.5904083251953125
1663861880812311300,5.998311279296875,-8.48516845703125,-3.6835784912109375,-3.54730224609375
1663861880822199000,6.008198974609375,-7.7645111083984375,-3.719482421875,-3.3701324462890625
1663861880832086800,6.018086669921875,-7.55621337890625,-3.8846893310546875,-3.106781005859375
1663861880841974300,6.027974365234375,-6.854705810546875,-4.1815643310546875,-3.061279296875
1663861880851862000,6.037862060546875,-6.3974151611328125,-4.6077423095703125,-3.1163482666015625
1663861880861749800,6.047749755859375,-6.1412353515625,-5.1320648193359375,-3.04931640625
1663861880871637500,6.057637451171875,-5.576202392578125,-5.5845794677734375,-2.939178466796875
1663861880881525200,6.067525146484375,-4.941741943359375,-6.1232757568359375,-2.90325927734375
1663861880891412700,6.077412841796875,-4.9896240234375,-6.6643524169921875,-2.812286376953125
1663861880901300500,6.087300537109375,-4.8603363037109375,-7.0713653564453125,-2.7332763671875
1663861880911157800,6.09715771484375,-4.1157379150390625,-7.32037353515625,-2.6135711669921875
1663861880921045500,6.10704541015625,-3.8451995849609375,-7.49993896484375,-2.5034332275390625
1663861880930933000,6.11693310546875,-4.000823974609375,-7.5717620849609375,-2.3717498779296875
1663861880940820700,6.12682080078125,-4.14447021484375,-7.3969879150390625,-2.1443023681640625
1663861880950708500,6.13670849609375,-4.05828857421875,-7.22698974609375,-2.029388427734375
1663861880960596200,6.14659619140625,-3.6297149658203125,-7.0809478759765625,-1.99346923828125
1663861880970484000,6.15648388671875,-2.69598388671875,-6.9229278564453125,-1.7061614990234375
1663861880980341000,6.166341064453125,-2.1453094482421875,-6.7912445068359375,-1.469146728515625
1663861880990198300,6.1761982421875,-1.999267578125,-6.7313995361328125,-1.3590087890625
1663861881000086000,6.1860859375,-2.4661407470703125,-6.6787261962890625,-1.3997039794921875
1663861881009943000,6.195943115234375,-3.2370758056640625,-6.8223724365234375,-1.9072723388671875
1663861881019861200,6.205861328125,-3.6009979248046875,-6.7625274658203125,-2.335845947265625
1663861881029749000,6.2157490234375,-3.409454345703125,-6.693084716796875,-2.23529052734375
1663861881039636700,6.22563671875,-2.9689178466796875,-6.75054931640625,-2.1754302978515625
1663861881049524500,6.2355244140625,-2.03997802734375,-6.8104095458984375,-2.2281036376953125
1663861881059412200,6.245412109375,-0.9338531494140625,-7.00433349609375,-2.2759857177734375
1663861881069299700,6.2552998046875,-0.52923583984375,-7.327545166015625,-2.462738037109375
1663861881079187500,6.2651875,-0.67767333984375,-7.5645751953125,-2.6446990966796875
1663861881089075200,6.2750751953125,-0.8285064697265625,-7.8470916748046875,-2.84820556640625
1663861881098963000,6.284962890625,-1.127777099609375,-8.275650024414062,-3.25042724609375
1663861881108850700,6.2948505859375,-0.9649810791015625,-8.890960693359375,-4.0572662353515625
1663861881118707700,6.304707763671875,-0.43585205078125,-9.62359619140625,-4.4666748046875
1663861881128595500,6.314595458984375,-0.39276123046875,-10.3634033203125,-4.449920654296875
1663861881138483200,6.324483154296875,-0.6058502197265625,-11.23968505859375,-4.2775421142578125
1663861881148371000,6.334370849609375,-0.6704864501953125,-12.16143798828125,-4.0333251953125
1663861881158258400,6.344258544921875,-0.5962677001953125,-12.704925537109375,-3.6550445556640625
1663861881168146200,6.354146240234375,-0.69921875,-12.58282470703125,-3.054107666015625
1663861881178034000,6.364033935546875,-0.8045654296875,-11.893295288085938,-2.706939697265625
1663861881187891200,6.37389111328125,-0.90032958984375,-11.014617919921875,-2.5393524169921875
1663861881197778700,6.38377880859375,-0.90032958984375,-10.183837890625,-2.3023223876953125
1663861881207666400,6.39366650390625,-0.63458251953125,-9.69781494140625,-2.189788818359375
1663861881217523700,6.403523681640625,-0.122222900390625,-9.532608032226562,-2.134735107421875
1663861881227411500,6.413411376953125,0.1339569091796875,-9.6451416015625,-2.0389556884765625
1663861881237299000,6.423298828125,-0.1485595703125,-9.853439331054688,-1.749267578125
1663861881247186700,6.433186767578125,-0.4765625,-10.049758911132812,-1.27520751953125
1663861881257044000,6.4430439453125,-0.3640289306640625,-10.272415161132812,-0.8179168701171875
1663861881266931700,6.452931640625,0.076507568359375,-10.346633911132812,-0.317535400390625
1663861881276819500,6.4628193359375,0.3853607177734375,-10.303543090820312,0.0535736083984375
1663861881286707000,6.47270703125,0.540985107421875,-10.193405151367188,-0.1355743408203125
1663861881296594700,6.4825947265625,0.3590240478515625,-10.044967651367188,-0.6598968505859375
1663861881306452000,6.492451904296875,-0.007293701171875,-9.97314453125,-1.1339569091796875
1663861881316339700,6.502339599609375,-0.2108001708984375,-10.085678100585938,-1.7420806884765625
1663861881326227200,6.512227294921875,-0.27545166015625,-10.188629150390625,-2.3502044677734375
1663861881336115000,6.522114990234375,-0.545989990234375,-10.150314331054688,-2.8194732666015625
1663861881345972200,6.53197216796875,-0.7135772705078125,-10.140731811523438,-3.171417236328125
1663861881355890400,6.541890380859375,-0.6561279296875,-10.092849731445312,-3.36773681640625
1663861881365747500,6.55174755859375,-0.67767333984375,-10.054550170898438,-3.4371795654296875
1663861881375665700,6.561665771484375,-0.7111968994140625,-10.183837890625,-3.477874755859375
1663861881385523000,6.57152294921875,-0.7183685302734375,-10.38494873046875,-3.4180145263671875
1663861881395380200,6.581380126953125,-0.8045654296875,-10.444808959960938,-3.192962646484375
1663861881405298400,6.59129833984375,-0.9386444091796875,-10.3753662109375,-2.8769378662109375
1663861881415186000,6.60118603515625,-0.9075164794921875,-10.277206420898438,-2.5201873779296875
1663861881425073700,6.61107373046875,-0.7494964599609375,-10.19580078125,-2.1610565185546875
1663861881434961400,6.62096142578125,-0.799774169921875,-10.183837890625,-1.83544921875
1663861881444849200,6.63084912109375,-0.81414794921875,-10.20538330078125,-1.56011962890625
1663861881454737000,6.64073681640625,-0.7758331298828125,-10.176651000976562,-1.4619598388671875
1663861881464594000,6.650593994140625,-0.8380889892578125,-10.14312744140625,-1.48590087890625
1663861881474481700,6.660481689453125,-1.180450439453125,-10.219741821289062,-1.703765869140625
1663861881484339000,6.6703388671875,-1.592254638671875,-10.377761840820312,-1.883331298828125
1663861881494226400,6.680226318359375,-1.6999969482421875,-10.530990600585938,-2.0892333984375
1663861881504145000,6.690144775390625,-1.9705352783203125,-10.667465209960938,-2.2185211181640625
1663861881514032400,6.700032470703125,-2.09503173828125,-10.547760009765625,-2.14190673828125
1663861881523889700,6.7098896484375,-1.328887939453125,-10.305938720703125,-2.146697998046875
1663861881533777400,6.71977734375,-0.3736114501953125,-9.970748901367188,-2.1706390380859375
1663861881543665200,6.7296650390625,-0.081512451171875,-9.484725952148438,-2.1395111083984375
1663861881553552600,6.739552734375,-0.261077880859375,-9.015457153320312,-2.347808837890625
1663861881563440400,6.7494404296875,-0.49810791015625,-8.6419677734375,-2.7213134765625
1663861881573328100,6.759328125,-1.0511627197265625,-8.474380493164062,-3.0948028564453125
1663861881583215900,6.7692158203125,-1.61859130859375,-8.562957763671875,-3.4371795654296875
1663861881593103600,6.779103515625,-1.496490478515625,-8.761672973632812,-3.74603271484375
1663861881602991000,6.7889912109375,-1.2307281494140625,-8.972366333007812,-3.8848876953125
1663861881612878800,6.79887890625,-1.15411376953125,-9.178268432617188,-3.705322265625
1663861881622766600,6.8087666015625,-0.636962890625,-9.27642822265625,-3.4371795654296875
1663861881632623900,6.818623779296875,0.004669189453125,-9.324310302734375,-3.171417236328125
1663861881642481000,6.82848095703125,-0.09588623046875,-9.24530029296875,-2.939178466796875
1663861881652368600,6.83836865234375,-0.883575439453125,-9.238128662109375,-2.802703857421875
1663861881662226000,6.848225830078125,-1.281005859375,-9.288406372070312,-2.7955322265625
1663861881672144100,6.85814404296875,-1.26904296875,-9.120803833007812,-2.4651336669921875
1663861881682031600,6.868031494140625,-1.4486083984375,-8.754501342773438,-2.3861236572265625
1663861881691919400,6.87791943359375,-1.7215423583984375,-8.479156494140625,-2.759613037109375
1663861881701807000,6.88780712890625,-1.72393798828125,-8.234954833984375,-3.02777099609375
1663861881711664400,6.897664306640625,-1.9920806884765625,-7.90216064453125,-2.90325927734375
1663861881721521400,6.907521484375,-2.8946990966796875,-7.7034454345703125,-2.7835540771484375
1663861881731439600,6.917439697265625,-3.9146270751953125,-7.770477294921875,-2.9583282470703125
1663861881741327400,6.927327392578125,-4.10137939453125,-7.85906982421875,-3.4371795654296875
1663861881751215000,6.937215087890625,-3.0167999267578125,-7.5980987548828125,-3.8106689453125
1663861881761102800,6.947102783203125,-1.3624114990234375,-6.93011474609375,-3.6694183349609375
1663861881770990600,6.956990478515625,-1.623382568359375,-6.2262115478515625,-3.2121124267578125
1663861881780878000,6.966878173828125,-4.010406494140625,-5.9676513671875,-3.0038299560546875
1663861881790765800,6.976765869140625,-5.099761962890625,-6.24298095703125,-3.1259307861328125
1663861881800653600,6.986653564453125,-5.2003173828125,-6.6356201171875,-3.2647857666015625
1663861881810510800,6.9965107421875,-5.533111572265625,-6.52789306640625,-3.5281524658203125
1663861881820398300,7.0063984375,-5.7366180419921875,-6.111297607421875,-3.72686767578125
1663861881830286000,7.0162861328125,-5.722259521484375,-5.7114715576171875,-3.6167449951171875
1663861881840173800,7.026173828125,-5.0446929931640625,-5.467254638671875,-2.9439697265625
1663861881850061600,7.0360615234375,-5.468475341796875,-5.4050140380859375,-2.0269927978515625
1663861881859949300,7.04594921875,-5.6623992919921875,-5.3068389892578125,-1.8641815185546875
1663861881869836800,7.0558369140625,-5.300872802734375,-4.4545135498046875,-2.5178070068359375
1663861881879724500,7.065724609375,-5.9185791015625,-3.238250732421875,-3.8657379150390625
1663861881889612300,7.0756123046875,-7.498748779296875,-2.3212738037109375,-5.211273193359375
1663861881899469600,7.085469482421875,-8.681488037109375,-2.1895904541015625,-5.7044830322265625
1663861881909357000,7.095357177734375,-8.650360107421875,-2.9437713623046875,-4.9000244140625
1663861881919244800,7.105244873046875,-9.478759765625,-3.987640380859375,-3.7819366455078125
1663861881929132500,7.115132568359375,-9.63677978515625,-5.1320648193359375,-3.2312774658203125
1663861881939020300,7.125020263671875,-9.217788696289062,-5.46246337890625,-3.56646728515625
1663861881948908000,7.134907958984375,-8.468399047851562,-4.6029510498046875,-4.6222991943359375
1663861881958765000,7.14476513671875,-7.3167877197265625,-2.9293975830078125,-5.548858642578125
1663861881968652800,7.15465283203125,-7.3574981689453125,-2.5870361328125,-6.0276947021484375
1663861881978540500,7.16454052734375,-8.906539916992188,-3.152069091796875,-5.51055908203125
1663861881988397800,7.174397705078125,-10.642333984375,-3.3771209716796875,-4.5049896240234375
1663861881998254800,7.1842548828125,-11.11639404296875,-3.269378662109375,-3.6430816650390625
1663861882008142600,7.194142578125,-9.895355224609375,-2.7115325927734375,-3.6717987060546875
1663861882018030300,7.2040302734375,-8.906539916992188,-1.684417724609375,-4.186553955078125
1663861882027918000,7.21391796875,-8.595291137695312,-1.049957275390625,-5.706878662109375
1663861882037805600,7.2238056640625,-9.25848388671875,-0.7147674560546875,-7.0883331298828125
1663861882047693300,7.233693359375,-10.32391357421875,-0.827301025390625,-7.222412109375
1663861882057581000,7.2435810546875,-10.69500732421875,-1.176849365234375,-6.3126068115234375
1663861882067468800,7.25346875,-10.625579833984375,-1.3228912353515625,-5.3621063232421875
1663861882077356500,7.2633564453125,-10.781204223632812,-0.8656005859375,-5.0341033935546875
1663861882087244000,7.273244140625,-10.730926513671875,-0.3723907470703125,-4.926361083984375
1663861882097131800,7.2831318359375,-10.345458984375,0.1303863525390625,-5.3980255126953125
1663861882107019500,7.29301953125,-11.11639404296875,0.8271026611328125,-6.0803680419921875
1663861882116876800,7.302876708984375,-11.461151123046875,1.2389068603515625,-5.970245361328125
1663861882126764300,7.312764404296875,-11.29595947265625,1.27001953125,-5.738006591796875
1663861882136621600,7.32262158203125,-11.389328002929688,0.8558349609375,-5.1011505126953125
1663861882146539800,7.332539794921875,-11.865768432617188,0.503875732421875,-4.200927734375
1663861882156397000,7.34239697265625,-11.564102172851562,1.1981964111328125,-3.7125091552734375
1663861882166254000,7.352254150390625,-12.016616821289062,2.050537109375,-4.3302154541015625
1663861882176172300,7.36217236328125,-11.8992919921875,2.4072723388671875,-5.4889984130859375
1663861882186029600,7.372029541015625,-11.23370361328125,2.768798828125,-6.183319091796875
1663861882195917300,7.381917236328125,-11.485092163085938,3.1901702880859375,-6.5472412109375
1663861882205805000,7.39180517578125,-11.446792602539062,3.6163482666015625,-6.384429931640625
1663861882215692500,7.401692626953125,-11.219345092773438,4.00421142578125,-5.536895751953125
1663861882225580300,7.411580322265625,-11.298355102539062,4.0377197265625,-4.945526123046875
1663861882235468000,7.421468017578125,-11.372573852539062,4.19573974609375,-4.639068603515625
1663861882245355800,7.431355712890625,-11.786773681640625,4.4088287353515625,-4.703704833984375
1663861882255243500,7.441243408203125,-11.798736572265625,4.4040374755859375,-5.12030029296875
1663861882265100500,7.4511005859375,-11.765213012695312,4.485443115234375,-5.527313232421875
1663861882275018800,7.461018798828125,-12.17462158203125,4.5261383056640625,-5.637451171875
1663861882284876000,7.4708759765625,-11.947174072265625,4.506988525390625,-5.3214111328125
1663861882294763800,7.480763671875,-12.126739501953125,4.4351654052734375,-4.89764404296875
1663861882304651300,7.4906513671875,-12.423629760742188,4.1813812255859375,-4.8234100341796875
1663861882314508500,7.500508544921875,-12.148284912109375,3.8653411865234375,-4.83538818359375
1663861882324396300,7.510396240234375,-11.959152221679688,3.635498046875,-4.873687744140625
1663861882334284000,7.520283935546875,-12.327850341796875,3.3170623779296875,-5.2663421630859375
1663861882344171500,7.530171630859375,-12.126739501953125,3.1518707275390625,-5.49139404296875
1663861882354059300,7.540059326171875,-12.148284912109375,3.07525634765625,-5.5081634521484375
1663861882363947000,7.549947021484375,-11.743667602539062,2.9986419677734375,-5.316619873046875
1663861882373834800,7.559834716796875,-11.468338012695312,3.0249786376953125,-5.1729736328125
1663861882383722500,7.569722412109375,-11.386932373046875,2.9315948486328125,-5.0963592529296875
1663861882393579500,7.57957958984375,-11.135543823242188,2.646697998046875,-5.23760986328125
1663861882403467300,7.58946728515625,-10.865005493164062,2.4527587890625,-5.5943450927734375
1663861882413355000,7.59935498046875,-10.977523803710938,2.2324981689453125,-5.759552001953125
1663861882423242800,7.60924267578125,-11.049346923828125,1.88055419921875,-5.7954559326171875
1663861882433130500,7.619130615234375,-10.706985473632812,1.6052093505859375,-5.824188232421875
1663861882442987500,7.628987548828125,-10.656707763671875,1.406494140625,-5.8672943115234375
1663861882452905700,7.63890576171875,-10.639938354492188,1.1335601806640625,-5.8888397216796875
1663861882462793500,7.64879345703125,-10.189834594726562,0.894134521484375,-5.934326171875
1663861882472681200,7.65868115234375,-9.957595825195312,0.628387451171875,-6.097137451171875
1663861882482569000,7.66856884765625,-9.998291015625,0.317138671875,-6.403594970703125
1663861882492456400,7.67845654296875,-10.173080444335938,-0.0324249267578125,-6.5137176513671875
1663861882502344200,7.68834423828125,-10.05096435546875,-0.42266845703125,-6.2958526611328125
1663861882512201500,7.698201416015625,-9.971969604492188,-0.8320770263671875,-5.9415130615234375
1663861882522089200,7.708089111328125,-9.904922485351562,-1.2175445556640625,-5.611114501953125
1663861882531946200,7.7179462890625,-9.957595825195312,-1.5718841552734375,-5.400421142578125
1663861882541834000,7.727833984375,-9.782821655273438,-2.000457763671875,-5.177764892578125
1663861882551721700,7.7377216796875,-9.361434936523438,-2.350006103515625,-4.8210296630859375
1663861882561609500,7.747609375,-9.155532836914062,-2.6421051025390625,-4.5361175537109375
1663861882571497000,7.7574970703125,-9.165115356445312,-2.8240509033203125,-4.2895050048828125
1663861882581384700,7.767384765625,-9.356658935546875,-2.9389801025390625,-4.2464141845703125
1663861882591242000,7.777241943359375,-9.313552856445312,-3.0347442626953125,-4.5097808837890625
1663861882601160200,7.78716015625,-8.805984497070312,-3.0203857421875,-4.4259796142578125
1663861882611017200,7.797017333984375,-8.307998657226562,-2.99884033203125,-4.239227294921875
1663861882620905000,7.806905029296875,-7.951263427734375,-3.1065673828125,-4.2679595947265625
1663861882630792700,7.816792724609375,-7.414947509765625,-3.3795166015625,-3.9758758544921875
1663861882640680400,7.826680419921875,-7.096527099609375,-3.645263671875,-3.4898529052734375
1663861882650568200,7.836568115234375,-6.821197509765625,-4.030731201171875,-3.1546630859375
1663861882660455700,7.84645556640625,-6.600921630859375,-4.504791259765625,-2.9679107666015625
1663861882670343400,7.856343505859375,-6.46923828125,-5.012359619140625,-2.8793182373046875
1663861882680231200,7.866231201171875,-5.8108367919921875,-5.5127410888671875,-2.750030517578125
1663861882690119000,7.876118896484375,-5.43255615234375,-5.953277587890625,-2.5537109375
1663861882700006700,7.886006591796875,-5.7581634521484375,-6.290863037109375,-2.3310546875
1663861882709894400,7.895894287109375,-5.2146759033203125,-6.63323974609375,-2.125152587890625
1663861882719782000,7.905781982421875,-4.2139129638671875,-6.999542236328125,-1.9001007080078125
1663861882729639200,7.91563916015625,-3.979278564453125,-7.2509307861328125,-1.639129638671875
1663861882739496400,7.925496337890625,-3.873931884765625,-7.4137420654296875,-1.469146728515625
1663861882749353500,7.935353515625,-3.579437255859375,-7.516693115234375,-1.3781585693359375
1663861882759271700,7.945271728515625,-3.1820068359375,-7.634002685546875,-1.3135223388671875
1663861882769159400,7.955159423828125,-2.660064697265625,-7.7513275146484375,-1.327880859375
1663861882779016700,7.9650166015625,-2.6026153564453125,-7.79681396484375,-1.3470306396484375
1663861882788935000,7.974934814453125,-3.1053924560546875,-7.832733154296875,-1.4092864990234375
1663861882798822400,7.984822509765625,-3.3112945556640625,-8.002716064453125,-1.99346923828125
1663861882808679700,7.9946796875,-3.620147705078125,-7.82794189453125,-2.3597869873046875
1663861882818537000,8.004536865234375,-3.610565185546875,-7.459228515625,-2.3669586181640625
1663861882828455200,8.014455078125,-2.9258270263671875,-7.114471435546875,-2.304718017578125
1663861882838342700,8.0243427734375,-2.2506561279296875,-6.75054931640625,-2.2113494873046875
1663861882848230400,8.03423046875,-2.068695068359375,-6.4297332763671875,-2.2257080078125
1663861882858118100,8.0441181640625,-1.4366302490234375,-6.3148040771484375,-2.4244232177734375
1663861882868006000,8.054005859375,-0.90032958984375,-6.39141845703125,-2.5249786376953125
1663861882877863000,8.06386279296875,-1.0511627197265625,-6.535064697265625,-2.611175537109375
1663861882887750700,8.073750732421875,-1.3935394287109375,-6.681121826171875,-2.90325927734375
1663861882897638400,8.083638427734375,-1.3408660888671875,-6.8702545166015625,-3.334228515625
1663861882907526100,8.093526123046875,-0.909912109375,-7.337127685546875,-3.7125091552734375
1663861882917414000,8.103413818359375,-0.450225830078125,-7.8614654541015625,-3.69573974609375
1663861882927301600,8.113301513671875,0.0525665283203125,-8.58929443359375,-3.38690185546875
1663861882937189000,8.123189208984375,-0.33050537109375,-9.937225341796875,-3.1953582763671875
1663861882947076900,8.133076904296875,-0.629791259765625,-11.4407958984375,-3.34619140625
1663861882956964600,8.142964599609375,-0.3592376708984375,-12.587615966796875,-3.3437957763671875
1663861882966852400,8.152852294921875,-0.4334564208984375,-13.011383056640625,-3.1642303466796875
1663861882976709400,8.16270947265625,-0.76385498046875,-12.913223266601562,-3.1833953857421875
1663861882986566700,8.172566650390625,-1.158905029296875,-12.460723876953125,-3.408447265625
1663861882996424000,8.182423828125,-1.2139739990234375,-11.538955688476562,-3.3102874755859375
1663861883006342100,8.192342041015625,-0.7231597900390625,-10.703369140625,-3.2001495361328125
1663861883016199200,8.20219921875,0.1962127685546875,-10.21734619140625,-3.0684661865234375
1663861883026117400,8.212117431640625,1.08685302734375,-9.956390380859375,-2.8410186767578125
1663861883036005000,8.222005126953125,1.22332763671875,-9.860610961914062,-2.7979278564453125
1663861883045892900,8.231892822265625,0.6032257080078125,-9.925262451171875,-2.6183624267578125
1663861883055750000,8.24175,-0.340087890625,-10.097640991210938,-2.3023223876953125
1663861883065607200,8.251607177734375,-0.5005035400390625,-10.349029541015625,-2.010223388671875
1663861883075495000,8.261494873046875,0.141143798828125,-10.35382080078125,-1.5457611083984375
1663861883085382700,8.271382568359375,0.859405517578125,-9.961166381835938,-0.8801727294921875
1663861883095300900,8.28130078125,1.4699249267578125,-9.597259521484375,-0.3749847412109375
1663861883105158000,8.291157958984375,1.8458099365234375,-9.467971801757812,-0.2169647216796875
1663861883115076000,8.301076171875,1.556121826171875,-9.640350341796875,-0.2792205810546875
1663861883124933400,8.310933349609375,0.5673065185546875,-9.910888671875,-0.4276580810546875
1663861883134821000,8.320821044921875,-0.10784912109375,-10.13116455078125,-0.8227081298828125
1663861883144708900,8.330708984375,-0.03363037109375,-10.222137451171875,-1.289581298828125
1663861883154596400,8.340596435546875,0.18902587890625,-10.186233520507812,-1.7205352783203125
1663861883164453600,8.35045361328125,0.3757781982421875,-10.097640991210938,-2.177825927734375
1663861883174371800,8.360371826171875,0.6726531982421875,-10.061737060546875,-2.6351165771484375
1663861883184259600,8.370259521484375,0.8426513671875,-10.05694580078125,-2.9679107666015625
1663861883194147300,8.380147216796875,0.6989898681640625,-10.112014770507812,-3.1474761962890625
1663861883204034800,8.390034912109375,0.382965087890625,-10.133560180664062,-3.233673095703125
1663861883213892000,8.39989208984375,0.088470458984375,-10.17425537109375,-3.202545166015625
1663861883223779800,8.40977978515625,0.0070648193359375,-10.2269287109375,-2.9463653564453125
1663861883233667600,8.41966748046875,0.141143798828125,-10.281997680664062,-2.642303466796875
1663861883243555000,8.42955517578125,0.2345123291015625,-10.380157470703125,-2.496246337890625
1663861883253442800,8.43944287109375,0.3278961181640625,-10.447189331054688,-2.4052734375
1663861883263330600,8.44933056640625,0.39013671875,-10.5118408203125,-2.3932952880859375
1663861883273218300,8.45921826171875,0.308746337890625,-10.559722900390625,-2.541748046875
1663861883283106000,8.46910595703125,0.0525665283203125,-10.598037719726562,-2.7835540771484375
1663861883292993500,8.47899365234375,-0.165313720703125,-10.686614990234375,-3.2695770263671875
1663861883302881300,8.48888134765625,-0.488525390625,-10.684219360351562,-3.614349365234375
1663861883312769000,8.49876904296875,-0.79498291015625,-10.590850830078125,-3.6119537353515625
1663861883322595600,8.508595703125,-0.9506072998046875,-10.451980590820312,-3.3653411865234375
1663861883332483300,8.5184833984375,-0.957794189453125,-10.27960205078125,-3.14508056640625
1663861883342371000,8.52837109375,-0.9769439697265625,-10.095245361328125,-3.013397216796875
1663861883352228400,8.538228271484375,-1.15411376953125,-9.901321411132812,-2.93438720703125
1663861883362146600,8.548146484375,-1.5419769287109375,-9.654708862304688,-2.9631195068359375
1663861883372034000,8.558033935546876,-2.0184173583984375,-9.503875732421875,-3.1115570068359375
1663861883381921800,8.567921875,-2.2769927978515625,-9.393753051757812,-3.2408447265625
1663861883391779000,8.577779052734375,-2.0926513671875,-9.120803833007812,-3.1857757568359375
1663861883401666800,8.587666748046875,-1.6712646484375,-8.742523193359375,-3.1331024169921875
1663861883411523800,8.59752392578125,-1.4725494384765625,-8.32354736328125,-2.948760986328125
1663861883421411600,8.60741162109375,-2.1237640380859375,-7.8901824951171875,-2.6710357666015625
1663861883431329800,8.617329833984375,-2.99285888671875,-7.7082366943359375,-2.443572998046875
1663861883441187000,8.62718701171875,-3.304107666015625,-7.739349365234375,-2.369354248046875
1663861883451074800,8.63707470703125,-3.0167999267578125,-7.6771087646484375,-2.3382415771484375
1663861883460962300,8.64696240234375,-2.047149658203125,-7.3706512451171875,-2.010223388671875
1663861883470850000,8.65685009765625,-0.9386444091796875,-7.009124755859375,-1.59124755859375
1663861883480707300,8.666707275390625,-0.5962677001953125,-6.79364013671875,-1.6463165283203125
1663861883490625500,8.67662548828125,-1.2139739990234375,-6.6643524169921875,-2.094024658203125
1663861883500513300,8.68651318359375,-2.45416259765625,-6.60211181640625,-2.35260009765625
1663861883510400800,8.69640087890625,-3.6081695556640625,-6.448883056640625,-2.084442138671875
1663861883520288500,8.70628857421875,-4.3360137939453125,-6.290863037109375,-1.6846160888671875
1663861883530176300,8.71617626953125,-4.8268280029296875,-6.2717132568359375,-1.5409698486328125
1663861883540064000,8.72606396484375,-4.084625244140625,-6.3459320068359375,-1.624755859375
1663861883549951700,8.73595166015625,-2.6193695068359375,-6.2788848876953125,-1.76123046875
1663861883559839200,8.745839111328126,-2.933013916015625,-5.8934326171875,-2.0605010986328125
1663861883569727000,8.75572705078125,-4.951324462890625,-5.8335723876953125,-2.5872344970703125
1663861883579584300,8.765584228515625,-6.1220855712890625,-6.005950927734375,-3.540130615234375
1663861883589472000,8.775471923828125,-5.8539276123046875,-5.49359130859375,-4.143463134765625
1663861883599329000,8.7853291015625,-5.2865142822265625,-4.6077423095703125,-4.4211883544921875
1663861883609216800,8.795216796875,-5.217071533203125,-3.8487701416015625,-4.904815673828125
1663861883619074000,8.805073974609375,-5.590576171875,-3.3459930419921875,-4.5624542236328125
1663861883628992300,8.8149921875,-6.4548797607421875,-3.396270751953125,-4.248809814453125
1663861883638880000,8.8248798828125,-7.45086669921875,-4.0283355712890625,-4.038116455078125
1663861883648737000,8.834737060546875,-8.363052368164062,-4.717864990234375,-3.5496978759765625
1663861883658624800,8.844624755859375,-8.71978759765625,-5.2613525390625,-2.843414306640625
1663861883668512500,8.854512451171875,-8.394180297851562,-5.5965423583984375,-2.7787628173828125
1663861883678400300,8.864400146484375,-8.183486938476562,-5.1536102294921875,-3.394073486328125
1663861883688287700,8.874287841796875,-9.002304077148438,-4.4138031005859375,-4.651031494140625
1663861883698175500,8.884175537109375,-9.11004638671875,-3.7889251708984375,-5.6949005126953125
1663861883708063200,8.894063232421875,-8.928085327148438,-3.33880615234375,-6.2120513916015625
1663861883717951000,8.903950927734375,-8.784439086914062,-3.22149658203125,-6.2383880615234375
1663861883727838700,8.913838623046875,-9.102859497070312,-2.486480712890625,-5.22564697265625
1663861883737726200,8.923726318359375,-10.32391357421875,-1.251068115234375,-4.3996429443359375
1663861883747614000,8.933614013671875,-9.885772705078125,-0.2862091064453125,-3.9495391845703125
1663861883757501700,8.943501708984375,-8.614456176757812,-0.7506866455078125,-3.5496978759765625
1663861883767359000,8.95335888671875,-9.696624755859375,-2.134521484375,-3.901641845703125
1663861883777216000,8.963216064453125,-11.774795532226562,-2.630126953125,-4.6701812744140625
1663861883787103700,8.973103759765625,-12.248855590820312,-2.0914306640625,-5.304656982421875
1663861883796991500,8.982991455078125,-11.209762573242188,-1.2750091552734375,-4.713287353515625
1663861883806879200,8.992879150390625,-11.073287963867188,-0.49688720703125,-4.3158416748046875
1663861883816766700,9.0027666015625,-11.365386962890625,0.2405242919921875,-6.214447021484375
1663861883826624000,9.0126240234375,-10.941619873046875,1.0186309814453125,-8.156143188476562
1663861883836511700,9.02251171875,-10.754867553710938,2.172637939453125,-7.746734619140625
1663861883846399500,9.0323994140625,-11.238494873046875,2.124755859375,-5.4028167724609375
1663861883856287200,9.042287353515626,-11.616775512695312,1.5669097900390625,-3.4228057861328125
1663861883866174700,9.0521748046875,-11.966339111328125,2.1319427490234375,-2.264007568359375
1663861883876032000,9.062031982421875,-12.169845581054688,2.5389556884765625,-2.134735107421875
1663861883885950200,9.0719501953125,-11.559310913085938,2.8621673583984375,-3.29351806640625
1663861883895838000,9.081837890625,-10.807540893554688,3.2356719970703125,-4.9383392333984375
1663861883905695000,9.091695068359375,-11.109207153320312,3.2356719970703125,-6.21923828125
1663861883915552300,9.10155224609375,-11.367782592773438,3.4152374267578125,-6.652587890625
1663861883925470500,9.111470458984375,-11.279190063476562,3.9874420166015625,-6.1282501220703125
1663861883935358200,9.121358154296875,-11.4970703125,4.2627716064453125,-5.4554901123046875
1663861883945246000,9.131245849609375,-11.061325073242188,4.3034820556640625,-5.211273193359375
1663861883955133400,9.141133544921875,-11.343841552734375,4.4591064453125,-5.125091552734375
1663861883965021200,9.151021240234375,-11.9735107421875,4.6219024658203125,-5.1394500732421875
1663861883974909000,9.160908935546875,-11.712539672851562,4.935546875,-5.000579833984375
1663861883984766200,9.17076611328125,-11.365386962890625,5.0863800048828125,-4.892852783203125
1663861883994653700,9.18065380859375,-11.341445922851562,5.2635498046875,-5.0819854736328125
1663861884004511000,9.190510986328125,-11.3486328125,5.4143829345703125,-5.072418212890625
1663861884014429200,9.20042919921875,-11.26483154296875,5.3928375244140625,-4.756378173828125
1663861884024286500,9.210286376953125,-11.626358032226562,5.27313232421875,-4.6438446044921875
1663861884034174000,9.220174072265625,-11.832260131835938,4.9906158447265625,-4.6270904541015625
1663861884044061700,9.230061767578125,-11.81549072265625,4.73443603515625,-4.5313262939453125
1663861884053949400,9.239949462890625,-12.153076171875,4.4734649658203125,-4.56005859375
1663861884063837200,9.249837158203125,-12.26800537109375,4.353759765625,-4.66778564453125
1663861884073725000,9.259724853515625,-11.72930908203125,4.3202362060546875,-4.5911712646484375
1663861884083612700,9.26961279296875,-11.604812622070312,4.0401153564453125,-4.3373870849609375
1663861884093500200,9.279500244140625,-11.674240112304688,3.6498565673828125,-4.3804931640625
1663861884103388000,9.289387939453125,-11.590438842773438,3.3098907470703125,-4.59356689453125
1663861884113245200,9.2992451171875,-11.50665283203125,3.0034332275390625,-4.9167938232421875
1663861884123133000,9.3091328125,-11.166671752929688,2.965118408203125,-5.08917236328125
1663861884133020400,9.3190205078125,-11.137939453125,2.8621673583984375,-5.0077667236328125
1663861884142908200,9.328908203125,-10.867401123046875,2.627532958984375,-4.78271484375
1663861884152796000,9.3387958984375,-10.606430053710938,2.4527587890625,-4.8377838134765625
1663861884162683600,9.34868359375,-10.797958374023438,2.2229156494140625,-5.1035308837890625
1663861884172571400,9.3585712890625,-11.063720703125,1.909271240234375,-5.3214111328125
1663861884182459000,9.368458984375,-10.80035400390625,1.655487060546875,-5.3956298828125
1663861884192346600,9.3783466796875,-10.381378173828125,1.4448089599609375,-5.4506988525390625
1663861884202234400,9.388234375,-10.23052978515625,1.0449676513671875,-5.6350555419921875
1663861884212091600,9.398091552734375,-10.307144165039062,0.5014801025390625,-5.6829376220703125
1663861884221979100,9.407979248046875,-10.345458984375,0.118408203125,-5.5464630126953125
1663861884231867000,9.417866943359375,-10.199417114257812,-0.2670440673828125,-5.34295654296875
1663861884241754600,9.427754638671875,-10.108428955078125,-0.7363128662109375,-5.2830963134765625
1663861884251642400,9.437642333984375,-9.983932495117188,-1.1121978759765625,-5.326202392578125
1663861884261530000,9.447530029296875,-9.919296264648438,-1.4713287353515625,-5.4889984130859375
1663861884271417600,9.45741748046875,-9.952804565429688,-1.8400421142578125,-5.443511962890625
1663861884281275000,9.46727490234375,-9.938446044921875,-2.254241943359375,-5.2615509033203125
1663861884291162600,9.47716259765625,-9.770843505859375,-2.709136962890625,-5.199310302734375
1663861884301019600,9.48701953125,-9.718170166015625,-3.1281280517578125,-4.998199462890625
1663861884310907400,9.496907470703125,-9.739730834960938,-3.41064453125,-4.646240234375
1663861884320764700,9.5067646484375,-9.847457885742188,-3.5614776611328125,-4.200927734375
1663861884330683000,9.516682861328125,-9.122024536132812,-3.671600341796875,-3.83221435546875
1663861884340540200,9.5265400390625,-9.050201416015625,-3.6572418212890625,-3.3102874755859375
1663861884350427600,9.536427734375,-9.11004638671875,-3.724273681640625,-3.1426849365234375
1663861884360315400,9.5463154296875,-8.643173217773438,-3.9541168212890625,-3.25042724609375
1663861884370203100,9.556203125,-8.5186767578125,-4.114532470703125,-3.1833953857421875
1663861884380091000,9.5660908203125,-8.329544067382812,-4.13128662109375,-3.0301666259765625
1663861884389948000,9.575947998046875,-6.969635009765625,-4.2438201904296875,-2.9248199462890625
1663861884399866000,9.5858662109375,-6.3758697509765625,-4.717864990234375,-3.1331024169921875
1663861884409753900,9.59575390625,-6.6655731201171875,-5.2422027587890625,-3.360565185546875
1663861884419641600,9.6056416015625,-6.04547119140625,-5.6061248779296875,-3.3581695556640625
1663861884429529300,9.615529296875,-5.5139617919921875,-5.9341278076171875,-3.25042724609375
1663861884439417000,9.6254169921875,-5.2817230224609375,-6.2357940673828125,-3.1570587158203125
1663861884449304600,9.6353046875,-5.0279388427734375,-6.4871826171875,-2.9104461669921875
1663861884459192300,9.6451923828125,-5.169189453125,-6.6739349365234375,-2.611175537109375
1663861884469080000,9.655080078125,-4.8172454833984375,-6.8798370361328125,-2.4244232177734375
1663861884478937300,9.664937255859375,-4.1229248046875,-6.925323486328125,-2.146697998046875
1663861884488824800,9.674824951171875,-4.03912353515625,-6.95166015625,-1.9862823486328125
1663861884498712600,9.684712646484375,-3.9409637451171875,-7.021087646484375,-2.0868377685546875
1663861884508569900,9.69456982421875,-3.77337646484375,-6.9277191162109375,-2.194580078125
1663861884518457600,9.70445751953125,-3.715911865234375,-6.661956787109375,-2.1443023681640625
1663861884528345000,9.714344970703126,-3.67999267578125,-6.3411407470703125,-2.029388427734375
1663861884538202400,9.724202392578125,-3.572265625,-6.0514373779296875,-1.9407958984375
1663861884548090000,9.734090087890625,-3.42620849609375,-5.804840087890625,-1.88812255859375
1663861884557977900,9.743977783203125,-3.3184814453125,-5.66357421875,-1.8689727783203125
1663861884567865600,9.753865478515625,-3.1796112060546875,-5.603729248046875,-1.90966796875
1663861884577753000,9.763753173828125,-3.15087890625,-5.6180877685546875,-2.1275482177734375
1663861884587640800,9.773640869140625,-3.1939697265625,-5.9053955078125,-2.5225830078125
1663861884597528600,9.783528564453125,-3.20355224609375,-6.2190399169921875,-2.7404632568359375
1663861884607416300,9.793416259765625,-3.1077880859375,-6.439300537109375,-2.716522216796875
1663861884617304000,9.803303955078125,-3.08624267578125,-6.788848876953125,-2.6566619873046875
1663861884627191600,9.813191650390625,-3.1077880859375,-7.17431640625,-2.5561065673828125
1663861884637079300,9.823079345703125,-3.20355224609375,-7.6292266845703125,-2.2568359375
1663861884646967000,9.832967041015625,-2.985687255859375,-8.237350463867188,-2.2807769775390625
1663861884656824300,9.84282421875,-2.1716461181640625,-8.876602172851562,-2.1802215576171875
1663861884666711800,9.8527119140625,-1.8651885986328125,-9.386566162109375,-1.8905181884765625
1663861884676599600,9.862599609375,-1.93463134765625,-9.81512451171875,-1.7636260986328125
1663861884686487300,9.8724873046875,-2.004058837890625,-10.061737060546875,-2.0868377685546875
1663861884696375000,9.882375,-1.4677581787109375,-10.21734619140625,-2.74285888671875
1663861884706262800,9.8922626953125,-0.3424835205078125,-10.191009521484375,-3.2432403564453125
1663861884716150300,9.902150390625,0.509857177734375,-10.2149658203125,-3.827423095703125
1663861884726038000,9.9120380859375,0.6199798583984375,-10.456771850585938,-4.6103363037109375
1663861884735895300,9.921895263671875,0.08367919921875,-11.270797729492188,-5.2136688232421875
1663861884745783000,9.931782958984375,-0.6273956298828125,-11.766403198242188,-5.3333740234375
1663861884755670500,9.94167041015625,-1.07989501953125,-11.711334228515625,-5.1394500732421875
1663861884765558300,9.951558349609375,-0.8500518798828125,-11.359390258789062,-4.787506103515625
1663861884775446000,9.961446044921875,-0.2467193603515625,-11.0194091796875,-4.29669189453125
1663861884785303300,9.97130322265625,0.066925048828125,-10.911666870117188,-3.8824920654296875
1663861884795191000,9.98119091796875,0.26324462890625,-10.957168579101562,-3.561676025390625
1663861884805048000,9.991048095703125,0.361419677734375,-10.930831909179688,-3.288726806640625
1663861884814935800,10.000935791015625,0.035797119140625,-10.758438110351562,-3.0110015869140625
1663861884824793000,10.01079296875,-0.387969970703125,-10.487899780273438,-2.706939697265625
1663861884834711300,10.020711181640625,-0.481353759765625,-10.138351440429688,-2.335845947265625
1663861884844598800,10.030598876953125,-0.2060089111328125,-9.788787841796875,-1.93121337890625
1663861884854486500,10.040486572265625,0.3063507080078125,-9.56134033203125,-1.63433837890625
1663861884864343800,10.05034375,0.6199798583984375,-9.525436401367188,-1.51702880859375
1663861884874231600,10.0602314453125,0.509857177734375,-9.563735961914062,-1.5697021484375
1663861884884119000,10.070119140625,0.29437255859375,-9.716964721679688,-1.6726531982421875
1663861884894006800,10.0800068359375,0.162689208984375,-9.82470703125,-1.69659423828125
1663861884903864000,10.089864013671875,0.0789031982421875,-9.903717041015625,-1.7468719482421875
1663861884913782300,10.0997822265625,0.2057952880859375,-9.882171630859375,-1.840240478515625
1663861884923639300,10.109639404296875,0.5194244384765625,-9.800765991210938,-1.976715087890625
1663861884933527000,10.119527099609375,0.7516632080078125,-9.786392211914062,-2.3119049072265625
1663861884943414800,10.129414794921875,0.6439208984375,-9.90850830078125,-2.7715911865234375
1663861884953272000,10.13927197265625,0.44281005859375,-10.042572021484375,-3.11395263671875
1663861884963190300,10.149190185546875,0.3877410888671875,-10.234115600585938,-3.2839508056640625
1663861884973077800,10.159077880859375,0.3135223388671875,-10.313125610351562,-3.3964691162109375
1663861884982965500,10.168965576171875,0.1076202392578125,-10.303543090820312,-3.4754791259765625
1663861884992853200,10.178853271484375,-0.1413726806640625,-10.198196411132812,-3.4275970458984375
1663861885002710500,10.18871044921875,-0.2419281005859375,-10.092849731445312,-3.382110595703125
1663861885012567600,10.198567626953125,-0.2251739501953125,-10.06890869140625,-3.4371795654296875
1663861885022485800,10.20848583984375,-0.1940460205078125,-10.085678100585938,-3.456329345703125
1663861885032343000,10.218343017578125,-0.0886993408203125,-10.104827880859375,-3.4228057861328125
1663861885042230800,10.228230712890625,-0.0096893310546875,-10.183837890625,-3.3773193359375
1663861885052149000,10.23814892578125,0.1052398681640625,-10.250869750976562,-3.298309326171875
1663861885062006000,10.248006103515625,0.1004486083984375,-10.27960205078125,-3.2839508056640625
1663861885071893800,10.257893798828125,0.1483306884765625,-10.250869750976562,-3.3222503662109375
1663861885081781500,10.267781494140625,0.2105712890625,-10.159896850585938,-3.372528076171875
1663861885091669200,10.277669189453125,0.29437255859375,-10.133560180664062,-3.3892822265625
1663861885101557000,10.287556884765625,0.2848052978515625,-10.071304321289062,-3.3318328857421875
1663861885111444500,10.297444580078125,0.193817138671875,-10.080886840820312,-3.255218505859375
1663861885121301800,10.3073017578125,0.076507568359375,-10.14312744140625,-3.1211395263671875
1663861885131189500,10.317189453125,-0.1581268310546875,-10.095245361328125,-3.001434326171875
1663861885141077200,10.3270771484375,-0.7016143798828125,-10.116790771484375,-2.896087646484375
1663861885150964700,10.33696484375,-1.2091827392578125,-10.186233520507812,-2.821868896484375
1663861885160852500,10.3468525390625,-1.4414215087890625,-10.123977661132812,-2.81707763671875
1663861885170740200,10.356740234375,-1.8053436279296875,-9.949203491210938,-2.927215576171875
1663861885180628000,10.3666279296875,-2.3967132568359375,-9.616409301757812,-3.0253753662109375
1663861885190485000,10.376485107421875,-2.9832916259765625,-9.247695922851562,-3.0995941162109375
1663861885200372700,10.386372802734375,-3.3112945556640625,-8.66351318359375,-2.6446990966796875
1663861885210230000,10.39622998046875,-3.0000457763671875,-8.005111694335938,-2.4244232177734375
1663861885220117800,10.40611767578125,-2.2434844970703125,-7.4879608154296875,-2.6734161376953125
1663861885230036000,10.416035888671875,-1.434234619140625,-6.7266082763671875,-2.4244232177734375
1663861885239923500,10.42592333984375,-0.99609375,-5.874267578125,-1.9072723388671875
1663861885249811200,10.435811279296875,-0.852447509765625,-5.3355712890625,-1.93121337890625
1663861885259668500,10.44566845703125,-1.0463714599609375,-5.2637481689453125,-2.764404296875
1663861885269556200,10.45555615234375,-1.5347900390625,-5.340362548828125,-3.5066070556640625
1663861885279444000,10.46544384765625,-2.394317626953125,-5.5319061279296875,-3.6646270751953125
1663861885289301000,10.475301025390625,-2.9425811767578125,-5.783294677734375,-3.109161376953125
1663861885299219200,10.48521923828125,-3.6919708251953125,-6.259735107421875,-2.2711944580078125
1663861885309107000,10.49510693359375,-5.1596221923828125,-6.9540557861328125,-1.6151885986328125
1663861885318964200,10.504964111328125,-6.3399505615234375,-7.7680816650390625,-1.196197509765625
1663861885328851700,10.514851806640625,-6.16278076171875,-8.58929443359375,-1.047760009765625
1663861885338739500,10.524739501953125,-4.4102325439453125,-9.003494262695312,-1.2393035888671875
1663861885348627200,10.534627197265625,-4.2426300048828125,-8.752105712890625,-1.2871856689453125
1663861885358515000,10.544514892578125,-4.8531646728515625,-8.12481689453125,-1.42364501953125
1663861885368372000,10.5543720703125,-5.83477783203125,-7.3227691650390625,-1.5577239990234375
1663861885378290200,10.564290283203125,-7.3000335693359375,-5.9820098876953125,-2.0078277587890625
1663861885388178000,10.574177978515625,-7.3622894287109375,-3.6787872314453125,-2.568084716796875
1663861885398035200,10.58403515625,-6.9839935302734375,-1.7346954345703125,-3.8777008056640625
1663861885407923000,10.5939228515625,-5.954498291015625,-1.2127532958984375,-5.3621063232421875
1663861885417780000,10.603780029296875,-6.1125030517578125,-1.8711700439453125,-5.771514892578125
1663861885427698200,10.6136982421875,-6.969635009765625,-3.4034576416015625,-5.2447967529296875
1663861885437555500,10.623555419921875,-6.8834381103515625,-4.895050048828125,-4.514556884765625
1663861885447443200,10.633443115234375,-6.926544189453125,-5.814422607421875,-4.746795654296875
1663861885457330700,10.64333056640625,-8.329544067382812,-6.0298919677734375,-6.0995330810546875
1663861885467218400,10.653218505859375,-9.169906616210938,-5.1943206787109375,-7.4594268798828125
1663861885477075700,10.66307568359375,-9.0765380859375,-4.2534027099609375,-8.1944580078125
1663861885486994000,10.672993896484375,-9.167510986328125,-3.2765655517578125,-6.8465118408203125
1663861885496851000,10.682850830078126,-9.2991943359375,-2.7330780029296875,-4.174591064453125
1663861885506738700,10.69273876953125,-9.615219116210938,-3.1089630126953125,-1.53857421875
1663861885516626400,10.70262646484375,-10.489105224609375,-3.7099151611328125,0.388763427734375
1663861885526514200,10.71251416015625,-11.015838623046875,-3.719482421875,0.2714385986328125
1663861885536402000,10.72240185546875,-10.055755615234375,-3.1496734619140625,-1.60321044921875
1663861885546289700,10.73228955078125,-9.124420166015625,-2.20635986328125,-4.406829833984375
1663861885556177200,10.74217724609375,-8.93048095703125,-0.9039154052734375,-7.6270294189453125
1663861885566065000,10.75206494140625,-7.951263427734375,-0.702789306640625,-9.990097045898438
1663861885575952600,10.76195263671875,-8.7293701171875,-1.181640625,-10.215164184570312
1663861885585840400,10.77184033203125,-10.7476806640625,-0.90869140625,-8.855255126953125
1663861885595728100,10.78172802734375,-10.57769775390625,-0.7937774658203125,-5.52252197265625
1663861885605615600,10.79161572265625,-10.11322021484375,-0.870391845703125,-1.9599456787109375
1663861885615473000,10.801472900390625,-11.267227172851562,-0.2838134765625,-0.2433013916015625
1663861885625360600,10.811360595703125,-11.073287963867188,0.798370361328125,-1.6846160888671875
1663861885635248400,10.821248291015625,-10.48193359375,1.7416839599609375,-4.313446044921875
1663861885645136000,10.831135986328125,-10.204193115234375,2.0648956298828125,-6.5711822509765625
1663861885655023600,10.841023681640625,-10.225753784179688,2.0194091796875,-7.3157806396484375
1663861885664911400,10.850911376953125,-10.29278564453125,2.1798248291015625,-6.911163330078125
1663861885674768600,10.8607685546875,-10.565719604492188,2.256439208984375,-5.9774169921875
1663861885684625700,10.870625732421875,-10.951187133789062,2.0792694091796875,-4.9000244140625
1663861885694544000,10.8805439453125,-11.137939453125,2.141510009765625,-3.87530517578125
1663861885704431600,10.890431640625,-11.784378051757812,2.4024810791015625,-3.4491424560546875
1663861885714289000,10.900288818359375,-11.889724731445312,2.9579315185546875,-3.7484130859375
1663861885724146000,10.91014599609375,-11.8681640625,3.39129638671875,-4.165008544921875
1663861885734064000,10.920064208984375,-11.8681640625,3.2045440673828125,-4.5265350341796875
1663861885743921400,10.92992138671875,-11.078079223632812,3.214111328125,-4.98382568359375
1663861885753839600,10.939839599609375,-11.0206298828125,3.745635986328125,-5.3142242431640625
1663861885763697000,10.94969677734375,-11.070907592773438,4.3298187255859375,-5.2352142333984375
1663861885773584400,10.95958447265625,-11.070907592773438,4.61712646484375,-5.1131134033203125
1663861885783472000,10.96947216796875,-10.879364013671875,4.834991455078125,-5.2232513427734375
1663861885793360000,10.97935986328125,-11.157089233398438,4.8685150146484375,-5.484222412109375
1663861885803217200,10.989217041015625,-11.176239013671875,4.6219024658203125,-5.632659912109375
1663861885813104600,10.999104736328125,-10.709381103515625,4.581207275390625,-5.6470184326171875
1663861885822992400,11.008992431640625,-10.855422973632812,4.7368316650390625,-5.4291534423828125
1663861885832880000,11.018880126953125,-11.209762573242188,4.717681884765625,-5.2400054931640625
1663861885842768000,11.028767822265625,-11.386932373046875,4.4615020751953125,-5.3238067626953125
1663861885852625000,11.038625,-11.379745483398438,4.3561553955078125,-5.4626617431640625
1663861885862543000,11.048543212890625,-11.015838623046875,4.353759765625,-5.4722442626953125
1663861885872430800,11.058430908203125,-11.226516723632812,4.14306640625,-5.285491943359375
1663861885882288000,11.0682880859375,-11.647903442382812,3.958709716796875,-5.1179046630859375
1663861885892206300,11.078206298828125,-11.509033203125,3.853363037109375,-4.8952484130859375
1663861885902094000,11.088093994140625,-11.384536743164062,3.630706787109375,-4.70849609375
1663861885911951000,11.097951171875,-11.494674682617188,3.5014190673828125,-4.8545379638671875
1663861885921838800,11.1078388671875,-11.08526611328125,3.5948028564453125,-4.77313232421875
1663861885931726600,11.1177265625,-10.996673583984375,3.4224090576171875,-4.691741943359375
1663861885941614300,11.1276142578125,-11.080474853515625,3.187774658203125,-4.8162384033203125
1663861885951501800,11.137501708984376,-11.037384033203125,3.0561065673828125,-4.871307373046875
1663861885961389600,11.1473896484375,-11.293563842773438,2.8023223876953125,-4.8377838134765625
1663861885971277300,11.15727734375,-11.37017822265625,2.5174102783203125,-4.9814300537109375
1663861885981134600,11.167134521484375,-10.87457275390625,2.268402099609375,-5.285491943359375
1663861885990991600,11.17699169921875,-10.656707763671875,2.0385589599609375,-5.4770355224609375
1663861886000879400,11.18687939453125,-10.733322143554688,1.674652099609375,-5.474639892578125
1663861886010767000,11.19676708984375,-10.75726318359375,1.3083343505859375,-5.3094329833984375
1663861886020685300,11.206685302734375,-10.675857543945312,0.9444122314453125,-5.2495880126953125
1663861886030542600,11.21654248046875,-10.54656982421875,0.4895172119140625,-5.41717529296875
1663861886040399600,11.226399658203125,-10.539382934570312,0.0633544921875,-5.4028167724609375
1663861886050317800,11.23631787109375,-10.606430053710938,-0.3245086669921875,-5.3238067626953125
1663861886060205600,11.24620556640625,-10.431655883789062,-0.60223388671875,-5.38604736328125
1663861886070093300,11.25609326171875,-10.29278564453125,-0.8320770263671875,-5.3405609130859375
1663861886079981000,11.26598095703125,-10.108428955078125,-1.1385345458984375,-5.1298675537109375
1663861886089868500,11.27586865234375,-10.003082275390625,-1.5431671142578125,-4.9431304931640625
1663861886099725800,11.285725830078125,-9.739730834960938,-2.000457763671875,-4.9120025634765625
1663861886109583000,11.2955830078125,-9.5960693359375,-2.4505615234375,-4.9000244140625
1663861886119501300,11.305501220703125,-9.64874267578125,-2.8384246826171875,-5.019744873046875
1663861886129388800,11.315388916015625,-9.818740844726562,-2.9820709228515625,-4.9167938232421875
1663861886139276500,11.325276611328125,-9.770843505859375,-2.9916534423828125,-4.607940673828125
1663861886149164300,11.335164306640625,-9.502700805664062,-2.8408203125,-4.32781982421875
1663861886159052000,11.345052001953125,-9.220184326171875,-2.6229400634765625,-3.9136199951171875
1663861886168939800,11.354939697265625,-8.734161376953125,-2.6109771728515625,-3.657440185546875
1663861886178827300,11.3648271484375,-8.45404052734375,-2.5750579833984375,-3.6909637451171875
1663861886188715000,11.374715087890625,-8.458831787109375,-2.42901611328125,-3.64068603515625
1663861886198602800,11.384602783203125,-8.197860717773438,-2.4625396728515625,-3.8250274658203125
1663861886208490500,11.394490478515625,-8.078155517578125,-2.68280029296875,-3.9399566650390625
1663861886218378200,11.404378173828125,-7.84112548828125,-3.130523681640625,-3.7364501953125
1663861886228235300,11.4142353515625,-7.1994781494140625,-3.575836181640625,-3.4706878662109375
1663861886238092500,11.424092529296875,-6.9935760498046875,-3.9493408203125,-3.2839508056640625
1663861886247980300,11.433980224609375,-6.79486083984375,-4.4185943603515625,-3.192962646484375
1663861886257868000,11.443867919921875,-6.4596710205078125,-4.9022216796875,-3.2169036865234375
1663861886267755500,11.453755615234375,-6.3806610107421875,-5.330780029296875,-3.20733642578125
1663861886277612800,11.46361279296875,-6.536285400390625,-5.77850341796875,-3.1666259765625
1663861886287500500,11.47350048828125,-6.1843414306640625,-6.111297607421875,-3.0157928466796875
1663861886297388300,11.48338818359375,-6.009552001953125,-6.4297332763671875,-2.81707763671875
1663861886307275800,11.49327587890625,-5.6623992919921875,-6.7529449462890625,-2.467529296875
1663861886317163500,11.50316357421875,-4.8962554931640625,-7.0641937255859375,-2.1634521484375
1663861886327051300,11.51305126953125,-4.74542236328125,-7.2485504150390625,-2.0174102783203125
1663861886336939000,11.52293896484375,-4.6472625732421875,-7.3419189453125,-2.0150146484375
1663861886346826800,11.53282666015625,-4.32403564453125,-7.3419189453125,-2.072479248046875
1663861886356714200,11.54271435546875,-4.192352294921875,-7.327545166015625,-1.99346923828125
1663861886366602000,11.55260205078125,-4.010406494140625,-7.459228515625,-2.029388427734375
1663861886376489700,11.56248974609375,-3.6081695556640625,-7.6555633544921875,-2.084442138671875
1663861886386377500,11.57237744140625,-3.059906005859375,-7.82794189453125,-1.9743194580078125
1663861886396234500,11.582234375,-2.786956787109375,-8.330718994140625,-2.2999267578125
1663861886406122200,11.592122314453125,-2.57867431640625,-8.8526611328125,-2.663848876953125
1663861886416010000,11.602010009765625,-2.3440399169921875,-9.051376342773438,-2.4818878173828125
1663861886425897700,11.611897705078125,-2.2291107177734375,-8.931671142578125,-2.1012115478515625
1663861886435754800,11.621754638671876,-2.21954345703125,-8.658721923828125,-2.146697998046875
1663861886445612000,11.631612060546875,-2.236297607421875,-8.206222534179688,-2.417236328125
1663861886455530200,11.6415302734375,-2.1429290771484375,-7.5980987548828125,-2.623138427734375
1663861886465418000,11.65141796875,-1.920257568359375,-6.8702545166015625,-2.6446990966796875
1663861886475305700,11.6613056640625,-1.561126708984375,-6.2836761474609375,-2.5920257568359375
1663861886485162800,11.671162841796875,-1.2355194091796875,-5.9245452880859375,-2.6925811767578125
1663861886495050500,11.681050537109375,-1.25946044921875,-5.9365234375,-2.8577728271484375
1663861886504938200,11.690938232421875,-1.19482421875,-6.3411407470703125,-2.908050537109375
1663861886514826000,11.700825927734375,-0.5483856201171875,-6.85589599609375,-3.001434326171875
1663861886524683000,11.71068310546875,0.2704315185546875,-7.4185333251953125,-3.202545166015625
1663861886534601200,11.720601318359375,0.7133636474609375,-8.342697143554688,-3.5640716552734375
1663861886544489000,11.730489013671875,0.0429840087890625,-9.597259521484375,-4.028533935546875
1663861886554346200,11.74034619140625,-1.0200347900390625,-10.983505249023438,-4.2679595947265625
1663861886564234000,11.75023388671875,-1.3504486083984375,-12.168624877929688,-4.0931854248046875
1663861886574121500,11.76012158203125,-1.0463714599609375,-12.788726806640625,-3.595184326171875
1663861886583978800,11.769978759765625,-0.629791259765625,-12.850982666015625,-3.0205841064453125
1663861886593866500,11.779866455078125,-0.787811279296875,-12.400863647460938,-2.56329345703125
1663861886603754200,11.789754150390625,-1.2881927490234375,-11.7257080078125,-2.2233123779296875
1663861886613641700,11.799641845703125,-1.211578369140625,-11.07208251953125,-2.046142578125
1663861886623499000,11.8094990234375,-0.78302001953125,-10.66986083984375,-2.0341644287109375
1663861886633417200,11.819417236328125,-0.5340118408203125,-10.432830810546875,-1.9431915283203125
1663861886643305000,11.829304931640625,-0.1413726806640625,-10.200592041015625,-1.90966796875
1663861886653192700,11.839192626953125,0.6199798583984375,-10.12158203125,-2.0700836181640625
1663861886663049700,11.8490498046875,1.0317840576171875,-10.10003662109375,-2.02459716796875
1663861886672937500,11.8589375,0.7205352783203125,-10.104827880859375,-1.897705078125
1663861886682825200,11.8688251953125,0.311126708984375,-10.10003662109375,-1.77081298828125
1663861886692713000,11.878712890625,0.4116973876953125,-10.085678100585938,-1.5457611083984375
1663861886702570000,11.888570068359375,0.710968017578125,-10.0784912109375,-1.2943572998046875
1663861886712488200,11.89848828125,0.6175994873046875,-9.997085571289062,-1.15789794921875
1663861886722376000,11.9083759765625,0.2536773681640625,-9.913284301757812,-1.1602935791015625
1663861886732233200,11.918233154296875,0.256072998046875,-9.90850830078125,-1.3518218994140625
1663861886742121000,11.928120849609375,0.3231048583984375,-9.949203491210938,-1.4212493896484375
1663861886751978000,11.93797802734375,0.098052978515625,-9.977935791015625,-1.428436279296875
1663861886761896200,11.947896240234375,-0.1844635009765625,-9.997085571289062,-1.6678619384765625
1663861886771784000,11.957783935546875,-0.1725006103515625,-10.13116455078125,-2.0174102783203125
1663861886781671700,11.967671630859375,0.0118560791015625,-10.202987670898438,-2.410064697265625
1663861886791559400,11.977559326171875,0.14593505859375,-10.243682861328125,-2.7356719970703125
1663861886801447000,11.987447021484375,0.181854248046875,-10.246078491210938,-3.0181884765625
1663861886811334700,11.997334716796875,0.0477752685546875,-10.291580200195312,-3.236053466796875
1663861886821222400,12.007222412109375,-0.177276611328125,-10.365798950195312,-3.20733642578125
1663861886831079700,12.01707958984375,-0.3592376708984375,-10.329879760742188,-3.00860595703125
1663861886840967200,12.02696728515625,-0.4597930908203125,-10.219741821289062,-2.8074951171875
1663861886850855000,12.03685498046875,-0.43585205078125,-10.155105590820312,-2.7045440673828125
1663861886860742700,12.04674267578125,-0.414306640625,-10.097640991210938,-2.8050994873046875
1663861886870630400,12.05663037109375,-0.3592376708984375,-10.061737060546875,-3.0301666259765625
1663861886880518100,12.06651806640625,-0.2946014404296875,-9.980331420898438,-3.25042724609375
1663861886890405600,12.076405517578126,-0.2012176513671875,-9.829498291015625,-3.360565185546875
1663861886900263000,12.086262939453125,-0.292205810546875,-9.681045532226562,-3.28155517578125
1663861886910150700,12.096150634765625,-0.5483856201171875,-9.590072631835938,-3.0636749267578125
1663861886920038400,12.106038330078125,-0.8500518798828125,-9.544586181640625,-2.8793182373046875
1663861886929926100,12.115926025390625,-1.106231689453125,-9.609222412109375,-2.8050994873046875
1663861886939783200,12.125783203125,-1.4055023193359375,-9.724151611328125,-2.7141265869140625
1663861886949671000,12.1356708984375,-1.553955078125,-9.7193603515625,-2.6877899169921875
1663861886959528200,12.145528076171875,-1.4246673583984375,-9.556549072265625,-2.6877899169921875
1663861886969446400,12.1554462890625,-1.273834228515625,-9.376983642578125,-2.7452545166015625
1663861886979334000,12.165333984375,-1.2834014892578125,-9.20220947265625,-2.800323486328125
1663861886989191200,12.175191162109375,-1.4486083984375,-9.070526123046875,-3.03973388671875
1663861886999079000,12.185078857421875,-1.697601318359375,-8.826324462890625,-3.382110595703125
1663861887008966700,12.194966552734375,-2.1644744873046875,-8.450439453125,-3.7125091552734375
1663861887018854100,12.204854248046875,-2.48529052734375,-8.055389404296875,-3.8130645751953125
1663861887028711400,12.21471142578125,-2.078277587890625,-7.669921875,-3.573638916015625
1663861887038599200,12.22459912109375,-1.1301727294921875,-7.2916412353515625,-3.061279296875
1663861887048517400,12.234517333984375,-0.229949951171875,-7.1240386962890625,-2.68060302734375
1663861887058374400,12.24437451171875,-0.4119110107421875,-7.1910858154296875,-2.747650146484375
1663861887068262100,12.25426220703125,-1.688018798828125,-7.6363983154296875,-2.6470794677734375
1663861887078119400,12.264119384765625,-3.510009765625,-8.3450927734375,-2.6351165771484375
1663861887088037600,12.27403759765625,-4.8603363037109375,-9.207000732421875,-2.7260894775390625
1663861887097894700,12.283894775390625,-4.7262725830078125,-9.690628051757812,-2.369354248046875
1663861887107782400,12.293782470703125,-3.3160858154296875,-9.834274291992188,-1.9288330078125
1663861887117670100,12.303670166015625,-2.18841552734375,-9.678665161132812,-1.8689727783203125
1663861887127558000,12.313557861328125,-2.521209716796875,-9.278823852539062,-2.137115478515625
1663861887137445600,12.323445556640625,-3.8499908447265625,-8.828720092773438,-2.5034332275390625
1663861887147333000,12.3333330078125,-4.9058380126953125,-8.45281982421875,-2.72369384765625
1663861887157220900,12.343220947265625,-4.9968109130859375,-7.806396484375,-2.802703857421875
1663861887167108600,12.353108642578125,-4.5945892333984375,-7.061798095703125,-3.001434326171875
1663861887176966000,12.3629658203125,-4.7047119140625,-6.365081787109375,-3.372528076171875
1663861887186853600,12.372853515625,-4.319244384765625,-5.6228790283203125,-3.774749755859375
1663861887196741000,12.3827412109375,-4.8387908935546875,-4.6987152099609375,-4.35894775390625
1663861887206628900,12.39262890625,-6.062225341796875,-3.585418701171875,-5.0293121337890625
1663861887216516600,12.4025166015625,-5.2673492431640625,-2.297332763671875,-5.4818267822265625
1663861887226404400,12.412404296875,-5.257781982421875,-1.2845916748046875,-5.94390869140625
1663861887236292000,12.4222919921875,-6.035888671875,-1.6078033447265625,-6.16656494140625
1663861887246179600,12.4321796875,-6.452484130859375,-2.8910980224609375,-5.5512542724609375
1663861887256067300,12.4420673828125,-7.398193359375,-4.6915283203125,-4.777923583984375
1663861887265955000,12.451955078125,-7.8483123779296875,-6.25494384765625,-4.5624542236328125
1663861887275842800,12.4618427734375,-7.594512939453125,-6.788848876953125,-4.830596923828125
1663861887285730600,12.47173046875,-8.118850708007812,-6.1280517578125,-5.378875732421875
1663861887295618000,12.4816181640625,-8.372634887695312,-4.863922119140625,-5.55364990234375
1663861887305505800,12.491505859375,-8.45404052734375,-3.891876220703125,-4.5696258544921875
1663861887315363000,12.501363037109375,-9.112442016601562,-3.6045684814453125,-2.8793182373046875
1663861887325250800,12.511250732421875,-9.998291015625,-4.07861328125,-1.5098419189453125
1663861887335138300,12.52113818359375,-10.570510864257812,-4.7465972900390625,-1.33746337890625
1663861887345026000,12.531026123046875,-10.287994384765625,-4.789703369140625,-1.955169677734375
1663861887354913800,12.540913818359375,-9.916900634765625,-4.1097412109375,-2.991851806640625
1663861887364801500,12.550801513671875,-8.779647827148438,-3.015594482421875,-4.619903564453125
1663861887374658600,12.560658447265626,-8.082931518554688,-1.8520050048828125,-6.7770843505859375
1663861887384546300,12.57054638671875,-8.511505126953125,-1.2582550048828125,-8.177688598632812
1663861887394434000,12.58043408203125,-9.248916625976562,-1.4162750244140625,-8.505691528320312
1663861887404321800,12.59032177734375,-10.453201293945312,-1.978912353515625,-7.75152587890625
1663861887414209500,12.60020947265625,-10.541778564453125,-2.65167236328125,-5.9055938720703125
1663861887424097300,12.61009716796875,-11.262435913085938,-2.6229400634765625,-3.6239166259765625
1663861887433984800,12.61998486328125,-11.430038452148438,-1.981292724609375,-1.924041748046875
1663861887443842000,12.629842041015625,-11.037384033203125,-0.700408935546875,-2.046142578125
1663861887453729800,12.639729736328125,-10.833877563476562,0.535003662109375,-4.258392333984375
1663861887463617500,12.649617431640625,-10.489105224609375,1.8422393798828125,-5.7667388916015625
1663861887473505000,12.659505126953125,-9.849853515625,1.760833740234375,-5.9151763916015625
1663861887483392800,12.669392822265625,-9.883377075195312,0.7528839111328125,-6.0109405517578125
1663861887493280500,12.679280517578125,-10.529815673828125,0.8175201416015625,-5.812225341796875
1663861887503168300,12.689168212890625,-11.061325073242188,1.70098876953125,-5.47943115234375
1663861887513025300,12.699025390625,-10.254470825195312,2.28277587890625,-4.65582275390625
1663861887522913000,12.7089130859375,-9.936050415039062,2.4719085693359375,-4.7803192138671875
1663861887532770300,12.718770263671875,-10.774017333984375,2.7041473388671875,-5.917572021484375
1663861887542658000,12.728657958984375,-11.185821533203125,3.345794677734375,-6.46343994140625
1663861887552545500,12.738545654296875,-11.006256103515625,3.69775390625,-6.156982421875
1663861887562433300,12.748433349609375,-10.697402954101562,3.2165069580078125,-5.855316162109375
1663861887572290600,12.75829052734375,-10.5250244140625,2.9986419677734375,-5.85052490234375
1663861887582178300,12.76817822265625,-10.924850463867188,3.439178466796875,-5.6135101318359375
1663861887592065800,12.778065673828126,-11.511428833007812,3.7504119873046875,-5.290283203125
1663861887601923000,12.787923095703125,-11.690994262695312,3.7743682861328125,-4.967071533203125
1663861887611841300,12.79784130859375,-11.786773681640625,3.7216949462890625,-4.5744171142578125
1663861887621698600,12.807698486328125,-12.160263061523438,3.333831787109375,-4.3182373046875
1663861887631616800,12.81761669921875,-12.466720581054688,3.065673828125,-4.081207275390625
1663861887641504500,12.82750439453125,-12.536148071289062,3.039337158203125,-3.9758758544921875
1663861887651392000,12.83739208984375,-12.53375244140625,3.0944061279296875,-4.2440185546875
