time,seconds_elapsed,z,y,x
1663861875073297200,0.259297119140625,0.26758861541748047,-0.518481969833374,-0.3631359934806824
1663861875083184600,0.2691845703125,0.4918336868286133,-0.46265172958374023,0.20739758014678955
1663861875093102800,0.279102783203125,1.0400352478027344,-0.503392219543457,0.638793408870697
1663861875102990600,0.288990478515625,1.3190412521362305,-0.5710036754608154,0.6922928690910339
1663861875112878300,0.29887841796875,0.6090593338012695,-0.5803883075714111,0.6249403953552246
1663861875122766000,0.30876611328125,-0.39649009704589844,-0.6405544281005859,0.273831844329834
1663861875132623000,0.318623046875,-1.1370582580566406,-0.7735733985900879,-0.18354099988937378
1663861875142480400,0.32848046875,-1.8139219284057617,-1.6658716201782227,-1.4441205263137817
1663861875152368000,0.3383681640625,-2.0067148208618164,-1.8221826553344727,-1.8868157863616943
1663861875162225200,0.34822509765625,-1.0367918014526367,-1.1274070739746094,-1.3537285327911377
1663861875172113000,0.35811279296875,-0.4248647689819336,-0.4853384494781494,-0.7468104362487793
1663861875182031000,0.368031005859375,0.5983190536499023,-0.1062021255493164,-0.28534287214279175
1663861875191888400,0.377888427734375,1.6613702774047852,0.21973419189453125,0.35010164976119995
1663861875201776000,0.387776123046875,1.9808530807495117,0.30954456329345703,1.0183250904083252
1663861875211664000,0.397663818359375,1.3746938705444336,0.22350406646728516,1.5286781787872314
1663861875221521000,0.40752099609375,0.3285360336303711,0.03150534629821777,1.2041783332824707
1663861875231408600,0.41740869140625,-1.0877132415771484,-0.22277069091796875,-0.11620259284973145
1663861875241326800,0.427326904296875,-1.6667852401733398,-0.4813718795776367,-1.661240816116333
1663861875251214600,0.437214599609375,-0.4537696838378906,-1.0122156143188477,-2.112285614013672
1663861875261071600,0.447071533203125,0.6593446731567383,-1.3852319717407227,-1.6842713356018066
1663861875270959400,0.45695947265625,1.5388507843017578,-1.3080737590789795,-0.8599763512611389
1663861875280847000,0.46684716796875,1.6001205444335938,-0.8534862995147705,-0.4811325669288635
1663861875290734800,0.47673486328125,0.9020805358886719,-0.3927428722381592,-0.2684653699398041
1663861875300622600,0.48662255859375,0.20462799072265625,-0.10627031326293945,0.08405375480651855
1663861875310510000,0.496510009765625,0.27236461639404297,-0.07523226737976074,0.37502947449684143
1663861875320397800,0.506397705078125,0.9717216491699219,-0.11007356643676758,0.5803969502449036
1663861875330285600,0.51628564453125,1.0176219940185547,-0.19591546058654785,1.017167568206787
1663861875340173300,0.52617333984375,0.9446315765380859,0.05977177619934082,1.4277918338775635
1663861875350061000,0.53606103515625,1.3017568588256836,0.48712778091430664,1.3985592126846313
1663861875359918000,0.54591796875,0.4373760223388672,0.30333447456359863,1.2380733489990234
1663861875369805800,0.555805908203125,-0.43776798248291016,0.0062313079833984375,0.08876223862171173
1663861875379693600,0.565693603515625,-1.1288118362426758,-0.3554091453552246,-1.0365383625030518
1663861875389581300,0.575581298828125,-0.7876758575439453,-0.6941921710968018,-1.9424657821655273
1663861875399469000,0.585468994140625,-0.9498157501220703,-0.7028071880340576,-1.7025947570800781
1663861875409356500,0.5953564453125,-1.3306951522827148,-0.3688676357269287,-0.4363786578178406
1663861875419244300,0.605244384765625,-0.8007965087890625,-0.2810840606689453,0.3425758183002472
1663861875429132000,0.615132080078125,-0.4060544967651367,-0.08139395713806152,0.691403329372406
1663861875439019800,0.625019775390625,-0.16048717498779297,0.5786066055297852,0.6454867720603943
1663861875448907500,0.634907470703125,-0.8249702453613281,0.43640923500061035,0.2603946030139923
1663861875458764500,0.6447646484375,-1.5939416885375977,0.16346287727355957,-0.4729022681713104
1663861875468652300,0.65465234375,-2.1149301528930664,-0.18798303604125977,-1.148695945739746
1663861875478540000,0.6645400390625,-1.4097957611083984,-0.46854496002197266,-1.3015198707580566
1663861875488427800,0.674427734375,0.5254707336425781,-0.41195201873779297,-1.1393598318099976
1663861875498315300,0.684315185546875,1.5619840621948242,-0.2706286907196045,-0.5951279997825623
1663861875508203000,0.694203125,1.2875728607177734,-0.25795841217041016,0.022082507610321045
1663861875518060300,0.704060302734375,0.44812679290771484,-0.23651528358459473,-0.09143674373626709
1663861875527948000,0.713947998046875,-0.5814533233642578,0.010794401168823242,-0.5278420448303223
1663861875537835500,0.72383544921875,-1.2209978103637695,-0.002696514129638672,-0.6159944534301758
1663861875547723300,0.73372314453125,-1.4626092910766602,0.03654742240905762,-0.3528657555580139
1663861875557611000,0.743611083984375,-1.0759601593017578,-0.04378652572631836,-0.03157871961593628
1663861875567498800,0.753498779296875,-0.27550792694091797,-0.24900436401367188,-0.3381209373474121
1663861875577386500,0.763386474609375,0.4533252716064453,-0.2043459415435791,-0.31081879138946533
1663861875587243500,0.773243408203125,1.5459260940551758,-0.35690832138061523,-0.3107595443725586
1663861875597131300,0.78313134765625,1.7094526290893555,-0.37643003463745117,-0.19537389278411865
1663861875607019000,0.79301904296875,0.4892873764038086,0.13643121719360352,0.17804068326950073
1663861875616906800,0.80290673828125,-0.8758087158203125,0.33128809928894043,0.32425618171691895
1663861875626794500,0.81279443359375,-1.3357601165771484,0.28027892112731934,0.14813053607940674
1663861875636682000,0.822681884765625,-1.1636219024658203,0.0006558895111083984,-0.36233222484588623
1663861875646539300,0.832539306640625,-0.7277936935424805,-0.43437814712524414,-0.8049541711807251
1663861875656427000,0.842427001953125,-0.059584617614746094,-0.6375007629394531,-0.8486109972000122
1663861875666314800,0.852314697265625,0.1755819320678711,-0.8879923820495605,-1.1159141063690186
1663861875676202200,0.8622021484375,-0.4283437728881836,-0.8586013317108154,-0.9927536249160767
1663861875686090000,0.872090087890625,-2.1402587890625,-0.4547545909881592,-0.22661542892456055
1663861875695977700,0.881977783203125,-4.667182922363281,-0.15612578392028809,0.025728464126586914
1663861875705865500,0.891865478515625,-6.681407928466797,-0.5173561573028564,-0.3281841278076172
1663861875715722500,0.901722412109375,-7.640852928161621,-1.8810899257659912,0.32218003273010254
1663861875725610200,0.9116103515625,-6.887124061584473,-4.049319267272949,1.9467747211456299
1663861875735514000,0.92151416015625,-4.830371379852295,-5.445457458496094,1.7935254573822021
1663861875745371400,0.931371337890625,-3.3306069374084473,-5.53872013092041,0.26878976821899414
1663861875755228400,0.941228515625,-2.955683708190918,-5.360657691955566,-2.1249208450317383
1663861875765146600,0.951146728515625,-2.3002657890319824,-5.96409797668457,-4.258702754974365
1663861875775034400,0.961034423828125,-1.9413776397705078,-6.989208221435547,-3.731867551803589
1663861875784922000,0.970922119140625,-1.6677360534667969,-6.772803783416748,-1.4279532432556152
1663861875794809900,0.980809814453125,-2.4910712242126465,-6.022328853607178,-0.5651674270629883
1663861875804697600,0.990697509765625,-5.1736531257629395,-5.540365219116211,-0.8107032775878906
1663861875814585000,1.000585205078125,-8.343868255615234,-4.903768539428711,-0.2916259765625
1663861875824472800,1.010472900390625,-9.631834030151367,-4.652617931365967,0.008125782012939453
1663861875834360600,1.020360595703125,-8.175500869750977,-5.935990333557129,-2.770181179046631
1663861875844217900,1.0302177734375,-5.1641340255737305,-8.714186668395996,-7.341441631317139
1663861875854105300,1.040105224609375,-2.9955713748931885,-11.539527893066406,-9.88099193572998
1663861875863993000,1.0499931640625,-1.8226947784423828,-12.36052417755127,-9.19317626953125
1663861875873880800,1.059880859375,-1.7564151287078857,-11.708515167236328,-6.8089070320129395
1663861875883768600,1.0697685546875,-1.7039520740509033,-10.93471622467041,-2.3177995681762695
1663861875893625600,1.07962548828125,-1.8616712093353271,-9.509600639343262,1.9801182746887207
1663861875903483000,1.08948291015625,-1.566651463508606,-7.572901725769043,4.1210784912109375
1663861875913370600,1.09937060546875,-0.986845850944519,-6.462413311004639,4.683114528656006
1663861875923258400,1.10925830078125,-0.32115352153778076,-6.113497734069824,5.2366838455200195
1663861875933145900,1.119145751953125,0.9132554531097412,-6.061635494232178,5.852882385253906
1663861875943033600,1.12903369140625,3.120915651321411,-6.101977348327637,7.319679260253906
1663861875952921300,1.13892138671875,4.666119575500488,-5.308349132537842,9.45947265625
1663861875962809000,1.14880908203125,4.710561275482178,-4.220462799072266,10.731339454650879
1663861875972696800,1.15869677734375,4.10712194442749,-3.6914350986480713,10.83909797668457
1663861875982584300,1.168584228515625,2.958380937576294,-2.7768845558166504,11.197301864624023
1663861875992441600,1.178441650390625,1.5771329402923584,-1.5340111255645752,11.604893684387207
1663861876002299000,1.188298828125,0.7450104355812073,-0.0270082950592041,12.39207649230957
1663861876012186400,1.198186279296875,-0.5668694376945496,1.5504803657531738,13.334458351135254
1663861876022074000,1.20807421875,-2.009486436843872,2.6276607513427734,14.311845779418945
1663861876031961900,1.2179619140625,-3.1950926780700684,3.3855652809143066,14.719295501708984
1663861876041849600,1.227849609375,-2.640907049179077,4.268355846405029,15.363031387329102
1663861876051737300,1.2377373046875,-1.1849652528762817,4.718288898468018,15.123786926269531
1663861876061625000,1.247625,-0.143235445022583,5.111476898193359,15.007648468017578
1663861876071482000,1.257482177734375,-0.49021828174591064,6.1708664894104,15.12314224243164
1663861876081400300,1.267400390625,-2.300337553024292,7.18937873840332,13.934393882751465
1663861876091257600,1.277257568359375,-4.6480937004089355,7.741127014160156,12.170727729797363
1663861876101145300,1.287145263671875,-6.2621684074401855,8.044620513916016,10.143425941467285
1663861876111032800,1.29703271484375,-6.325197696685791,8.042303085327148,7.752538681030273
1663861876120920600,1.306920654296875,-5.668339729309082,7.845327377319336,5.9709882736206055
1663861876130808300,1.316808349609375,-4.928589344024658,7.712813377380371,4.530277252197266
1663861876140696000,1.326696044921875,-4.762325286865234,7.383803844451904,2.770822525024414
1663861876150583800,1.336583740234375,-5.51799201965332,6.928793907165527,1.215693473815918
1663861876160471300,1.34647119140625,-6.120789527893066,5.895792007446289,-0.7768325805664062
1663861876170359000,1.356359130859375,-5.942879676818848,4.491830825805664,-2.5539064407348633
1663861876180246800,1.366246826171875,-4.306199550628662,3.592346429824829,-3.5643301010131836
1663861876190134500,1.376134521484375,-1.8388798236846924,3.141700029373169,-3.969625473022461
1663861876200022300,1.386022216796875,-1.5376179218292236,2.1858458518981934,-3.2052345275878906
1663861876209879300,1.39587939453125,-0.9826260805130005,-0.21175670623779297,-2.714808464050293
1663861876219767000,1.40576708984375,-4.21518611907959,-3.5229220390319824,-2.7066164016723633
1663861876229624300,1.415624267578125,-9.578676223754883,-5.030403137207031,-2.839773178100586
1663861876239511800,1.42551171875,-12.876214027404785,-2.3858413696289062,-3.989503860473633
1663861876249369000,1.435369140625,-12.973793983459473,4.58242130279541,-8.608824729919434
1663861876259256800,1.4452568359375,-3.7810938358306885,4.64709997177124,-7.080440521240234
1663861876269175000,1.455175048828125,-3.579821825027466,-1.9292335510253906,-1.9638161659240723
1663861876279032000,1.465031982421875,10.92840576171875,1.4633865356445312,-3.3533759117126465
1663861876288919800,1.474919921875,20.346647262573242,-6.581698894500732,14.120515823364258
1663861876298807600,1.4848076171875,17.390270233154297,-6.607609748840332,11.005290985107422
1663861876308695300,1.4946953125,10.622008323669434,0.3798232078552246,2.756284713745117
1663861876318583000,1.5045830078125,-12.972405433654785,1.7895455360412598,0.5909328460693359
1663861876328470800,1.514470703125,-13.151070594787598,0.7250065803527832,0.7145628929138184
1663861876338358300,1.524358154296875,-1.1827009916305542,-1.269880771636963,4.317206859588623
1663861876348246000,1.53424609375,-0.8212696313858032,-3.3019585609436035,3.649484157562256
1663861876358133800,1.5441337890625,0.19116050004959106,-3.4568262100219727,0.01736307144165039
1663861876368021500,1.554021484375,1.2702900171279907,-4.806780815124512,-2.9769482612609863
1663861876377909200,1.5639091796875,-0.9756713509559631,-7.001495361328125,-5.966784477233887
1663861876387796700,1.573796630859375,0.2097059041261673,-7.124496936798096,-3.4330482482910156
1663861876397654000,1.583654052734375,0.8516136407852173,-6.415936470031738,3.7373318672180176
1663861876407511300,1.59351123046875,-1.383436679840088,-3.4928693771362305,4.710886478424072
1663861876417398800,1.603398681640625,0.010254472494125366,-0.8182692527770996,0.754664421081543
1663861876427286500,1.61328662109375,0.15933442115783691,-2.7104978561401367,-1.7936091423034668
1663861876437174300,1.62317431640625,-0.34585893154144287,-3.847148895263672,-2.7282466888427734
1663861876447062000,1.63306201171875,-1.8823591470718384,-4.072940826416016,-1.9513726234436035
1663861876456949800,1.64294970703125,-0.24520307779312134,-1.477262020111084,0.05257225036621094
1663861876466837200,1.652837158203125,-2.7179596424102783,-1.5029339790344238,0.028702259063720703
1663861876476725000,1.66272509765625,-2.3271067142486572,-1.9859232902526855,-1.5665631294250488
1663861876486612700,1.67261279296875,-0.26894110441207886,-2.690457344055176,-4.315655708312988
1663861876496500500,1.68250048828125,1.0486512184143066,-2.3348708152770996,-3.665039539337158
1663861876506388200,1.69238818359375,1.1781024932861328,-3.3673129081726074,-1.7769484519958496
1663861876516276000,1.70227587890625,-2.166618824005127,-2.532538414001465,0.6114721298217773
1663861876526163500,1.71216357421875,-0.6494566202163696,-1.0947637557983398,2.418703079223633
1663861876536051200,1.72205126953125,0.8321579098701477,-3.677826404571533,-0.023305892944335938
1663861876545908500,1.731908447265625,0.9465025663375854,-4.463863372802734,-1.7538056373596191
1663861876555796200,1.741796142578125,-4.549060821533203,-0.06783771514892578,2.335261344909668
1663861876565683700,1.75168359375,1.1528886556625366,4.591238975524902,3.8428549766540527
1663861876575571500,1.761571533203125,2.876189708709717,6.143560409545898,-0.7883191108703613
1663861876585459200,1.771459228515625,0.3992341160774231,2.167391777038574,-6.680009365081787
1663861876595347000,1.781346923828125,0.9775123000144958,-1.0895652770996094,-1.9708361625671387
1663861876605234700,1.791234619140625,0.979938805103302,-1.2275009155273438,0.14818286895751953
1663861876615091700,1.801091796875,0.08318066596984863,-1.0947189331054688,-0.4418764114379883
1663861876624979500,1.8109794921875,-1.047006368637085,0.6659088134765625,-0.27510929107666016
1663861876634867200,1.8208671875,-1.8405232429504395,3.3165903091430664,-0.8277754783630371
1663861876644755000,1.8307548828125,-0.2566301226615906,3.8559579849243164,-1.7808647155761719
1663861876654642400,1.840642333984375,0.34885352849960327,4.800144195556641,-2.132716178894043
1663861876664530200,1.8505302734375,-0.6188241839408875,3.503274917602539,-3.455284595489502
1663861876674418000,1.86041796875,-0.2903289198875427,2.9935340881347656,-3.7056069374084473
1663861876684275200,1.870275146484375,0.678956151008606,2.3880081176757812,-2.5668692588806152
1663861876694162700,1.88016259765625,0.2867046594619751,1.7020893096923828,-1.6882829666137695
1663861876704050400,1.890050537109375,-1.5803096294403076,1.6262741088867188,-2.0780282020568848
1663861876713938200,1.899938232421875,0.9532440900802612,0.031429290771484375,-2.525341510772705
1663861876723826000,1.909825927734375,0.6217848062515259,-0.6058368682861328,-2.2339601516723633
1663861876733713700,1.919713623046875,0.25887173414230347,0.15426254272460938,-0.8980281352996826
1663861876743570700,1.92957080078125,2.251229763031006,0.7677745819091797,0.30570244789123535
1663861876753458400,1.93945849609375,0.9521040320396423,-0.04393482208251953,-0.39392852783203125
1663861876763346200,1.94934619140625,-0.11645674705505371,-1.3453855514526367,-0.6695952415466309
1663861876773234000,1.95923388671875,-1.9208250045776367,-3.105955123901367,-0.3912980556488037
1663861876783121700,1.96912158203125,-3.0065925121307373,-3.365386962890625,-1.5155279636383057
1663861876793009200,1.979009033203125,-0.48617711663246155,-2.2366695404052734,-1.8266005516052246
1663861876802866400,1.988866455078125,2.508631944656372,-0.8131866455078125,-1.235062599182129
1663861876812754200,1.998754150390625,1.1739754676818848,-2.528944969177246,0.6243147850036621
1663861876822642000,2.008641845703125,-1.2547600269317627,-6.69017219543457,0.5684299468994141
1663861876832529400,2.018529296875,-1.3840869665145874,-9.729304313659668,0.2144153118133545
1663861876842417200,2.028417236328125,-1.9467958211898804,-10.570611000061035,0.3591407537460327
1663861876852305000,2.038304931640625,-2.6363580226898193,-9.838160514831543,1.125974416732788
1663861876862192600,2.048192626953125,-3.5184178352355957,-7.927480697631836,2.426764488220215
1663861876872049700,2.058049560546875,-2.5392496585845947,-4.557194709777832,1.964919924736023
1663861876881937400,2.0679375,-1.6950421333312988,-2.2875823974609375,0.18634212017059326
1663861876891794700,2.077794677734375,-0.31054210662841797,-0.7519998550415039,-0.6004379987716675
1663861876901682400,2.087682373046875,0.48781538009643555,-0.7354574203491211,-1.718849778175354
1663861876911570000,2.09756982421875,-0.08552846312522888,-3.3809518814086914,-3.5067315101623535
1663861876921457700,2.107457763671875,-0.7111514806747437,-2.9309825897216797,-2.878506660461426
1663861876931345400,2.117345458984375,-0.5824896097183228,-0.20702266693115234,-0.8757437467575073
1663861876941233200,2.127233154296875,-0.5029467344284058,0.13612747192382812,-0.8157151937484741
1663861876951090200,2.137090087890625,-0.11120042204856873,-0.2902050018310547,-1.6971255540847778
1663861876960978000,2.14697802734375,0.3341991901397705,0.2029590606689453,-1.01176118850708
1663861876970835200,2.156835205078125,-0.5368101000785828,0.4715595245361328,-0.04385221004486084
1663861876980753400,2.16675341796875,-1.3657976388931274,-0.10491943359375,0.5531651377677917
1663861876990610400,2.1766103515625,-0.8414088487625122,-1.2960882186889648,1.193315863609314
1663861877000498200,2.186498291015625,2.7326676845550537,0.8684310913085938,3.5384714603424072
1663861877010386000,2.196385986328125,3.855224132537842,2.8197193145751953,4.066956520080566
1663861877020243200,2.2062431640625,4.237878799438477,2.990203857421875,1.9794347286224365
1663861877030161400,2.216161376953125,1.9833756685256958,1.7795915603637695,0.090207040309906
1663861877040049200,2.226049072265625,-1.054479956626892,1.031041145324707,-1.1511139869689941
1663861877049936600,2.2359365234375,-3.495333433151245,-0.2590045928955078,-2.5744564533233643
1663861877059824400,2.245824462890625,-5.6433305740356445,-2.215972900390625,-3.870166778564453
1663861877069681700,2.255681640625,-4.046420574188232,-2.484625816345215,-3.5141468048095703
1663861877079569400,2.2655693359375,1.960127592086792,-1.6173372268676758,-1.5107985734939575
1663861877089457000,2.275456787109375,4.193362236022949,-1.1760826110839844,1.2451058626174927
1663861877099344600,2.2853447265625,4.0884857177734375,-0.9676113128662109,2.8283607959747314
1663861877109232400,2.295232421875,2.737126111984253,-0.44364166259765625,2.8004226684570312
1663861877119120100,2.3051201171875,-0.33203816413879395,0.20681476593017578,1.8960068225860596
1663861877129007900,2.3150078125,-3.5524516105651855,0.6569700241088867,1.3334009647369385
1663861877138895400,2.324895263671875,-4.104734420776367,0.9306116104125977,0.01580524444580078
1663861877148783000,2.334783203125,-2.6149353981018066,1.6011667251586914,0.5976625680923462
1663861877158670800,2.3446708984375,-2.747436285018921,1.485945701599121,0.9511651992797852
1663861877168558600,2.35455859375,-2.7814226150512695,0.8374185562133789,0.28801727294921875
1663861877178446300,2.3644462890625,-1.8457379341125488,0.8803634643554688,-0.03966069221496582
1663861877188333800,2.374333740234375,0.5415899753570557,0.41440391540527344,-1.4713664054870605
1663861877198191000,2.384191162109375,1.2565028667449951,-0.4790678024291992,-3.492069721221924
1663861877208078800,2.394078857421875,0.459585964679718,-0.6585960388183594,-3.8517274856567383
1663861877217936000,2.403935791015625,0.553196907043457,-0.602168083190918,-3.3830549716949463
1663861877227823600,2.41382373046875,0.5587725639343262,-0.4969053268432617,-2.204141139984131
1663861877237711400,2.42371142578125,0.5757873058319092,-0.35273170471191406,-1.148556113243103
1663861877247568600,2.433568603515625,0.6901811361312866,-1.5440740585327148,-2.310112476348877
1663861877257456400,2.443456298828125,0.3343912363052368,-0.6360263824462891,-3.793121814727783
1663861877267344000,2.45334375,0.7434709072113037,5.0762939453125,-2.1504740715026855
1663861877277231600,2.463231689453125,-1.4634928703308105,3.5772743225097656,-0.5722271203994751
1663861877287119400,2.473119384765625,-3.2955687046051025,2.705291748046875,-3.3516621589660645
1663861877296976600,2.4829765625,-4.337038516998291,1.5175800323486328,-6.625486373901367
1663861877306894800,2.492894775390625,-4.277454376220703,-3.496212959289551,-7.244112491607666
1663861877316782300,2.5027822265625,-4.411243438720703,-5.319535255432129,-1.6872620582580566
1663861877326670000,2.512670166015625,-1.3156914710998535,-6.030219078063965,1.765723466873169
1663861877336527400,2.52252734375,2.5805654525756836,-5.4231367111206055,1.0371251106262207
1663861877346384400,2.53238427734375,2.691253423690796,-2.365022659301758,-1.2444417476654053
1663861877356272000,2.542272216796875,1.6557061672210693,0.2715435028076172,-4.456511974334717
1663861877366190300,2.5521904296875,-0.8125555515289307,-0.09705829620361328,-5.679389953613281
1663861877376078000,2.562078125,8.458747863769531,1.3200273513793945,3.760014057159424
1663861877385965800,2.5719658203125,-9.018874168395996,2.610947608947754,-3.2317304611206055
1663861877395822800,2.58182275390625,-8.301321029663086,-3.8602142333984375,-7.8583574295043945
1663861877405680000,2.59168017578125,-1.3237226009368896,-5.967954635620117,-4.698455333709717
1663861877415598300,2.601598388671875,-1.0936870574951172,-4.291729927062988,-0.24993133544921875
1663861877425455600,2.61145556640625,-0.8327218294143677,-5.326468467712402,-0.6244251728057861
1663861877435373800,2.621373779296875,-1.9747600555419922,-2.798542022705078,1.9901351928710938
1663861877445261300,2.63126123046875,-2.9866628646850586,-1.58758544921875,3.241865873336792
1663861877455149000,2.641149169921875,2.1502022743225098,-1.0534858703613281,1.8646695613861084
1663861877465036800,2.651036865234375,9.879948616027832,-1.1978073120117188,0.8137578964233398
1663861877474924500,2.660924560546875,0.9362471103668213,-1.7502355575561523,2.3173351287841797
1663861877484781800,2.67078173828125,-0.8882956504821777,-1.7467565536499023,1.4003019332885742
1663861877494669300,2.68066943359375,0.23154723644256592,-1.6703414916992188,1.2935168743133545
1663861877504526600,2.690526611328125,1.2149640321731567,-1.0171680450439453,1.6583993434906006
1663861877514414300,2.700414306640625,1.6756720542907715,-0.5743484497070312,1.6226255893707275
1663861877524302000,2.710302001953125,1.8362106084823608,-0.9598016738891602,1.4934065341949463
1663861877534189600,2.720189453125,1.8219932317733765,-1.3292121887207031,1.5411999225616455
1663861877544077300,2.730077392578125,1.3742965459823608,-1.0301570892333984,1.8434560298919678
1663861877553965000,2.739965087890625,0.8367379903793335,-0.6071090698242188,2.073798179626465
1663861877563822300,2.749822265625,0.6769009828567505,0.042374610900878906,1.8281269073486328
1663861877573740500,2.759740478515625,0.6942867040634155,0.8920230865478516,0.804999589920044
1663861877583628000,2.7696279296875,0.5398440361022949,1.8704261779785156,-0.5881075859069824
1663861877593515800,2.779515869140625,0.3609938621520996,2.123422622680664,-1.2462363243103027
1663861877603403500,2.789403564453125,-0.007355809211730957,0.9537839889526367,-1.1615617275238037
1663861877613291300,2.799291259765625,-1.014919400215149,0.00016880035400390625,-1.181525468826294
1663861877623179000,2.809178955078125,-2.204779624938965,-0.1121206283569336,-1.8840384483337402
1663861877633066500,2.81906640625,-2.1908202171325684,1.3581113815307617,-0.7883834838867188
1663861877642923800,2.828923828125,-0.6395447254180908,2.8222970962524414,0.8086237907409668
1663861877652811500,2.8388115234375,1.1373276710510254,4.708890914916992,2.2256054878234863
1663861877662699300,2.84869921875,2.366698980331421,5.750495910644531,2.266723871231079
1663861877672586800,2.858586669921875,1.9487478733062744,5.201267242431641,0.49472522735595703
1663861877682474500,2.868474609375,-0.160048246383667,3.117708206176758,-2.0606529712677
1663861877692346600,2.8783466796875,-2.40975284576416,1.2919435501098633,-3.175119161605835
1663861877702234400,2.888234375,-3.3027563095092773,0.17560386657714844,-3.1933653354644775
1663861877712091600,2.898091552734375,-3.3703813552856445,-1.0716514587402344,-3.316511392593384
1663861877721979100,2.907979248046875,-3.9137508869171143,-2.3028831481933594,-3.2147328853607178
1663861877731867000,2.917866943359375,-3.1143901348114014,-2.7649612426757812,-2.9892401695251465
1663861877741754600,2.927754638671875,-2.0894312858581543,-3.7535181045532227,-2.732923984527588
1663861877751612000,2.93761181640625,-1.7518292665481567,-5.89166259765625,-2.42726993560791
1663861877761499400,2.94749951171875,-1.7909374237060547,-8.287860870361328,-2.146419048309326
1663861877771356700,2.957356689453125,-1.6124273538589478,-9.466861724853516,-2.274862766265869
1663861877781214000,2.9672138671875,-1.924695372581482,-7.634219169616699,-1.9780033826828003
1663861877791101400,2.977101318359375,-3.1288230419158936,-3.874020576477051,-0.2305539846420288
1663861877800989200,2.9869892578125,-3.1309475898742676,-0.7841548919677734,0.694965124130249
1663861877810877000,2.996876953125,-0.8835136890411377,1.209737777709961,0.7758567333221436
1663861877820764700,3.0067646484375,2.51295804977417,2.814591407775879,0.727245569229126
1663861877830652400,3.01665234375,4.8791399002075195,4.175442695617676,0.4404115676879883
1663861877840540200,3.0265400390625,4.325658798217773,5.306262969970703,0.4581763744354248
1663861877850427600,3.036427734375,1.7541660070419312,5.356546401977539,0.6401562690734863
1663861877860285000,3.046284912109375,-0.3654763698577881,4.288329124450684,1.6500763893127441
1663861877870203100,3.056203125,-0.3598320484161377,2.8167724609375,3.2179088592529297
1663861877880091000,3.0660908203125,0.9282078742980957,0.14488887786865234,3.8836543560028076
1663861877889978600,3.075978515625,1.8410195112228394,-2.3122596740722656,3.7067978382110596
1663861877899866000,3.0858662109375,1.5941872596740723,-4.140860557556152,2.367661714553833
1663861877909753900,3.09575390625,0.8330211639404297,-4.909858703613281,1.4076790809631348
1663861877919611100,3.105611083984375,0.2865532636642456,-4.134725570678711,1.5120043754577637
1663861877929499000,3.115498779296875,-0.007307767868041992,-3.2446508407592773,1.084341287612915
1663861877939386400,3.125386474609375,0.764777660369873,-2.5554466247558594,0.210526704788208
1663861877949274000,3.135274169921875,1.821422815322876,-1.772902488708496,-0.68560791015625
1663861877959161900,3.145161865234375,2.1859278678894043,-0.9644441604614258,-1.8361880779266357
1663861877969019100,3.15501904296875,1.5571343898773193,-0.10114097595214844,-2.5993449687957764
1663861877978906600,3.16490673828125,1.1837890148162842,0.8650140762329102,-2.602024555206299
1663861877988794400,3.17479443359375,1.1273233890533447,1.7987060546875,-2.3922650814056396
1663861877998682000,3.18468212890625,1.7333006858825684,2.596588134765625,-1.8634474277496338
1663861878008539400,3.194539306640625,2.326428174972534,2.943490982055664,-1.0053775310516357
1663861878018427000,3.204427001953125,1.965705394744873,2.787393569946289,-0.09147787094116211
1663861878028314600,3.214314697265625,1.0770776271820068,2.053621292114258,0.8153681755065918
1663861878038202400,3.224202392578125,0.6307907104492188,0.9889354705810547,1.7370307445526123
1663861878048090000,3.234090087890625,0.5378198623657227,-0.33281707763671875,2.586564540863037
1663861878057977900,3.243977783203125,1.0634536743164062,-1.6924362182617188,2.8891446590423584
1663861878067835000,3.2538349609375,0.4836158752441406,-2.3929710388183594,2.4948723316192627
1663861878077722600,3.26372265625,0.6241636276245117,-2.651517868041992,1.9605894088745117
1663861878087610400,3.2736103515625,1.4818520545959473,-2.2200136184692383,2.02982497215271
1663861878097498000,3.283498046875,2.70890474319458,-1.462693214416504,2.188441514968872
1663861878107385900,3.2933857421875,2.537337303161621,-0.5479154586791992,2.0672171115875244
1663861878117243000,3.303242919921875,1.67950439453125,0.45809459686279297,1.62990140914917
1663861878127130600,3.313130615234375,1.942326545715332,0.9916534423828125,0.9050045013427734
1663861878137018400,3.323018310546875,2.4633402824401855,1.4044761657714844,0.03381705284118652
1663861878146906000,3.332906005859375,2.488162040710449,2.1562881469726562,-0.5883543491363525
1663861878156793600,3.342793701171875,1.2198615074157715,2.5058064460754395,-0.8823404312133789
1663861878166651000,3.35265087890625,1.426579475402832,2.2679319381713867,-0.8038036823272705
1663861878176538600,3.36253857421875,1.6256933212280273,2.0132904052734375,-0.7097461223602295
1663861878186426400,3.37242626953125,1.816976547241211,1.747995376586914,-0.61405348777771
1663861878196313900,3.38231396484375,2.0050606727600098,1.4763622283935547,-0.5339717864990234
1663861878206201600,3.39220166015625,2.182873249053955,1.206803798675537,-0.4686439037322998
1663861878225977000,3.41197705078125,-0.29253435134887695,2.1928491592407227,0.8542635440826416
1663861878235864800,3.42186474609375,-0.6698126792907715,3.162794589996338,-0.382282018661499
1663861878245721900,3.431721923828125,-0.23821640014648438,2.6661949157714844,-1.219926357269287
1663861878255640000,3.44164013671875,-0.8611965179443359,1.237621784210205,-1.014603614807129
1663861878265497300,3.451497314453125,-0.4983358383178711,0.2657046318054199,0.6817760467529297
1663861878275385000,3.461385009765625,-0.770747184753418,0.016902923583984375,3.2040867805480957
1663861878285272600,3.4712724609375,-1.1961774826049805,0.16006827354431152,4.4837846755981445
1663861878295160300,3.481160400390625,-0.34864234924316406,0.849478006362915,3.8294224739074707
1663861878305048000,3.491048095703125,-1.4268465042114258,1.313776969909668,1.8153929710388184
1663861878314905300,3.5009052734375,-1.8144025802612305,1.7792439460754395,-0.5134711265563965
1663861878324823600,3.510823486328125,0.13506793975830078,0.5500258207321167,-0.5126852989196777
1663861878334711300,3.520711181640625,1.1318397521972656,-1.0757324695587158,0.17638349533081055
1663861878344598800,3.530598876953125,-1.0125551223754883,-1.5505181550979614,0.448488712310791
1663861878354486500,3.540486572265625,-1.402024269104004,-1.5106345415115356,-0.6363487243652344
1663861878364343800,3.55034375,-1.1725330352783203,-1.0808677673339844,-1.6442489624023438
1663861878374200800,3.560200927734375,-2.546200752258301,-0.6775173544883728,-1.636237621307373
1663861878384119000,3.570119140625,-2.1232833862304688,-0.7270119190216064,-0.27970457077026367
1663861878393976300,3.579976318359375,-1.9403553009033203,-0.6429784297943115,0.4492478370666504
1663861878403894500,3.58989453125,-2.1016550064086914,-0.23619991540908813,0.4069066047668457
1663861878413782300,3.5997822265625,-2.3967723846435547,0.48308879137039185,0.24637937545776367
1663861878423670000,3.609669921875,-2.9662294387817383,0.6336609125137329,-0.15985822677612305
1663861878433557500,3.6195576171875,-2.428865432739258,0.696051836013794,-1.0268206596374512
1663861878443445200,3.6294453125,-1.9873476028442383,0.7485052347183228,-1.2575957775115967
1663861878453333000,3.6393330078125,-1.7324714660644531,1.1001524925231934,-2.2754640579223633
1663861878463220700,3.649220703125,-1.844050407409668,1.549065113067627,-2.582472324371338
1663861878473108500,3.6591083984375,-2.647188186645508,1.3738853931427002,-2.047988176345825
1663861878482965500,3.668965576171875,-3.677875518798828,1.3280107975006104,-2.1594388484954834
1663861878492853200,3.678853271484375,-3.6124372482299805,1.1477491855621338,-1.2090284824371338
1663861878502741000,3.688740966796875,-3.686258316040039,1.4036028385162354,-1.7769439220428467
1663861878512628700,3.698628662109375,-3.6977052688598633,1.5506246089935303,-1.6343610286712646
1663861878522485800,3.70848583984375,-3.634140968322754,1.6342368125915527,-1.339698076248169
1663861878532373500,3.71837353515625,-3.833065986633301,1.5487849712371826,-1.5668036937713623
1663861878542261200,3.72826123046875,-3.7011642456054688,1.322798490524292,-1.538081407546997
1663861878552149000,3.73814892578125,-3.680354118347168,1.4128680229187012,-1.5310981273651123
1663861878562036700,3.74803662109375,-4.380615234375,1.6811790466308594,-1.6330273151397705
1663861878571924200,3.75792431640625,-4.123955726623535,1.816469669342041,-1.4871268272399902
1663861878581781500,3.767781494140625,-4.055438995361328,1.837064504623413,-1.3885157108306885
1663861878591669200,3.777669189453125,-4.170011520385742,1.754375696182251,-1.307732343673706
1663861878601557000,3.787556884765625,-3.9628591537475586,1.7329397201538086,-1.3536558151245117
1663861878611444500,3.797444580078125,-4.050267219543457,1.8047189712524414,-1.2778100967407227
1663861878621301800,3.8073017578125,-3.694979667663574,1.9043431282043457,-1.319488286972046
1663861878631189500,3.817189453125,-3.676942825317383,1.946462869644165,-1.231464147567749
1663861878641077200,3.8270771484375,-3.886610984802246,1.755295753479004,-1.288527011871338
1663861878650934300,3.836934326171875,-3.608189582824707,1.7735121250152588,-1.3883683681488037
1663861878660852500,3.8468525390625,-3.2006406784057617,1.6194424629211426,-1.3916432857513428
1663861878670709800,3.856709716796875,-3.013888359069824,1.524432897567749,-1.6567943096160889
1663861878680566800,3.86656689453125,-2.8019638061523438,1.6579642295837402,-1.5817623138427734
1663861878690454500,3.87645458984375,-2.540407180786133,1.5276284217834473,-1.1683869361877441
1663861878700372700,3.886372802734375,-2.356989860534668,1.4403340816497803,-0.956289529800415
1663861878710230000,3.89622998046875,-2.342885971069336,1.5456321239471436,-0.8148741722106934
1663861878720117800,3.90611767578125,-2.372110366821289,1.4958384037017822,-0.7906157970428467
1663861878730005200,3.916005126953125,-2.3306827545166016,1.5287160873413086,-0.7633280754089355
1663861878739893000,3.92589306640625,-2.252203941345215,1.5508465766906738,-0.7116308212280273
1663861878749750300,3.935750244140625,-1.9639053344726562,1.4140816926956177,-0.7698612213134766
1663861878759668500,3.94566845703125,-1.5926189422607422,1.3326278924942017,-0.7847356796264648
1663861878769556200,3.95555615234375,-1.7718496322631836,1.158185362815857,-0.8993821144104004
1663861878779444000,3.96544384765625,-1.7803163528442383,0.9569439888000488,-1.0007920265197754
1663861878789331500,3.97533154296875,-1.6849651336669922,0.8165135383605957,-0.8888754844665527
1663861878799219200,3.98521923828125,-1.6139917373657227,0.5309035181999207,-0.8927335739135742
1663861878809107000,3.99510693359375,-1.3786048889160156,0.14159491658210754,-0.9497294425964355
1663861878818964200,4.004964111328125,-1.4207019805908203,-0.1980900913476944,-0.9951157569885254
1663861878828821200,4.0148212890625,-1.5221290588378906,-0.47914135456085205,-0.9871439933776855
1663861878838739500,4.024739501953125,-1.1183032989501953,-0.7654451727867126,-0.8620362281799316
1663861878848627200,4.034627197265625,-0.943730354309082,-0.9452712535858154,-0.6350822448730469
1663861878858515000,4.044514892578125,-1.3510675430297852,-1.017065167427063,-0.5134968757629395
1663861878868372000,4.0543720703125,-1.146653175354004,-1.0818719863891602,-0.48145484924316406
1663861878878259700,4.064259765625,-0.7815237045288086,-1.1532726287841797,-0.28092527389526367
1663861878888117000,4.074116943359375,-0.7496089935302734,-1.0408251285552979,-0.07841157913208008
1663861878898035200,4.08403515625,-0.9022693634033203,-0.8899152278900146,-0.05349111557006836
1663861878907923000,4.0939228515625,-1.4002304077148438,-0.5607078075408936,-0.13998842239379883
1663861878917810400,4.103810546875,-0.9717836380004883,-0.13389301300048828,-0.1715717315673828
1663861878927698200,4.1136982421875,-0.0989522933959961,0.29660820960998535,0.03601646423339844
1663861878937586000,4.1235859375,0.048317909240722656,0.6418247222900391,0.11461496353149414
1663861878947473700,4.1334736328125,0.5128231048583984,0.8209943771362305,0.2520298957824707
1663861878957361400,4.143361328125,1.1359968185424805,0.9681668281555176,0.5039739608764648
1663861878967218400,4.153218505859375,1.1644062995910645,1.0917015075683594,0.678131103515625
1663861878977075700,4.16307568359375,1.2089920043945312,1.1639375686645508,0.982257604598999
1663861878986994000,4.172993896484375,1.1543002128601074,1.2068791389465332,1.1913831233978271
1663861878996851000,4.182850830078125,0.9789104461669922,1.2998714447021484,1.3078289031982422
1663861879006738700,4.19273876953125,1.5635628700256348,1.2759976387023926,1.4476816654205322
1663861879016626400,4.20262646484375,1.9784941673278809,1.304560661315918,1.6765611171722412
1663861879026514200,4.21251416015625,1.6851425170898438,1.273324966430664,1.7657287120819092
1663861879036402000,4.22240185546875,1.8987197875976562,1.2687067985534668,1.7843546867370605
1663861879046259000,4.232259033203125,2.405189037322998,1.316971778869629,1.9151792526245117
1663861879056146700,4.242146728515625,2.584625244140625,1.422825813293457,2.1378114223480225
1663861879066034400,4.252034423828125,2.3116579055786133,1.5074267387390137,2.1961710453033447
1663861879075922200,4.261922119140625,1.9522795677185059,1.5974397659301758,2.2696938514709473
1663861879085810000,4.271809814453125,1.5137710571289062,1.6738529205322266,2.2564849853515625
1663861879095697400,4.281697509765625,1.5394887924194336,1.6712970733642578,2.3698055744171143
1663861879105585200,4.291585205078125,1.5769615173339844,1.6856622695922852,2.2804534435272217
1663861879115473000,4.301472900390625,1.2701144218444824,1.8755855560302734,2.135096788406372
1663861879125360600,4.311360595703125,0.4463520050048828,2.1764678955078125,2.083177328109741
1663861879135248400,4.321248291015625,-0.3925330638885498,2.524224281311035,1.812720537185669
1663861879145105400,4.33110546875,-0.8684055805206299,2.780571937561035,1.5097064971923828
1663861879154993200,4.3409931640625,-0.5188617706298828,3.246074676513672,1.4802930355072021
1663861879164881000,4.350880859375,0.4956037998199463,3.7502784729003906,1.4306893348693848
1663861879174768600,4.3607685546875,1.2200406789779663,4.1390838623046875,1.2668328285217285
1663861879184656100,4.37065625,1.6758204698562622,4.231225967407227,0.7008466720581055
1663861879194543900,4.3805439453125,1.808480143547058,3.9184370040893555,-0.2381579875946045
1663861879204431600,4.390431640625,1.4183071851730347,3.669343948364258,-0.9896999597549438
1663861879214319400,4.4003193359375,0.8807764649391174,3.254225730895996,-1.6939417123794556
1663861879224176400,4.41017626953125,0.22067415714263916,2.3676624298095703,-2.775977373123169
1663861879234064100,4.420064208984375,-0.5439258813858032,1.1785039901733398,-3.7817888259887695
1663861879243951900,4.429951904296875,-1.0380998849868774,-0.6460027694702148,-4.689170837402344
1663861879253839600,4.439839599609375,-1.6167106628417969,-2.0666141510009766,-4.874982833862305
1663861879263727400,4.449727294921875,-1.8349512815475464,-3.1515579223632812,-4.448092937469482
1663861879273615000,4.459614990234375,-1.3764286041259766,-4.0880937576293945,-3.5654964447021484
1663861879283502600,4.469502685546875,-1.1585365533828735,-4.769556045532227,-2.4819064140319824
1663861879293390300,4.479390380859375,-1.1840713024139404,-4.490217208862305,-1.2963097095489502
1663861879303247600,4.48924755859375,-1.3160085678100586,-3.463292121887207,-0.5645625591278076
1663861879313104600,4.499104736328125,-1.6913564205169678,-2.2177791595458984,-0.404430627822876
1663861879322992400,4.508992431640625,-1.6597598791122437,-1.2134132385253906,-0.3045920133590698
1663861879332880100,4.518880126953125,-1.1485047340393066,-0.5028104782104492,0.07513785362243652
1663861879342767900,4.528767822265625,-0.22324438393115997,-0.16635704040527344,0.5015887022018433
1663861879352655600,4.538655517578125,0.8777946829795837,0.0073223114013671875,0.8873612880706787
1663861879362512600,4.5485126953125,1.8573936223983765,0.007023811340332031,1.202174186706543
1663861879372430800,4.558430908203125,2.396747350692749,0.03412342071533203,1.4952173233032227
1663861879382318600,4.568318603515625,1.940908432006836,0.04335498809814453,1.5820541381835938
1663861879392206300,4.578206298828125,1.2328848838806152,0.08471965789794922,1.2636260986328125
1663861879402063400,4.5880634765625,1.1415908336639404,0.23169422149658203,0.8205761909484863
1663861879411951000,4.597951171875,1.338789463043213,0.3907661437988281,0.48304498195648193
1663861879421838800,4.6078388671875,1.2864999771118164,0.4068441390991211,0.07133960723876953
1663861879431726600,4.6177265625,0.9689486622810364,0.31821346282958984,-0.41532886028289795
1663861879441583600,4.62758349609375,0.7999556660652161,0.18910503387451172,-0.7638832330703735
1663861879451471400,4.637471435546875,0.829693615436554,-0.007029533386230469,-0.9609615802764893
1663861879461359000,4.647359130859375,0.7129467725753784,-0.2604341506958008,-1.1524548530578613
1663861879471246800,4.657246826171875,0.4754445552825928,-0.5494594573974609,-1.2810243368148804
1663861879481104000,4.667103759765625,0.08966653048992157,-0.6925907135009766,-1.255737066268921
1663861879490991600,4.67699169921875,0.13488563895225525,-0.6806564331054688,-1.0556663274765015
1663861879500909800,4.686909912109375,0.533187747001648,-0.5809001922607422,-0.7887749671936035
1663861879510797600,4.696797607421875,0.6566389799118042,-0.46274757385253906,-0.5031979084014893
1663861879520654800,4.70665478515625,0.5721743106842041,-0.38100528717041016,-0.39114880561828613
1663861879530512000,4.716511962890625,0.4325883090496063,-0.2709941864013672,-0.3668825626373291
1663861879540430000,4.72643017578125,0.04181678593158722,-0.18295669555664062,-0.30329084396362305
1663861879550287400,4.736287353515625,-0.47031939029693604,-0.10252571105957031,-0.10027086734771729
1663861879560205600,4.74620556640625,-0.6002900004386902,-0.08915042877197266,0.1923525333404541
1663861879570093300,4.75609326171875,-0.6875697374343872,-0.14004993438720703,0.3437241315841675
1663861879579950300,4.765950439453125,-0.8688805103302002,-0.2048482894897461,0.3752157688140869
1663861879589838000,4.775838134765625,-0.5763248801231384,-0.19033527374267578,0.24614620208740234
1663861879599725800,4.785725830078125,0.040288567543029785,-0.1517019271850586,0.003103017807006836
1663861879609583000,4.7955830078125,-0.07901999354362488,-0.13704299926757812,-0.25099503993988037
1663861879619470600,4.805470703125,-0.7229040265083313,-0.19688796997070312,-0.41348910331726074
1663861879629358300,4.8153583984375,-1.0072145462036133,-0.2503213882446289,-0.48246753215789795
1663861879639276500,4.825276611328125,-0.8739578723907471,-0.24253082275390625,-0.3266639709472656
1663861879649164300,4.835164306640625,-0.5047316551208496,-0.16379070281982422,-0.08706319332122803
1663861879659052000,4.845052001953125,-0.19266951084136963,-0.049798011779785156,0.052937865257263184
1663861879668909000,4.854908935546875,0.13427573442459106,0.02067852020263672,0.03544163703918457
1663861879678796800,4.864796875,0.5454608201980591,0.028594970703125,-0.07925713062286377
1663861879688684500,4.8746845703125,0.6591253876686096,-0.0044879913330078125,-0.3647913932800293
1663861879698572300,4.884572265625,0.40394580364227295,0.0287017822265625,-0.5594757795333862
1663861879708429300,4.89442919921875,0.36844074726104736,0.16578102111816406,-0.6239502429962158
1663861879718317000,4.904317138671875,0.5444362163543701,0.1887664794921875,-0.7273561954498291
1663861879728174300,4.91417431640625,0.27236682176589966,0.06648540496826172,-0.9113155603408813
1663861879738092500,4.924092529296875,0.05113774538040161,-0.04152965545654297,-1.0126428604125977
1663861879747980300,4.933980224609375,0.2014148235321045,-0.009125709533691406,-1.0411708354949951
1663861879757868000,4.943867919921875,0.4455159306526184,-0.02318096160888672,-1.0229008197784424
1663861879767755500,4.953755615234375,0.6809825897216797,-0.009943008422851562,-0.9419481754302979
1663861879777612800,4.96361279296875,1.2317174673080444,0.056385040283203125,-0.8414971828460693
1663861879787500500,4.97350048828125,1.279554843902588,0.15332317352294922,-0.73356032371521
1663861879797388300,4.98338818359375,0.5697486400604248,0.10547161102294922,-0.7282383441925049
1663861879807275800,4.99327587890625,0.4136662483215332,0.024003028869628906,-0.8022911548614502
1663861879817133000,5.003133056640625,0.9249820709228516,-0.0038604736328125,-0.6719818115234375
1663861879827020800,5.013020751953125,1.527350664138794,0.11635398864746094,-0.17966556549072266
1663861879836908500,5.022908447265625,1.8952269554138184,0.15811634063720703,0.4613511562347412
1663861879846796000,5.032796142578125,1.932023525238037,0.05605506896972656,0.8039321899414062
1663861879856683800,5.042683837890625,1.188915729522705,-0.1740274429321289,0.6108779907226562
1663861879866541000,5.052541015625,0.19731855392456055,-0.37944698333740234,0.1006922721862793
1663861879876459300,5.062459228515625,-0.11195993423461914,-0.4377603530883789,-0.18541288375854492
1663861879886347000,5.072346923828125,0.4983179569244385,-0.3448333740234375,-0.01750469207763672
1663861879896234500,5.082234375,1.5320384502410889,-0.058630943298339844,0.46329712867736816
1663861879906122200,5.092122314453125,1.5996196269989014,0.2372570037841797,0.9590530395507812
1663861879916010000,5.102010009765625,0.3072967529296875,0.38770484924316406,1.1534650325775146
1663861879925897700,5.111897705078125,-1.1758456230163574,0.46535491943359375,1.1504061222076416
1663861879935785500,5.121785400390625,-0.6281137466430664,0.7543983459472656,1.3250596523284912
1663861879945673200,5.131673095703125,1.7957420349121094,1.3670778274536133,1.3933157920837402
1663861879955560700,5.141560791015625,3.1141505241394043,2.038651466369629,1.1511261463165283
1663861879965418000,5.15141796875,2.531576633453369,2.414736270904541,0.7296974658966064
1663861879975305700,5.1613056640625,1.2422032356262207,2.8401026725769043,0.5739450454711914
1663861879985193500,5.171193359375,0.9047689437866211,3.220644950866699,0.47082948684692383
1663861879995081000,5.1810810546875,1.5435419082641602,3.2923426628112793,0.5452053546905518
1663861880004938200,5.190938232421875,1.515571117401123,3.493790626525879,0.5906472206115723
1663861880014826000,5.200825927734375,0.19220638275146484,3.4811019897460938,0.3906891345977783
1663861880024713700,5.210713623046875,-0.005487918853759766,3.0377249717712402,0.4994492530822754
1663861880034601200,5.220601318359375,0.6839499473571777,2.3112878799438477,0.559417724609375
1663861880044489000,5.230489013671875,0.3119959831237793,1.5324654579162598,0.702672004699707
1663861880054376700,5.240376708984375,-0.9196972846984863,0.46829652786254883,1.1140656471252441
1663861880064264400,5.250264404296875,-1.6603622436523438,-0.3446388244628906,1.5522150993347168
1663861880074152200,5.260152099609375,-0.46613216400146484,-0.361666202545166,2.2273035049438477
1663861880084039700,5.270039794921875,-0.03258800506591797,-0.29964542388916016,2.2830276489257812
1663861880093897000,5.27989697265625,0.37153148651123047,-0.33115291595458984,1.6824936866760254
1663861880103784700,5.28978466796875,0.22034597396850586,0.21274852752685547,0.3685603141784668
1663861880113672400,5.29967236328125,-1.8274874687194824,0.5068855285644531,-1.3175458908081055
1663861880123560000,5.309559814453125,-1.705474853515625,0.5537145137786865,-2.7953124046325684
1663861880133447700,5.31944775390625,-0.06883668899536133,0.22877907752990723,-2.567729949951172
1663861880143305000,5.329304931640625,0.8470001220703125,-0.2730982303619385,-1.7946763038635254
1663861880153192700,5.339192626953125,1.1270389556884766,-0.5769450664520264,-0.3289213180541992
1663861880163080200,5.349080078125,0.32280445098876953,-0.5544962882995605,0.47568178176879883
1663861880172968000,5.358968017578125,1.0048637390136719,0.19957494735717773,-0.6301860809326172
1663861880182855700,5.368855712890625,0.7068424224853516,0.5918536186218262,-1.703880786895752
1663861880192743400,5.378743408203125,-1.580225944519043,0.5684515237808228,-1.439405918121338
1663861880202631200,5.388631103515625,-2.3045406341552734,0.9644131660461426,-0.0839991569519043
1663861880212519000,5.398518798828125,-1.7250328063964844,0.5496063232421875,2.1621556282043457
1663861880222376000,5.4083759765625,-2.0249786376953125,-0.30456286668777466,3.8644938468933105
1663861880232263700,5.418263671875,-1.8110113143920898,-1.1061716079711914,3.7569165229797363
1663861880242151400,5.4281513671875,-0.6522912979125977,-0.8669499158859253,2.2956809997558594
1663861880252039200,5.4380390625,-0.8268289566040039,0.013105972670018673,-0.16758203506469727
1663861880261926700,5.4479267578125,-1.5693206787109375,0.5917432308197021,-2.137491226196289
1663861880271814400,5.457814453125,-1.0437631607055664,0.6142768263816833,-2.8290181159973145
1663861880281702100,5.4677021484375,-0.9704132080078125,0.18138569593429565,-2.276388168334961
1663861880291559400,5.477559326171875,-1.5596342086791992,0.5757911205291748,-1.3591737747192383
1663861880301447000,5.487447021484375,-1.9955272674560547,0.4318150281906128,0.643794059753418
1663861880311334700,5.497334716796875,-3.115963935852051,0.1844884157180786,1.970426082611084
1663861880321192000,5.50719189453125,-2.608194351196289,0.07507205009460449,2.027350425720215
1663861880331079700,5.51707958984375,-2.1820316314697266,0.07143104076385498,0.36911487579345703
1663861880340936700,5.526936767578125,-1.9859991073608398,0.5389282703399658,-1.8546485900878906
1663861880350824400,5.536824462890625,-2.1234874725341797,0.8718194961547852,-2.5926976203918457
1663861880360712200,5.546712158203125,-2.357600212097168,0.8742818832397461,-2.18040132522583
1663861880370600000,5.556599853515625,-2.8998517990112305,0.8923523426055908,-1.480391502380371
1663861880380457000,5.56645703125,-3.093661308288574,0.9179587364196777,-0.649564266204834
1663861880390344700,5.5763447265625,-3.095672607421875,1.0512440204620361,-0.38423824310302734
1663861880400263000,5.586262939453125,-2.7169322967529297,1.5462946891784668,-0.7595067024230957
1663861880410150700,5.596150634765625,-2.717522621154785,1.5523831844329834,-1.1073851585388184
1663861880420038400,5.606038330078125,-2.9239492416381836,1.649808645248413,-1.6057157516479492
1663861880429895400,5.6158955078125,-2.661959648132324,1.8248281478881836,-2.0612988471984863
1663861880439783200,5.625783203125,-2.5602569580078125,2.014374017715454,-1.9619183540344238
1663861880449640400,5.635640380859375,-2.854196548461914,1.9780988693237305,-1.526395320892334
1663861880459558700,5.64555859375,-3.509701728820801,1.9758996963500977,-1.3574905395507812
1663861880469446400,5.6554462890625,-3.928342819213867,2.076338052749634,-1.309804916381836
1663861880479303400,5.665303466796875,-3.7870702743530273,1.9943437576293945,-1.2329835891723633
1663861880489191200,5.675191162109375,-3.5430068969726562,1.812894582748413,-1.217869758605957
1663861880499079000,5.685078857421875,-3.459042549133301,1.6227045059204102,-1.1626229286193848
1663861880508936000,5.69493603515625,-3.2838830947875977,1.3779065608978271,-1.1785144805908203
1663861880518854100,5.704854248046875,-3.4159231185913086,1.2775132656097412,-1.2601213455200195
1663861880528742000,5.714741943359375,-3.12520694732666,1.2952327728271484,-1.227447509765625
1663861880538599200,5.72459912109375,-3.043330192565918,1.2738041877746582,-0.9954037666320801
1663861880548487000,5.73448681640625,-3.1374197006225586,1.118159294128418,-0.8356566429138184
1663861880558344000,5.744343994140625,-2.9162845611572266,1.0347304344177246,-0.8746991157531738
1663861880568231700,5.754231689453125,-2.7963685989379883,1.0634346008300781,-0.778045654296875
1663861880578119400,5.764119384765625,-2.7598304748535156,1.1195120811462402,-0.5596790313720703
1663861880588007200,5.774007080078125,-2.266763687133789,1.075000286102295,-0.4325413703918457
1663861880597925400,5.78392529296875,-1.8981256484985352,0.9524670839309692,-0.7118887901306152
1663861880607812900,5.793812744140625,-1.7000274658203125,0.8285651206970215,-1.1802005767822266
1663861880617670100,5.803670166015625,-1.5669498443603516,0.7732985019683838,-1.4356861114501953
1663861880627558000,5.813557861328125,-1.5842514038085938,0.7826106548309326,-1.4500279426574707
1663861880637445600,5.823445556640625,-1.6167716979980469,0.6973555088043213,-1.2112164497375488
1663861880647333400,5.83333349609375,-1.493967056274414,0.5709485411643982,-0.8096141815185547
1663861880657220900,5.843220947265625,-1.125899314880371,0.4408338963985443,-0.48751306533813477
1663861880667108600,5.853108642578125,-0.823211669921875,0.3004155158996582,-0.5261712074279785
1663861880676996400,5.862996337890625,-0.8845033645629883,0.2474750429391861,-0.7012295722961426
1663861880686884000,5.872884033203125,-1.0849475860595703,0.18639230728149414,-0.7091178894042969
1663861880696771800,5.882771728515625,-1.3220806121826172,0.1709035038948059,-0.39254188537597656
1663861880706659300,5.892659423828125,-1.266611099243164,0.039811015129089355,-0.11287307739257812
1663861880716547000,5.902547119140625,-0.7690668106079102,0.009114384651184082,0.11973094940185547
1663861880726434800,5.912434814453125,-0.6095552444458008,-0.07803487777709961,0.2880210876464844
1663861880736292000,5.9222919921875,-0.8441276550292969,-0.2098221778869629,0.3027076721191406
1663861880746149000,5.932149169921875,-0.6981973648071289,-0.2546970844268799,0.19803905487060547
1663861880756036900,5.942036865234375,-0.5317440032958984,-0.23230934143066406,0.2835111618041992
1663861880765924600,5.951924560546875,-0.38898754119873047,-0.1328268051147461,0.5256638526916504
1663861880775812400,5.961812255859375,-0.33220386505126953,0.07593107223510742,0.7173690795898438
1663861880785669400,5.97166943359375,-0.2064962387084961,0.23662328720092773,0.7298779487609863
1663861880795557000,5.98155712890625,-0.03602790832519531,0.42501115798950195,0.727302074432373
1663861880805444900,5.99144482421875,-0.43639087677001953,0.6383571624755859,0.6940531730651855
1663861880815332600,6.00133251953125,-0.24873828887939453,0.886469841003418,0.68182373046875
1663861880825220000,6.01122021484375,0.3299074172973633,1.1400456428527832,0.8032393455505371
1663861880835107800,6.02110791015625,0.3870697021484375,1.2590737342834473,1.007697582244873
1663861880844995600,6.03099560546875,0.9273419380187988,1.2428488731384277,0.9894485473632812
1663861880854883300,6.04088330078125,1.2113876342773438,1.097640037536621,0.8652093410491943
1663861880864771000,6.05077099609375,1.2787771224975586,0.8556981086730957,0.8619472980499268
1663861880874658800,6.060658935546875,1.6382460594177246,0.6847710609436035,0.9022607803344727
1663861880884546300,6.07054638671875,2.051741600036621,0.42415714263916016,0.868964672088623
1663861880894434000,6.08043408203125,1.771383285522461,0.15371131896972656,0.892876148223877
1663861880904321800,6.09032177734375,1.6603593826293945,0.004303455352783203,0.9094986915588379
1663861880914179000,6.100178955078125,2.1585397720336914,-0.0023641586303710938,0.9710125923156738
1663861880924066600,6.110066650390625,2.1751012802124023,0.049355506896972656,1.0246758460998535
1663861880933954300,6.119954345703125,1.7599787712097168,0.19734954833984375,1.1009681224822998
1663861880943842000,6.129842041015625,1.3524770736694336,0.5798177719116211,1.2729454040527344
1663861880953729800,6.139729736328125,1.1699700355529785,0.9465427398681641,1.3307106494903564
1663861880963617500,6.149617431640625,1.3228416442871094,1.2798795700073242,1.30686616897583
1663861880973505000,6.159505126953125,1.9696459770202637,1.6181726455688477,1.5287714004516602
1663861880983362300,6.1693623046875,2.2212743759155273,1.925933837890625,1.6879780292510986
1663861880993219600,6.179219482421875,2.055755138397217,2.1588268280029297,1.7036933898925781
1663861881003107000,6.189107177734375,1.2676174640655518,2.379401206970215,1.5522582530975342
1663861881012964400,6.19896435546875,0.17353296279907227,2.392629623413086,0.926365852355957
1663861881022882600,6.208882568359375,-0.5096282958984375,2.5923357009887695,0.3824448585510254
1663861881032770300,6.218770263671875,-0.6213312149047852,2.7795772552490234,0.37734293937683105
1663861881042658000,6.228657958984375,-0.46306490898132324,2.8199424743652344,0.33921051025390625
1663861881052545500,6.238545654296875,0.2062234878540039,2.8405866622924805,0.19423484802246094
1663861881062433300,6.248433349609375,1.0731604099273682,2.7136688232421875,0.057138681411743164
1663861881072321000,6.258321044921875,1.256140947341919,2.447577476501465,-0.2173473834991455
1663861881082208800,6.268208740234375,0.9034520387649536,2.2592010498046875,-0.48538970947265625
1663861881092096500,6.278096435546875,0.5675808191299438,2.017576217651367,-0.771507978439331
1663861881101984000,6.28798388671875,0.10410952568054199,1.6232738494873047,-1.2508164644241333
1663861881111871700,6.297871826171875,0.12287545204162598,1.0362272262573242,-2.123218536376953
1663861881121729000,6.30772900390625,0.5250827074050903,0.3261451721191406,-2.5804600715637207
1663861881131616800,6.31761669921875,0.45719701051712036,-0.3960094451904297,-2.5927462577819824
1663861881141504500,6.32750439453125,0.1511625051498413,-1.2581167221069336,-2.4334988594055176
1663861881151392000,6.33739208984375,0.013741552829742432,-2.167729377746582,-2.191704750061035
1663861881161279700,6.34727978515625,0.03554427623748779,-2.7010326385498047,-1.8087263107299805
1663861881171167500,6.35716748046875,-0.10015618801116943,-2.571706771850586,-1.1980260610580444
1663861881181055200,6.36705517578125,-0.22136670351028442,-1.878706932067871,-0.8369096517562866
1663861881190912300,6.376912353515625,-0.31802839040756226,-1.000600814819336,-0.650754451751709
1663861881200800000,6.386800048828125,-0.3064895272254944,-0.1741619110107422,-0.3909010887145996
1663861881210687700,6.396687744140625,-0.020641982555389404,0.30507564544677734,-0.2527177333831787
1663861881220545000,6.406544921875,0.5159559845924377,0.46242809295654297,-0.17110013961791992
1663861881230432500,6.4164326171875,0.7963212728500366,0.34218692779541016,-0.049204230308532715
1663861881240320300,6.4263203125,0.5337967872619629,0.12699031829833984,0.26545190811157227
1663861881250208000,6.4362080078125,0.21886295080184937,-0.07489681243896484,0.761300802230835
1663861881260065300,6.446065185546875,0.33615899085998535,-0.3012504577636719,1.2352888584136963
1663861881269952800,6.455952880859375,0.7721403241157532,-0.37743473052978516,1.7462687492370605
1663861881279840500,6.465840576171875,1.067672610282898,-0.3343496322631836,2.1196887493133545
1663861881289728300,6.475728271484375,1.2044516801834106,-0.22208690643310547,1.92331862449646
1663861881299616000,6.485615966796875,1.0010126829147339,-0.06979846954345703,1.383714199066162
1663861881309473000,6.49547314453125,0.6098353266716003,0.00722503662109375,0.8890590667724609
1663861881319360800,6.50536083984375,0.37829846143722534,-0.0988311767578125,0.2574958801269531
1663861881329248500,6.51524853515625,0.2851635217666626,-0.1948862075805664,-0.37386178970336914
1663861881339136300,6.52513623046875,-0.01243048906326294,-0.15041828155517578,-0.8628067970275879
1663861881348993300,6.5349931640625,-0.20511090755462646,-0.1357278823852539,-1.2292970418930054
1663861881358911700,6.544911865234375,-0.1702902615070343,-0.08397483825683594,-1.4350318908691406
1663861881368768800,6.554768798828125,-0.21069160103797913,-0.04305458068847656,-1.508945107460022
1663861881378687000,6.56468701171875,-0.2606178820133209,-0.17045116424560547,-1.5493139028549194
1663861881388544300,6.574544189453125,-0.28241491317749023,-0.37017059326171875,-1.4846203327178955
1663861881398401300,6.5844013671875,-0.3804933428764343,-0.42934703826904297,-1.2515650987625122
1663861881408319500,6.594319580078125,-0.5224677324295044,-0.36001014709472656,-0.9260451793670654
1663861881418207200,6.604207275390625,-0.49559858441352844,-0.2625551223754883,-0.5597496032714844
1663861881428095000,6.614094970703125,-0.3386678695678711,-0.18202686309814453,-0.19293880462646484
1663861881437982700,6.623982666015625,-0.3868049681186676,-0.17064476013183594,0.13720059394836426
1663861881447870500,6.633870361328125,-0.3960944414138794,-0.19239044189453125,0.41409945487976074
1663861881457758000,6.643758056640625,-0.35172364115715027,-0.16363143920898438,0.5118238925933838
1663861881467615200,6.653615234375,-0.4091232120990753,-0.12982559204101562,0.4860581159591675
1663861881477503000,6.6635029296875,-0.7464277744293213,-0.20585250854492188,0.26646316051483154
1663861881487360000,6.673360107421875,-1.1481952667236328,-0.3634366989135742,0.08750081062316895
1663861881497247700,6.683247802734375,-1.236424207687378,-0.5170125961303711,-0.11354649066925049
1663861881507166000,6.693166015625,-1.4760088920593262,-0.6548976898193359,-0.23338866233825684
1663861881517053700,6.7030537109375,-1.5551611185073853,-0.5385217666625977,-0.14362525939941406
1663861881526911000,6.712910888671875,-0.7297441959381104,-0.3024568557739258,-0.1318831443786621
1663861881536798500,6.722798583984375,0.2944999933242798,0.024129867553710938,-0.13512134552001953
1663861881546686200,6.732686279296875,0.6647731065750122,0.4982719421386719,-0.0795290470123291
1663861881556574000,6.742573974609375,0.5760607123374939,0.9521017074584961,-0.25964856147766113
1663861881566461700,6.752461669921875,0.44453758001327515,1.305811882019043,-0.5986566543579102
1663861881576349400,6.762349365234375,0.012667417526245117,1.4485483169555664,-0.9281785488128662
1663861881586237200,6.7722373046875,-0.41508471965789795,1.3290863037109375,-1.214648723602295
1663861881596124700,6.782124755859375,-0.13518333435058594,1.092325210571289,-1.4547863006591797
1663861881606012400,6.792012451171875,0.30106842517852783,0.8358898162841797,-1.512026309967041
1663861881615900200,6.801900146484375,0.557194709777832,0.5766925811767578,-1.2409262657165527
1663861881625788000,6.811787841796875,1.2616219520568848,0.41776466369628906,-0.8763227462768555
1663861881635645000,6.82164501953125,2.098315477371216,0.30252933502197266,-0.516082763671875
1663861881645502200,6.831502197265625,2.2024784088134766,0.3082294464111328,-0.19686365127563477
1663861881655390000,6.841389892578125,1.6312830448150635,0.23627853393554688,0.01717829704284668
1663861881665247000,6.8512470703125,1.4600861072540283,0.10006523132324219,0.09539365768432617
1663861881675165200,6.861165283203125,1.707205057144165,0.1722583770751953,0.4936709403991699
1663861881685053000,6.871052978515625,1.7618663311004639,0.43561744689941406,0.6387739181518555
1663861881694940700,6.880940673828125,1.7134215831756592,0.6019306182861328,0.3368644714355469
1663861881704828400,6.890828369140625,1.9253787994384766,0.7301511764526367,0.1490480899810791
1663861881714685400,6.900685546875,1.8667757511138916,0.9393835067749023,0.3579552173614502
1663861881724542700,6.910542724609375,1.1779298782348633,1.0065813064575195,0.5587449073791504
1663861881734461000,6.9204609375,0.38321447372436523,0.7985000610351562,0.4581937789916992
1663861881744348700,6.9303486328125,0.42623472213745117,0.5597019195556641,0.0502622127532959
1663861881754236400,6.940236328125,1.7327580451965332,0.6618337631225586,-0.24862003326416016
1663861881764124000,6.9501240234375,3.58770751953125,1.168065071105957,-0.028983354568481445
1663861881774011600,6.96001171875,3.505898952484131,1.7145428657531738,0.5032591819763184
1663861881783899400,6.9698994140625,1.2897205352783203,1.818742275238037,0.7816295623779297
1663861881793787100,6.979787109375,0.37827539443969727,1.3798060417175293,0.7284183502197266
1663861881803675000,6.9896748046875,0.4734649658203125,0.8045687675476074,0.6553165912628174
1663861881813532000,6.999531982421875,0.3500394821166992,0.7095251083374023,0.4566326141357422
1663861881823419600,7.009419677734375,0.35124921798706055,0.9068136215209961,0.33573102951049805
1663861881833307400,7.019307373046875,0.5492963790893555,1.0790338516235352,0.5440263748168945
1663861881843195100,7.029195068359375,1.3926911354064941,1.090381145477295,1.3226165771484375
1663861881853083000,7.039082763671875,1.1300458908081055,0.9179806709289551,2.332827091217041
1663861881862970400,7.048970458984375,1.0972652435302734,0.7816891670227051,2.568355083465576
1663861881872858000,7.058858154296875,1.621288776397705,1.3957014083862305,1.9685897827148438
1663861881882745900,7.068745849609375,1.169567584991455,2.3647923469543457,0.6630730628967285
1663861881892633600,7.078633544921875,-0.24384546279907227,3.0171871185302734,-0.6335153579711914
1663861881902490600,7.08849072265625,-1.270993709564209,2.8648624420166016,-1.0542316436767578
1663861881912378400,7.09837841796875,-1.099928855895996,1.8157134056091309,-0.16418027877807617
1663861881922266000,7.10826611328125,-1.7931952476501465,0.4766368865966797,1.027000904083252
1663861881932153900,7.11815380859375,-1.8163819313049316,-0.9600119590759277,1.6277856826782227
1663861881942041600,7.12804150390625,-1.2645025253295898,-1.580042839050293,1.3218755722045898
1663861881951929000,7.13792919921875,-0.38872432708740234,-1.0083281993865967,0.281613826751709
1663861881961786400,7.147786376953125,0.8777503967285156,0.38097500801086426,-0.6381444931030273
1663861881971674000,7.157674072265625,0.9422607421875,0.4410531520843506,-1.1133966445922852
1663861881981561900,7.167561767578125,-0.504887580871582,-0.41202831268310547,-0.5961251258850098
1663861881991419000,7.1774189453125,-2.1436729431152344,-0.9333052635192871,0.40830278396606445
1663861882001276200,7.187276123046875,-2.5335121154785156,-1.1229043006896973,1.2718329429626465
1663861882011164000,7.197163818359375,-1.2450942993164062,-0.8542212247848511,1.2459392547607422
1663861882021051400,7.207051513671875,-0.19797801971435547,-0.1021268367767334,0.7236080169677734
1663861882030939100,7.216939208984375,0.16930103302001953,0.2719517946243286,-0.8183565139770508
1663861882040827000,7.226826904296875,-0.4378471374511719,0.3552064895629883,-2.2317466735839844
1663861882050714600,7.236714599609375,-1.4509658813476562,-0.007569313049316406,-2.399935722351074
1663861882060602400,7.246602294921875,-1.7768192291259766,-0.6116507649421692,-1.5249552726745605
1663861882070490000,7.256489990234375,-1.6700162887573242,-1.016741394996643,-0.6112837791442871
1663861882080377600,7.266377685546875,-1.7983589172363281,-0.8158460855484009,-0.31597185134887695
1663861882090265300,7.276265380859375,-1.7316389083862305,-0.5700744390487671,-0.23471450805664062
1663861882100153000,7.286153076171875,-1.337850570678711,-0.30074113607406616,-0.7298650741577148
1663861882110040800,7.296040771484375,-2.1023263931274414,0.17730814218521118,-1.4362435340881348
1663861882119897900,7.30589794921875,-2.4428892135620117,0.38005053997039795,-1.3528685569763184
1663861882129785600,7.31578564453125,-2.277825355529785,0.2084122896194458,-1.1484990119934082
1663861882139643000,7.325642822265625,-2.3757848739624023,-0.4022500514984131,-0.5396084785461426
1663861882149561000,7.33556103515625,-2.8620004653930664,-0.9463503360748291,0.3353710174560547
1663861882159418000,7.345418212890625,-2.5781822204589844,-0.4357740879058838,0.8070716857910156
1663861882169275400,7.355275390625,-3.0536184310913086,0.24925994873046875,0.1862497329711914
1663861882179193600,7.365193603515625,-2.9617528915405273,0.45120441913604736,-0.9688634872436523
1663861882189051000,7.37505078125,-2.32076358795166,0.6709918975830078,-1.6617655754089355
1663861882198938400,7.3849384765625,-2.5899553298950195,0.9605565071105957,-2.034677505493164
1663861882208826000,7.394826171875,-2.5643138885498047,1.2646536827087402,-1.8899273872375488
1663861882218713900,7.4047138671875,-2.34591007232666,1.5435512065887451,-1.0665555000305176
1663861882228601600,7.4146015625,-2.4317445755004883,1.483236312866211,-0.4988870620727539
1663861882238489300,7.4244892578125,-2.510918617248535,1.563838005065918,-0.21236276626586914
1663861882248376800,7.434376953125,-2.9272212982177734,1.7168300151824951,-0.29093408584594727
1663861882258264600,7.4442646484375,-2.9391937255859375,1.6680309772491455,-0.7154216766357422
1663861882268121900,7.454121826171875,-2.9018144607543945,1.7213084697723389,-1.1275997161865234
1663861882278040000,7.4640400390625,-3.3029699325561523,1.7494988441467285,-1.2396917343139648
1663861882287897000,7.47389697265625,-3.0643062591552734,1.7329044342041016,-0.9241242408752441
1663861882297784800,7.483784912109375,-3.2282915115356445,1.6805145740509033,-0.49938535690307617
1663861882307672600,7.493672607421875,-3.5075149536132812,1.4629719257354736,-0.4172677993774414
1663861882317529900,7.50352978515625,-3.214740753173828,1.199162244796753,-0.4134798049926758
1663861882327417600,7.51341748046875,-3.0064964294433594,1.0387988090515137,-0.4312715530395508
1663861882337305000,7.52330517578125,-3.3537282943725586,0.806138277053833,-0.797884464263916
1663861882347192800,7.53319287109375,-3.131382942199707,0.7407095432281494,-0.9915046691894531
1663861882357080600,7.54308056640625,-3.1309165954589844,0.7775728702545166,-0.973914623260498
1663861882366968300,7.55296826171875,-2.7040185928344727,0.8275353908538818,-0.7481064796447754
1663861882376856000,7.56285595703125,-2.405782699584961,0.9938762187957764,-0.571073055267334
1663861882386743600,7.57274365234375,-2.3013916015625,1.0546561479568481,-0.46082305908203125
1663861882396600800,7.582600830078125,-2.028048515319824,0.9374139308929443,-0.5681471824645996
1663861882406488600,7.592488525390625,-1.7364673614501953,0.9261842966079712,-0.8912749290466309
1663861882416376300,7.602376220703125,-1.8284263610839844,0.9032799005508423,-1.0244855880737305
1663861882426263800,7.612263916015625,-1.8817806243896484,0.7618948221206665,-1.0296096801757812
1663861882436151600,7.622151611328125,-1.524937629699707,0.7093229293823242,-1.0289392471313477
1663861882446008800,7.6320087890625,-1.4636106491088867,0.7449259161949158,-1.0453157424926758
1663861882455927000,7.641927001953125,-1.4400300979614258,0.7180659770965576,-1.0427656173706055
1663861882465814800,7.651814697265625,-0.987889289855957,0.7324204444885254,-1.0695948600769043
1663861882475702300,7.661702392578125,-0.756927490234375,0.7297340631484985,-1.2217540740966797
1663861882485590000,7.671590087890625,-0.8022117614746094,0.6903952956199646,-1.5253081321716309
1663861882495477800,7.681477783203125,-0.9851312637329102,0.6197887659072876,-1.6408867835998535
1663861882505365500,7.691365478515625,-0.8761110305786133,0.5141649842262268,-1.4373021125793457
1663861882515222500,7.701222412109375,-0.8166627883911133,0.3942500352859497,-1.1042232513427734
1663861882525110300,7.7111103515625,-0.7778778076171875,0.3067203760147095,-0.7997684478759766
1663861882534967600,7.720967529296875,-0.8680400848388672,0.2574232816696167,-0.6191058158874512
1663861882544855300,7.730855224609375,-0.7426528930664062,0.14189386367797852,-0.4285154342651367
1663861882554743000,7.740742919921875,-0.3823995590209961,0.10929203033447266,-0.10755395889282227
1663861882564630500,7.750630615234375,-0.2455158233642578,0.13387584686279297,0.13288402557373047
1663861882574518300,7.760518310546875,-0.33191585540771484,0.2654109001159668,0.32858943939208984
1663861882584406000,7.770406005859375,-0.6104984283447266,0.4594607353210449,0.3212771415710449
1663861882594263300,7.78026318359375,-0.6654939651489258,0.6650683879852295,0.012079238891601562
1663861882604181500,7.790181396484375,-0.2694540023803711,0.975299596786499,0.05483102798461914
1663861882614038500,7.80003857421875,0.10301685333251953,1.2879509925842285,0.2056722640991211
1663861882623926300,7.80992626953125,0.31893157958984375,1.4726123809814453,0.14380359649658203
1663861882633814000,7.81981396484375,0.6998214721679688,1.4923925399780273,0.40247249603271484
1663861882643701800,7.82970166015625,0.8511691093444824,1.5191612243652344,0.8490457534790039
1663861882653589200,7.83958935546875,0.9510550498962402,1.4251632690429688,1.1334657669067383
1663861882663477000,7.84947705078125,0.9893240928649902,1.2394862174987793,1.257512092590332
1663861882673364700,7.85936474609375,0.9317626953125,1.0150947570800781,1.2759089469909668
1663861882683252500,7.86925244140625,1.3904142379760742,0.7907314300537109,1.3336734771728516
1663861882693140200,7.87914013671875,1.5585851669311523,0.6179623603820801,1.4596147537231445
1663861882703027700,7.88902783203125,1.014638900756836,0.5383467674255371,1.6148598194122314
1663861882712915500,7.89891552734375,1.3311972618103027,0.4428725242614746,1.7563157081604004
1663861882722803200,7.90880322265625,2.0942163467407227,0.314971923828125,1.917815923690796
1663861882732660500,7.918660400390625,2.080500602722168,0.295743465423584,2.1136975288391113
1663861882742517500,7.928517578125,1.926469326019287,0.3596811294555664,2.215298891067505
1663861882752374800,7.938374755859375,1.9500541687011719,0.4772224426269531,2.234902858734131
1663861882762293000,7.94829296875,2.060945510864258,0.5761756896972656,2.2247235774993896
1663861882772180700,7.9581806640625,2.2824292182922363,0.670100212097168,2.128169059753418
1663861882782037800,7.968037841796875,2.027503490447998,0.8306684494018555,2.015186309814453
1663861882791956000,7.9779560546875,1.203728199005127,0.994257926940918,1.8451838493347168
1663861882801843700,7.98784375,0.6760332584381104,1.0109739303588867,1.1455175876617432
1663861882811701000,7.997700927734375,0.049947261810302734,1.3535642623901367,0.6660478115081787
1663861882821558000,8.00755810546875,-0.24941062927246094,1.8682708740234375,0.5544142723083496
1663861882831476200,8.017476318359375,0.13550114631652832,2.3387842178344727,0.5198101997375488
1663861882841364000,8.027364013671875,0.5253419876098633,2.809992790222168,0.5189430713653564
1663861882851251700,8.037251708984375,0.4396810531616211,3.2231388092041016,0.40636682510375977
1663861882861139500,8.047139404296875,0.8214991092681885,3.417970657348633,0.10425901412963867
1663861882871027200,8.057027099609375,1.1218500137329102,3.410996437072754,-0.10301876068115234
1663861882880884200,8.06688427734375,0.7481261491775513,3.328122138977051,-0.2971651554107666
1663861882890772000,8.07677197265625,0.1945054531097412,3.234647750854492,-0.6952109336853027
1663861882900659700,8.08665966796875,0.04666316509246826,3.089592933654785,-1.2236957550048828
1663861882910547500,8.09654736328125,0.28626692295074463,2.6588478088378906,-1.685220718383789
1663861882920435000,8.10643505859375,0.5640451908111572,2.1628828048706055,-1.7337512969970703
1663861882930322700,8.11632275390625,0.8959240913391113,1.457209587097168,-1.4740192890167236
1663861882940210400,8.12621044921875,0.3621205687522888,0.12815093994140625,-1.3203188180923462
1663861882950098200,8.13609814453125,-0.05575382709503174,-1.3590993881225586,-1.4969007968902588
1663861882959986000,8.14598583984375,0.12839457392692566,-2.492481231689453,-1.505294680595398
1663861882969873400,8.155873291015626,-0.005641341209411621,-2.906092643737793,-1.3232868909835815
1663861882979730700,8.165730712890625,-0.37394335865974426,-2.800532341003418,-1.3326094150543213
1663861882989588000,8.175587890625,-0.7885099649429321,-2.3429031372070312,-1.5453546047210693
1663861882999445000,8.185445068359375,-0.8493218421936035,-1.4189834594726562,-1.4344346523284912
1663861883009363200,8.19536328125,-0.355106383562088,-0.5836877822875977,-1.312056303024292
1663861883019220500,8.205220458984375,0.5744140148162842,-0.09966754913330078,-1.1676868200302124
1663861883029138700,8.215138671875,1.4789166450500488,0.15802955627441406,-0.9262946844100952
1663861883039026400,8.2250263671875,1.6309008598327637,0.2498645782470703,-0.8676612377166748
1663861883048914200,8.2349140625,1.0281461477279663,0.18100261688232422,-0.6711099147796631
1663861883058771200,8.244771240234375,0.10411682724952698,0.004553794860839844,-0.33759868144989014
1663861883068628500,8.25462841796875,-0.038124024868011475,-0.2504730224609375,-0.027750134468078613
1663861883078516200,8.26451611328125,0.6144264936447144,-0.25884151458740234,0.4540574550628662
1663861883088403700,8.27440380859375,1.3312559127807617,0.12985897064208984,1.134582281112671
1663861883098322000,8.284322021484375,1.9262747764587402,0.49030399322509766,1.6492340564727783
1663861883108179200,8.29417919921875,2.275639772415161,0.6175260543823242,1.8098819255828857
1663861883118097400,8.304097412109375,1.9532355070114136,0.4448251724243164,1.7450175285339355
1663861883127954700,8.31395458984375,0.9304326772689819,0.17569828033447266,1.589322566986084
1663861883137842200,8.32384228515625,0.2202758491039276,-0.04133415222167969,1.181485891342163
1663861883147730000,8.33372998046875,0.2562638223171234,-0.12755203247070312,0.6962591409683228
1663861883157617700,8.34361767578125,0.43782514333724976,-0.08619213104248047,0.24336016178131104
1663861883167475000,8.353474853515625,0.5833615064620972,0.007901191711425781,-0.23725605010986328
1663861883177393200,8.36339306640625,0.8396433591842651,0.04914379119873047,-0.7176214456558228
1663861883187280600,8.37328076171875,0.9691389799118042,0.05873394012451172,-1.071029782295227
1663861883197168400,8.38316845703125,0.7843894958496094,0.007808685302734375,-1.2675296068191528
1663861883207056100,8.39305615234375,0.4284299612045288,-0.0104522705078125,-1.3665488958358765
1663861883216913400,8.402913330078125,0.09925717860460281,-0.04885101318359375,-1.3433606624603271
1663861883226801000,8.41280078125,-0.008406649343669415,-0.10029029846191406,-1.0898357629776
1663861883236688600,8.422688720703125,0.1084747165441513,-0.15494441986083984,-0.7841759920120239
1663861883246576400,8.432576416015625,0.19334113597869873,-0.2531089782714844,-0.633216381072998
1663861883256464100,8.442464111328125,0.28812265396118164,-0.3205709457397461,-0.5341678857803345
1663861883266351900,8.452351806640625,0.3634888827800751,-0.3860025405883789,-0.5112385749816895
1663861883276239600,8.462239501953125,0.3080066442489624,-0.4351310729980469,-0.6453514099121094
1663861883286127000,8.472127197265625,0.09086647629737854,-0.4753379821777344,-0.8689875602722168
1663861883296014800,8.482014892578125,-0.07568570226430893,-0.5667314529418945,-1.331095576286316
1663861883305902600,8.491902587890625,-0.3357512354850769,-0.5690088272094727,-1.644004225730896
1663861883315790300,8.501790283203125,-0.5657776594161987,-0.48308849334716797,-1.600757360458374
1663861883325617000,8.511616943359375,-0.6296892166137695,-0.3549308776855469,-1.3054113388061523
1663861883335504600,8.521504638671875,-0.5270380973815918,-0.19705772399902344,-1.0295624732971191
1663861883345392400,8.531392333984375,-0.41657793521881104,-0.031525611877441406,-0.8366870880126953
1663861883355249400,8.54124951171875,-0.4421538710594177,0.13836288452148438,-0.6914529800415039
1663861883365167600,8.551167724609375,-0.65381920337677,0.35439300537109375,-0.6491177082061768
1663861883375055400,8.561055419921875,-0.9306987524032593,0.46728992462158203,-0.7222809791564941
1663861883384943000,8.570943115234375,-0.9697424173355103,0.5306873321533203,-0.7706286907196045
1663861883394800400,8.58080029296875,-0.5537865161895752,0.7468090057373047,-0.6278767585754395
1663861883404688000,8.59068798828125,0.10879600048065186,1.0566520690917969,-0.47946906089782715
1663861883414545200,8.600545166015625,0.5560328960418701,1.395033836364746,-0.19244813919067383
1663861883424433000,8.610432861328125,0.16574883460998535,1.7342948913574219,0.19295048713684082
1663861883434351000,8.62035107421875,-0.4231860637664795,1.8071966171264648,0.5295500755310059
1663861883444208000,8.6302080078125,-0.4369089603424072,1.6516294479370117,0.7116100788116455
1663861883454096000,8.640095947265625,0.1616048812866211,1.5725517272949219,0.8486196994781494
1663861883463983600,8.649983642578125,1.4415602684020996,1.7245044708251953,1.2756094932556152
1663861883473871400,8.659871337890625,2.8381764888763428,1.9274873733520508,1.7839405536651611
1663861883483728400,8.669728271484376,3.4314212799072266,1.9907112121582031,1.8096566200256348
1663861883493646800,8.679646728515625,3.035099506378174,1.9744043350219727,1.437608242034912
1663861883503534300,8.689534423828125,2.003955841064453,1.8918094635009766,1.2509586811065674
1663861883513422000,8.699422119140625,1.0660595893859863,1.8902387619018555,1.5876805782318115
1663861883523309800,8.709309814453125,0.5709810256958008,1.876363754272461,2.052001953125
1663861883533197600,8.719197509765625,0.32676029205322266,1.7042603492736816,2.260241985321045
1663861883543085300,8.729085205078125,1.3171486854553223,1.4217047691345215,2.2449800968170166
1663861883552972800,8.738972900390625,3.020756244659424,1.2709589004516602,2.176088571548462
1663861883562860500,8.748860595703125,2.9350810050964355,1.4362330436706543,1.9366364479064941
1663861883572748300,8.758748291015625,1.143031120300293,1.27193021774292,1.4620099067687988
1663861883582605600,8.76860546875,0.1994929313659668,0.8645262718200684,0.560150146484375
1663861883592493000,8.7784931640625,0.6868362426757812,1.126326084136963,0.017416000366210938
1663861883602350300,8.788350341796875,1.4563961029052734,1.7505812644958496,-0.1877908706665039
1663861883612238000,8.798238037109375,1.7194643020629883,2.23502254486084,-0.5951089859008789
1663861883622095000,8.80809521484375,1.533036708831787,2.4486498832702637,-0.17431068420410156
1663861883632013300,8.818013427734375,0.8486857414245605,2.093658924102783,0.2238163948059082
1663861883641901000,8.827901123046875,0.022087574005126953,1.1502785682678223,0.5204024314880371
1663861883651758300,8.83775830078125,-0.7309117317199707,0.14876699447631836,1.08803129196167
1663861883661646000,8.84764599609375,-0.939295768737793,-0.7056927680969238,1.8641138076782227
1663861883671533600,8.857533447265626,-0.4766874313354492,-1.3490395545959473,1.9881086349487305
1663861883681421300,8.86742138671875,-0.12939453125,-1.2158606052398682,1.4092612266540527
1663861883691309000,8.87730908203125,-0.8039207458496094,-0.7923228740692139,0.1615757942199707
1663861883701196800,8.88719677734375,-0.7668275833129883,-0.4971122741699219,-0.8880200386047363
1663861883711084500,8.89708447265625,-0.45073509216308594,-0.3846089839935303,-1.4143939018249512
1663861883720972300,8.90697216796875,-0.18248367309570312,-0.6029715538024902,-1.4623308181762695
1663861883730859800,8.91685986328125,-0.38132667541503906,-0.19646501541137695,-0.4946465492248535
1663861883740747500,8.92674755859375,-1.4910974502563477,0.7212001085281372,0.27321910858154297
1663861883750635300,8.93663525390625,-0.9522485733032227,1.372655987739563,0.6548643112182617
1663861883760523000,8.94652294921875,0.40299320220947266,0.5981894731521606,0.9870023727416992
1663861883770380000,8.956380126953125,-0.611968994140625,-1.0895010232925415,0.583101749420166
1663861883780237300,8.9662373046875,-2.6370487213134766,-1.8894283771514893,-0.21805047988891602
1663861883790125000,8.976125,-3.0773916244506836,-1.658734679222107,-0.8628387451171875
1663861883800012800,8.9860126953125,-2.0232772827148438,-1.1451387405395508,-0.2720818519592285
1663861883809900300,8.995900390625,-1.8774995803833008,-0.6523599624633789,0.1146693229675293
1663861883819788000,9.0057880859375,-2.1603775024414062,-0.18038791418075562,-1.8046989440917969
1663861883829645300,9.015645263671875,-1.7287473678588867,0.34595787525177,-3.7755603790283203
1663861883839533000,9.025532958984375,-1.5354804992675781,1.2539687156677246,-3.40753173828125
1663861883849420500,9.035420654296875,-2.015584945678711,0.9666919708251953,-1.1145439147949219
1663861883859308300,9.045308349609375,-2.3951025009155273,0.1767442226409912,0.8098468780517578
1663861883869196000,9.055196044921875,-2.7523412704467773,0.519062876701355,1.916792392730713
1663861883879053300,9.06505322265625,-2.9731807708740234,0.7206829786300659,2.011974334716797
1663861883888971500,9.074971435546875,-2.388319969177246,0.8534398078918457,0.8343052864074707
1663861883898859000,9.08485888671875,-1.6662530899047852,1.0535075664520264,-0.8199892044067383
1663861883908716300,9.09471630859375,-1.9964599609375,0.895437479019165,-2.106818675994873
1663861883918573600,9.104573486328125,-2.2817792892456055,0.9275245666503906,-2.5471596717834473
1663861883928491800,9.11449169921875,-2.217217445373535,1.3598926067352295,-2.0373239517211914
1663861883938379300,9.124379150390626,-2.455571174621582,1.5081450939178467,-1.3833098411560059
1663861883948267000,9.13426708984375,-2.0391712188720703,1.4353690147399902,-1.1578431129455566
1663861883958154800,9.14415478515625,-2.337435722351074,1.493530511856079,-1.0883440971374512
1663861883968042500,9.15404248046875,-2.979278564453125,1.574385166168213,-1.1142144203186035
1663861883977930200,9.16393017578125,-2.729398727416992,1.8198668956756592,-0.9815220832824707
1663861883987787300,9.173787353515625,-2.390233039855957,1.9184997081756592,-0.8774032592773438
1663861883997675000,9.183675048828125,-2.369786262512207,2.059736728668213,-1.06718111038208
1663861884007532300,9.1935322265625,-2.3764524459838867,2.190052032470703,-1.0548501014709473
1663861884017450500,9.203450439453125,-2.2876853942871094,2.163634777069092,-0.7348108291625977
1663861884027307500,9.2133076171875,-2.6381921768188477,2.0563395023345947,-0.6165118217468262
1663861884037195300,9.2231953125,-2.8288354873657227,1.802626371383667,-0.590054988861084
1663861884047083000,9.2330830078125,-2.7936267852783203,1.5912010669708252,-0.4804353713989258
1663861884056970800,9.242970703125,-3.109447479248047,1.3910930156707764,-0.4897007942199707
1663861884066858500,9.2528583984375,-3.201263427734375,1.346585750579834,-0.5708885192871094
1663861884076746000,9.26274609375,-2.639463424682617,1.401982069015503,-0.46294498443603516
1663861884086633700,9.2726337890625,-2.4908828735351562,1.226318597793579,-0.17358684539794922
1663861884096521500,9.282521484375,-2.535616874694824,0.9563994407653809,-0.17550373077392578
1663861884106409200,9.2924091796875,-2.4269514083862305,0.7512261867523193,-0.34348535537719727
1663861884116266200,9.302266357421875,-2.317999839782715,0.5922238826751709,-0.6201152801513672
1663861884126154000,9.312154052734375,-1.9535093307495117,0.7138235569000244,-0.7451505661010742
1663861884136041700,9.322041748046875,-1.9004364013671875,0.7837746143341064,-0.6168971061706543
1663861884145929500,9.331929443359375,-1.6076183319091797,0.7347322702407837,-0.3449392318725586
1663861884155817200,9.341817138671875,-1.3268585205078125,0.7587053775787354,-0.3527050018310547
1663861884165704700,9.35170458984375,-1.4999818801879883,0.7409396171569824,-0.5718731880187988
1663861884175592400,9.361592529296875,-1.7487983703613281,0.6493598222732544,-0.7462382316589355
1663861884185480200,9.371480224609375,-1.4722423553466797,0.6252851486206055,-0.7801713943481445
1663861884195368000,9.381367919921875,-1.0441884994506836,0.6530205607414246,-0.7990880012512207
1663861884205255700,9.391255615234375,-0.8881731033325195,0.5026525259017944,-0.951143741607666
1663861884215112700,9.40111279296875,-0.9635744094848633,0.21871978044509888,-0.9713726043701172
1663861884225000400,9.41100048828125,-1.0054254531860352,0.10425074398517609,-0.8124384880065918
1663861884234888200,9.42088818359375,-0.8672389984130859,-0.005823284387588501,-0.5948696136474609
1663861884244776000,9.43077587890625,-0.7884664535522461,-0.1936895251274109,-0.529578685760498
1663861884254663700,9.44066357421875,-0.6811599731445312,-0.2829664349555969,-0.5754671096801758
1663861884264551200,9.45055126953125,-0.6393852233886719,-0.3503379821777344,-0.7482376098632812
1663861884274439000,9.46043896484375,-0.7023220062255859,-0.42239558696746826,-0.7191438674926758
1663861884284296200,9.470296142578125,-0.7240629196166992,-0.536955714225769,-0.5606818199157715
1663861884294184000,9.480183837890625,-0.6014299392700195,-0.6867549419403076,-0.5269608497619629
1663861884304041000,9.490041015625,-0.6034641265869141,-0.7975273132324219,-0.35765552520751953
1663861884313928700,9.4999287109375,-0.6899261474609375,-0.7678353786468506,-0.04154539108276367
1663861884323786000,9.509785888671875,-0.8719768524169922,-0.6067159175872803,0.36378955841064453
1663861884333704200,9.5197041015625,-0.23012733459472656,-0.40644311904907227,0.6845159530639648
1663861884343561200,9.529561279296875,-0.2479686737060547,-0.08707547187805176,1.1494622230529785
1663861884353449000,9.539448974609375,-0.40769386291503906,0.1488182544708252,1.2584590911865234
1663861884363336700,9.549336669921875,-0.052764892578125,0.2177138328552246,1.0942740440368652
1663861884373224400,9.559224365234375,-0.05200481414794922,0.351654052734375,1.107861042022705
1663861884383112000,9.56911181640625,0.0015411376953125,0.623715877532959,1.211118221282959
1663861884392969200,9.57896923828125,1.214045524597168,0.7946434020996094,1.2644925117492676
1663861884402887400,9.588887451171875,1.6466541290283203,0.6088151931762695,0.9986648559570312
1663861884412775200,9.598775146484375,1.180772304534912,0.37505388259887695,0.7156562805175781
1663861884422663000,9.608662841796875,1.6075029373168945,0.3000054359436035,0.6667366027832031
1663861884432550700,9.618550537109375,1.9316000938415527,0.2573094367980957,0.7226643562316895
1663861884442438100,9.628438232421875,1.9448575973510742,0.23488473892211914,0.7633395195007324
1663861884452326000,9.638325927734375,1.9697637557983398,0.25302934646606445,0.9584214687347412
1663861884462213600,9.648213623046875,1.5937309265136719,0.3228878974914551,1.2078933715820312
1663861884472101400,9.658101318359375,1.706777572631836,0.358978271484375,1.3465521335601807
1663861884481958400,9.66795849609375,2.157169818878174,0.5415425300598145,1.5778441429138184
1663861884491846100,9.67784619140625,1.9892444610595703,0.7340555191040039,1.6926815509796143
1663861884501734000,9.68773388671875,1.829822063446045,0.8735556602478027,1.5467720031738281
1663861884511591200,9.697591064453125,1.7372345924377441,1.1637802124023438,1.393040418624878
1663861884521478700,9.707478759765625,1.5327119827270508,1.6147403717041016,1.3949542045593262
1663861884531366400,9.717366455078125,1.3061456680297852,2.1091670989990234,1.457918405532837
1663861884541223700,9.7272236328125,1.14967679977417,2.5620126724243164,1.4912257194519043
1663861884551111400,9.737111328125,1.0263128280639648,2.963685989379883,1.4848105907440186
1663861884560999000,9.7469990234375,0.8591294288635254,3.252110481262207,1.4415340423583984
1663861884570886700,9.75688671875,0.7185020446777344,3.4512176513671875,1.3340175151824951
1663861884580774400,9.7667744140625,0.4677286148071289,3.567554473876953,1.0424797534942627
1663861884590662100,9.776662109375,0.14922738075256348,3.401163101196289,0.569399356842041
1663861884600550000,9.7865498046875,-0.13007640838623047,3.196704864501953,0.27512454986572266
1663861884610437400,9.796437255859376,-0.29599905014038086,3.0728330612182617,0.22689318656921387
1663861884620325000,9.8063251953125,-0.5253653526306152,2.8079347610473633,0.2178173065185547
1663861884630212900,9.816212890625,-0.7874927520751953,2.496890068054199,0.2523624897003174
1663861884640100600,9.8261005859375,-1.1162662506103516,2.1085128784179688,0.48638081550598145
1663861884649988400,9.83598828125,-1.1256108283996582,1.561356544494629,0.3949439525604248
1663861884659845400,9.845845458984375,-0.5326974391937256,0.9774646759033203,0.4266383647918701
1663861884669733000,9.855733154296875,-0.4401634931564331,0.5180253982543945,0.6436686515808105
1663861884679620900,9.865620849609375,-0.7110172510147095,0.13548564910888672,0.6921656131744385
1663861884689508600,9.875508544921875,-0.9661293029785156,-0.06974220275878906,0.28604841232299805
1663861884699396400,9.885396240234375,-0.5999020338058472,-0.18930339813232422,-0.45149946212768555
1663861884709283800,9.895283935546875,0.36673396825790405,-0.1334371566772461,-1.024186611175537
1663861884719171600,9.905171630859375,1.0712931156158447,-0.13379478454589844,-1.6690597534179688
1663861884729059300,9.915059326171875,1.0494496822357178,-0.35724449157714844,-2.4982101917266846
1663861884738916600,9.92491650390625,0.4041025936603546,-1.1570672988891602,-3.128876209259033
1663861884748804000,9.93480419921875,-0.3841632902622223,-1.6431951522827148,-3.2559430599212646
1663861884758691800,9.94469189453125,-0.8789131045341492,-1.5832757949829102,-3.053934097290039
1663861884768579600,9.95457958984375,-0.6641959547996521,-1.2303009033203125,-2.6837847232818604
1663861884778467300,9.96446728515625,-0.06266814470291138,-0.8917999267578125,-2.1695499420166016
1663861884788324400,9.974324462890625,0.25222671031951904,-0.786219596862793,-1.7315990924835205
1663861884798212000,9.984212158203125,0.4486454129219055,-0.8338174819946289,-1.3878023624420166
1663861884808069400,9.9940693359375,0.5470126867294312,-0.8098411560058594,-1.0919108390808105
1663861884817957000,10.00395703125,0.2267066389322281,-0.6406545639038086,-0.7906448841094971
1663861884827814100,10.013814208984375,-0.18299762904644012,-0.3743762969970703,-0.46306872367858887
1663861884837732400,10.023732421875,-0.2549464702606201,-0.03010272979736328,-0.06980514526367188
1663861884847620000,10.0336201171875,0.04336161911487579,0.31380271911621094,0.35315942764282227
1663861884857507800,10.0435078125,0.5738029479980469,0.5360431671142578,0.6631920337677002
1663861884867364900,10.05336474609375,0.8963491916656494,0.5680418014526367,0.7880799770355225
1663861884877252600,10.063252685546875,0.7861560583114624,0.5275135040283203,0.737295389175415
1663861884887140400,10.073140380859375,0.5642011165618896,0.3737640380859375,0.6315360069274902
1663861884897028000,10.083028076171875,0.42341384291648865,0.2664642333984375,0.6021454334259033
1663861884906885400,10.092885498046876,0.3301634192466736,0.18849658966064453,0.5448029041290283
1663861884916803600,10.102803466796875,0.44642600417137146,0.2115650177001953,0.4422874450683594
1663861884926660600,10.11266064453125,0.7474759817123413,0.2948446273803711,0.29459261894226074
1663861884936548400,10.12254833984375,0.9642483592033386,0.311798095703125,-0.05417513847351074
1663861884946436000,10.13243603515625,0.8395756483078003,0.19296932220458984,-0.5281155109405518
1663861884956293000,10.142293212890625,0.6238018274307251,0.0623626708984375,-0.8834884166717529
1663861884966211300,10.15221142578125,0.5590141415596008,-0.12568950653076172,-1.0645999908447266
1663861884976099000,10.16209912109375,0.4806477725505829,-0.20150279998779297,-1.1862194538116455
1663861884985986800,10.17198681640625,0.27585095167160034,-0.18923377990722656,-1.272331714630127
1663861884995874600,10.18187451171875,0.03299129009246826,-0.0819864273071289,-1.2296524047851562
1663861885005731600,10.191731689453125,-0.05710469186306,0.024559974670410156,-1.1878485679626465
1663861885015588900,10.2015888671875,-0.026166290044784546,0.049251556396484375,-1.245070219039917
1663861885025507000,10.211507080078125,0.023350656032562256,0.03284645080566406,-1.2648634910583496
1663861885035364400,10.2213642578125,0.15161387622356415,0.013454437255859375,-1.2297260761260986
1663861885045251800,10.231251953125,0.25961872935295105,-0.06644153594970703,-1.1798717975616455
1663861885055170000,10.241170166015625,0.4110664129257202,-0.13521862030029297,-1.0934674739837646
1663861885065027300,10.25102734375,0.4519481360912323,-0.16691112518310547,-1.0679371356964111
1663861885074915000,10.2609150390625,0.5569305419921875,-0.14304161071777344,-1.0897853374481201
1663861885084802800,10.270802734375,0.6882582902908325,-0.059505462646484375,-1.1171107292175293
1663861885094690300,10.280690185546876,0.8524675965309143,-0.043453216552734375,-1.103733777999878
1663861885104578000,10.290578125,0.9341304302215576,0.005280494689941406,-1.009181261062622
1663861885114465800,10.3004658203125,0.9450527429580688,-0.021162986755371094,-0.8888788223266602
1663861885124323000,10.310322998046875,0.940235435962677,-0.10402107238769531,-0.7041299343109131
1663861885134210800,10.3202109375,0.8312530517578125,-0.08142375946044922,-0.5270442962646484
1663861885144098300,10.330098388671875,0.42949962615966797,-0.13341045379638672,-0.3584561347961426
1663861885153986000,10.339986083984375,0.08349490165710449,-0.23931121826171875,-0.21633458137512207
1663861885163873800,10.349873779296875,0.03187727928161621,-0.22077178955078125,-0.13947558403015137
1663861885173761500,10.359761474609375,-0.13409245014190674,-0.098480224609375,-0.17182540893554688
1663861885183649300,10.369649169921875,-0.5074985027313232,0.17043781280517578,-0.18467926979064941
1663861885193506300,10.37950634765625,-0.8498761653900146,0.4607372283935547,-0.16615962982177734
1663861885203394000,10.38939404296875,-0.9000678062438965,0.9473237991333008,0.38636255264282227
1663861885213251300,10.399251220703125,-0.28984618186950684,1.4889469146728516,0.707528829574585
1663861885223138800,10.409138916015625,0.7665398120880127,1.8716373443603516,0.570110559463501
1663861885233057000,10.41905712890625,1.8647160530090332,2.4827003479003906,0.9411251544952393
1663861885242944800,10.42894482421875,2.577766180038452,3.175457000732422,1.5760462284088135
1663861885252832500,10.43883251953125,2.981635332107544,3.5532760620117188,1.652944564819336
1663861885262689800,10.448689697265625,3.0269923210144043,3.470381736755371,0.9030430316925049
1663861885272577300,10.458577392578125,2.7584691047668457,3.243928909301758,0.23530173301696777
1663861885282465000,10.468465087890625,2.107600212097168,2.9019365310668945,0.15032625198364258
1663861885292322300,10.478322265625,1.7718687057495117,2.4914894104003906,0.7757282257080078
1663861885302240500,10.488240478515625,1.2551169395446777,1.8415718078613281,1.6717231273651123
1663861885312128300,10.498128173828125,0.042611122131347656,0.9592328071594238,2.3699779510498047
1663861885321985300,10.5079853515625,-0.8697390556335449,-0.05685710906982422,2.82224178314209
1663861885331873000,10.517873046875,-0.4304070472717285,-1.0899057388305664,3.0050573348999023
1663861885341760800,10.5277607421875,1.558077335357666,-1.71561861038208,2.853353977203369
1663861885351648500,10.5376484375,1.9357991218566895,-1.6692938804626465,2.846181869506836
1663861885361536300,10.547536376953126,1.5188140869140625,-1.2449913024902344,2.7508716583251953
1663861885371393300,10.557393310546875,0.7235202789306641,-0.6508092880249023,2.658449172973633
1663861885381311500,10.5673115234375,-0.5551261901855469,0.46512699127197266,2.258145332336426
1663861885391199200,10.57719921875,-0.4355320930480957,2.519951820373535,1.7622790336608887
1663861885401056500,10.587056396484375,0.11477851867675781,4.198925495147705,0.528569221496582
1663861885410944000,10.596944091796875,1.306105136871338,4.447625637054443,-0.8782176971435547
1663861885420801300,10.60680126953125,1.2963294982910156,3.5154871940612793,-1.2065339088439941
1663861885430719500,10.616719482421875,0.5666909217834473,1.7086939811706543,-0.5796098709106445
1663861885440576800,10.62657666015625,0.770571231842041,-0.05773496627807617,0.24744844436645508
1663861885450464300,10.63646435546875,0.8536858558654785,-1.2540388107299805,0.08274602890014648
1663861885460352000,10.64635205078125,-0.40989017486572266,-1.7503528594970703,-1.231062412261963
1663861885470239700,10.65623974609375,-1.1062936782836914,-1.2051599025726318,-2.5672078132629395
1663861885480097000,10.666096923828125,-0.8737831115722656,-0.5625495910644531,-3.2864484786987305
1663861885490015200,10.67601513671875,-0.828150749206543,0.10207796096801758,-1.9356560707092285
1663861885499872300,10.685872314453125,-0.8351783752441406,0.32860350608825684,0.7320961952209473
1663861885509760000,10.695760009765625,-1.039933204650879,-0.3635735511779785,3.3587212562561035
1663861885519647700,10.705647705078125,-1.8107624053955078,-1.274763584136963,5.2650346755981445
1663861885529535500,10.715535400390625,-2.2473134994506836,-1.5839829444885254,5.125822067260742
1663861885539423000,10.725423095703125,-1.2164554595947266,-1.303025245666504,3.239962577819824
1663861885549310700,10.735310791015625,-0.23153018951416016,-0.6367272138595581,0.4364280700683594
1663861885559198500,10.745198486328125,0.01094818115234375,0.3934347629547119,-2.785890579223633
1663861885569086200,10.755086181640625,1.0312414169311523,0.323128342628479,-5.151947498321533
1663861885578974000,10.764973876953125,0.2844562530517578,-0.4222526550292969,-5.373795986175537
1663861885588861700,10.77486181640625,-1.7021188735961914,-0.4204438626766205,-4.020020961761475
1663861885598749200,10.784749267578125,-1.502359390258789,-0.5884503126144409,-0.7139639854431152
1663861885608637000,10.794636962890625,-1.0145378112792969,-0.9458330273628235,2.8058972358703613
1663861885618494200,10.804494140625,-2.150212287902832,-0.6226669549942017,4.474900722503662
1663861885628382000,10.8143818359375,-1.9504528045654297,0.21595263481140137,3.0004796981811523
1663861885638269400,10.82426953125,-1.3631057739257812,0.9336514472961426,0.35210275650024414
1663861885648157200,10.8341572265625,-1.093820571899414,1.046800136566162,-1.9195284843444824
1663861885658045000,10.844044921875,-1.123112678527832,0.8020695447921753,-2.684180736541748
1663861885667932700,10.8539326171875,-1.1928281784057617,0.7684910297393799,-2.3172783851623535
1663861885677789700,10.863789794921875,-1.464798927307129,0.6569943428039551,-1.4359807968139648
1663861885687647000,10.87364697265625,-1.8485002517700195,0.2986346483230591,-0.4193453788757324
1663861885697565200,10.883565185546875,-2.0349206924438477,0.1886061429977417,0.5417037010192871
1663861885707453000,10.893452880859375,-2.6810874938964844,0.2915327548980713,0.9061222076416016
1663861885717310000,10.90331005859375,-2.789125442504883,0.7014310359954834,0.5533127784729004
1663861885727167200,10.913167236328125,-2.7738170623779297,1.0017387866973877,0.09372520446777344
1663861885737085400,10.92308544921875,-2.783585548400879,0.6924276351928711,-0.3009638786315918
1663861885746942700,10.932942626953125,-2.0071868896484375,0.5894677639007568,-0.7836599349975586
1663861885756861000,10.94286083984375,-1.9620170593261719,1.0179500579833984,-1.1381869316101074
1663861885766718000,10.952718017578125,-2.022550582885742,1.5080740451812744,-1.0832772254943848
1663861885776605700,10.962605712890625,-2.032477378845215,1.7139363288879395,-0.979217529296875
1663861885786493400,10.972493408203125,-1.848109245300293,1.864060878753662,-1.1055989265441895
1663861885796381200,10.982381103515625,-2.128342628479004,1.8440241813659668,-1.3815579414367676
1663861885806238200,10.99223828125,-2.147698402404785,1.556837797164917,-1.5410609245300293
1663861885816126000,11.0021259765625,-1.679825782775879,1.4875023365020752,-1.563211441040039
1663861885826013700,11.012013671875,-1.8208122253417969,1.6282999515533447,-1.3512134552001953
1663861885835901400,11.0219013671875,-2.167006492614746,1.6082842350006104,-1.1627602577209473
1663861885845789200,11.0317890625,-2.3344621658325195,1.3647253513336182,-1.23982572555542
1663861885855646200,11.041646240234375,-2.3159732818603516,1.2843456268310547,-1.3661842346191406
1663861885865564400,11.051564453125,-1.9385652542114258,1.3197453022003174,-1.360887050628662
1663861885875452200,11.0614521484375,-2.1322526931762695,1.161529779434204,-1.1564908027648926
1663861885885309400,11.071309326171875,-2.534259796142578,1.0433404445648193,-0.9661569595336914
1663861885895227600,11.0812275390625,-2.3756837844848633,1.0167932510375977,-0.7156696319580078
1663861885905115100,11.091115234375,-2.2305212020874023,0.8863046169281006,-0.4977550506591797
1663861885914972400,11.100972412109375,-2.3189516067504883,0.8625593185424805,-0.6081795692443848
1663861885924860200,11.110860107421875,-1.8887519836425781,1.0740852355957031,-0.48708248138427734
1663861885934748000,11.120747802734375,-1.7789068222045898,1.03385591506958,-0.36391210556030273
1663861885944635400,11.130635498046875,-1.8414649963378906,0.9470946788787842,-0.44266414642333984
1663861885954523100,11.140523193359375,-1.7772865295410156,0.9784681797027588,-0.4503636360168457
1663861885964411000,11.150410888671875,-2.011730194091797,0.9016797542572021,-0.37053680419921875
1663861885974298600,11.160298583984375,-2.0678625106811523,0.8047767877578735,-0.46824121475219727
1663861885984155600,11.17015576171875,-1.5551881790161133,0.7529878616333008,-0.7266993522644043
1663861885994013000,11.180012939453125,-1.3221168518066406,0.7313647270202637,-0.8755698204040527
1663861886003900700,11.189900634765625,-1.3842201232910156,0.5879122018814087,-0.8359332084655762
1663861886013788400,11.199788330078125,-1.3952322006225586,0.4524557590484619,-0.639686107635498
1663861886023706600,11.20970654296875,-1.3034248352050781,0.3294196128845215,-0.554779052734375
1663861886033563600,11.219563720703125,-1.166865348815918,0.1227063536643982,-0.7033429145812988
1663861886043421000,11.2294208984375,-1.1550378799438477,-0.0473841056227684,-0.6778035163879395
1663861886053339100,11.239339111328125,-1.220458984375,-0.17119115591049194,-0.5956335067749023
1663861886063227000,11.249226806640625,-1.0485115051269531,-0.18022379279136658,-0.6617050170898438
1663861886073114600,11.259114501953125,-0.9175748825073242,-0.13550454378128052,-0.6268048286437988
1663861886083002000,11.269002197265625,-0.7478055953979492,-0.16116881370544434,-0.43212270736694336
1663861886092889900,11.278889892578125,-0.6643171310424805,-0.2789372205734253,-0.26621055603027344
1663861886102747100,11.2887470703125,-0.43099021911621094,-0.44526898860931396,-0.2598233222961426
1663861886112604200,11.298604248046875,-0.3260164260864258,-0.6005854606628418,-0.2756509780883789
1663861886122522400,11.3085224609375,-0.4265871047973633,-0.6899845600128174,-0.42473793029785156
1663861886132410000,11.31841015625,-0.6526994705200195,-0.5375344753265381,-0.3527402877807617
1663861886142297900,11.3282978515625,-0.6696548461914062,-0.2545897960662842,-0.07635974884033203
1663861886152185600,11.338185546875,-0.47756195068359375,0.1852705478668213,0.17361021041870117
1663861886162073300,11.3480732421875,-0.2841053009033203,0.6892516613006592,0.5627388954162598
1663861886171960800,11.3579609375,0.0995635986328125,0.9851677417755127,0.7984457015991211
1663861886181848600,11.3678486328125,0.2684297561645508,1.3008227348327637,0.743492603302002
1663861886191736300,11.377736328125,0.14858150482177734,1.7183294296264648,0.766261100769043
1663861886201624000,11.3876240234375,0.2896909713745117,1.9489178657531738,0.5501551628112793
1663861886211511800,11.39751171875,0.2818937301635742,1.9883055686950684,0.4034113883972168
1663861886221399300,11.4073994140625,0.38256168365478516,1.7988667488098145,0.57330322265625
1663861886231256600,11.417256591796875,0.8794546127319336,1.611192226409912,0.7993054389953613
1663861886241113900,11.42711376953125,0.9310646057128906,1.4969654083251953,0.9406514167785645
1663861886251001300,11.43700146484375,0.9627037048339844,1.2891607284545898,0.9850974082946777
1663861886260889000,11.44688916015625,1.119147777557373,1.0655550956726074,0.9144730567932129
1663861886270776800,11.45677685546875,1.0116400718688965,0.8913745880126953,0.8763599395751953
1663861886280634000,11.466634033203125,0.667022705078125,0.6873736381530762,0.868067741394043
1663861886290521600,11.476521484375,0.8265376091003418,0.5872845649719238,0.9694795608520508
1663861886300409300,11.486409423828125,0.8030271530151367,0.49296998977661133,1.1204454898834229
1663861886310297000,11.496297119140625,0.9436993598937988,0.38701820373535156,1.4243333339691162
1663861886320184800,11.506184814453125,1.4936447143554688,0.28863000869750977,1.681081771850586
1663861886330072600,11.516072509765625,1.41782808303833,0.31537866592407227,1.7756216526031494
1663861886339960300,11.525960205078125,1.2792000770568848,0.4306612014770508,1.7216639518737793
1663861886349847800,11.535847900390625,1.3536767959594727,0.6360363960266113,1.6046082973480225
1663861886359735600,11.545735595703125,1.2222847938537598,0.8529691696166992,1.6215643882751465
1663861886369623300,11.555623291015625,1.1269311904907227,0.9216670989990234,1.5176098346710205
1663861886379511000,11.565510986328125,1.2388429641723633,0.9223651885986328,1.3860869407653809
1663861886389398800,11.575398681640625,1.4862890243530273,0.9415216445922852,1.4092259407043457
1663861886399255800,11.585255859375,1.4528050422668457,0.6228427886962891,0.9868314266204834
1663861886409143600,11.5951435546875,1.3518662452697754,0.2736387252807617,0.5234057903289795
1663861886419031300,11.60503125,1.2823493480682373,0.23108768463134766,0.606602668762207
1663861886428919000,11.6149189453125,1.1034903526306152,0.49050235748291016,0.8846173286437988
1663861886438776000,11.624776123046875,0.8326022624969482,0.8884687423706055,0.7288086414337158
1663861886448633300,11.63463330078125,0.549302339553833,1.4522619247436523,0.3403656482696533
1663861886458551600,11.644551513671875,0.3881387710571289,2.1581506729125977,0.012930631637573242
1663861886468439300,11.654439208984375,0.36901307106018066,2.9690685272216797,-0.12727808952331543
1663861886478326800,11.664326904296875,0.4977710247039795,3.625361442565918,-0.18800592422485352
1663861886488184000,11.67418408203125,0.6048656702041626,4.042315483093262,-0.3949732780456543
1663861886498071800,11.68407177734375,0.3712660074234009,4.078192710876465,-0.6555237770080566
1663861886507959600,11.69395947265625,0.23831474781036377,3.712071418762207,-0.786205530166626
1663861886517847000,11.703846923828126,0.7016185522079468,3.227675437927246,-0.9461030960083008
1663861886527704300,11.713704345703125,1.3520032167434692,2.6890296936035156,-1.2022697925567627
1663861886537622500,11.72362255859375,1.6383998394012451,1.7852592468261719,-1.6095753908157349
1663861886547510300,11.73351025390625,0.827094554901123,0.5485506057739258,-2.1081066131591797
1663861886557367600,11.743367431640625,-0.3557369112968445,-0.8223819732666016,-2.3663315773010254
1663861886567255000,11.753255126953125,-0.782770574092865,-1.9947948455810547,-2.195399284362793
1663861886577142800,11.763142822265625,-0.5552929639816284,-2.604762077331543,-1.6907761096954346
1663861886587000000,11.773,-0.20141074061393738,-2.658841133117676,-1.1062695980072021
1663861886596887800,11.7828876953125,-0.4129825234413147,-2.2023611068725586,-0.6404280662536621
1663861886606775300,11.792775390625,-0.9555435180664062,-1.5227375030517578,-0.29500341415405273
1663861886616663000,11.8026630859375,-0.9059162139892578,-0.8665952682495117,-0.11455726623535156
1663861886626520300,11.812520263671875,-0.48811444640159607,-0.4636974334716797,-0.09791398048400879
1663861886636438500,11.8224384765625,-0.23470014333724976,-0.2279338836669922,0.0021239519119262695
1663861886646326300,11.832326171875,0.17337781190872192,0.0013494491577148438,0.04845559597015381
1663861886656213800,11.8422138671875,0.9534668922424316,0.07668399810791016,-0.09713888168334961
1663861886666071000,11.852071044921875,1.3804386854171753,0.09434986114501953,-0.03602957725524902
1663861886675958800,11.861958740234375,1.0801327228546143,0.08579254150390625,0.10630583763122559
1663861886685846500,11.871846435546875,0.6782495379447937,0.0870809555053711,0.24753856658935547
1663861886695734000,11.881734130859375,0.7832666635513306,0.0982513427734375,0.4850022792816162
1663861886705591300,11.89159130859375,1.083509922027588,0.10276317596435547,0.7459495067596436
1663861886715509500,11.901509521484375,0.98725426197052,0.1821126937866211,0.8882181644439697
1663861886725397200,11.911397216796875,0.6176609992980957,0.2646951675415039,0.8870923519134521
1663861886735254300,11.921254150390626,0.6117960810661316,0.2693147659301758,0.6924376487731934
1663861886745142000,11.93114208984375,0.6667637825012207,0.22949600219726562,0.6160135269165039
1663861886754999300,11.940999267578125,0.42627912759780884,0.20247840881347656,0.5985832214355469
1663861886764917500,11.95091748046875,0.12711438536643982,0.18572235107421875,0.34647083282470703
1663861886774805200,11.96080517578125,0.12379050254821777,0.05460071563720703,-0.01647329330444336
1663861886784693000,11.97069287109375,0.29555201530456543,-0.014240264892578125,-0.4214000701904297
1663861886794580500,11.98058056640625,0.4200970232486725,-0.05225658416748047,-0.7570205926895142
1663861886804468200,11.99046826171875,0.4495193362236023,-0.05251789093017578,-1.0465139150619507
1663861886814356000,12.00035595703125,0.31296226382255554,-0.0965280532836914,-1.2674461603164673
1663861886824243700,12.01024365234375,0.0900912880897522,-0.17009735107421875,-1.2371141910552979
1663861886834100700,12.020100830078125,-0.08353739976882935,-0.1346759796142578,-1.0325957536697388
1663861886843988500,12.029988525390625,-0.16749787330627441,-0.0262908935546875,-0.8223755359649658
1663861886853876200,12.039876220703125,-0.11804267764091492,0.03543567657470703,-0.7070798873901367
1663861886863764000,12.049763916015625,-0.06051984429359436,0.08869266510009766,-0.7914021015167236
1663861886873651700,12.059651611328125,0.041693300008773804,0.11863327026367188,-0.9942817687988281
1663861886883539200,12.069539306640625,0.16375911235809326,0.1917743682861328,-1.1850593090057373
1663861886893427000,12.079427001953125,0.32291263341903687,0.3315591812133789,-1.2578861713409424
1663861886903284200,12.0892841796875,0.30473870038986206,0.4660196304321289,-1.1341421604156494
1663861886913172000,12.099171875,0.12987208366394043,0.5399818420410156,-0.8649775981903076
1663861886923059500,12.1090595703125,-0.0790947675704956,0.5653409957885742,-0.624107837677002
1663861886932947200,12.118947265625,-0.22763460874557495,0.4771003723144531,-0.48827362060546875
1663861886942804500,12.128804443359375,-0.4012491703033447,0.3343391418457031,-0.33067846298217773
1663861886952692200,12.138692138671875,-0.40274930000305176,0.3053922653198242,-0.23189258575439453
1663861886962549200,12.14854931640625,-0.1064072847366333,0.4269704818725586,-0.15299391746520996
1663861886972467500,12.158467529296875,0.2323925495147705,0.5562276840209961,-0.12449193000793457
1663861886982355200,12.168355224609375,0.4311549663543701,0.6708269119262695,-0.08858132362365723
1663861886992212500,12.17821240234375,0.49675238132476807,0.7314414978027344,-0.234452486038208
1663861887002100000,12.188099853515626,0.5017025470733643,0.8913364410400391,-0.4802591800689697
1663861887011987700,12.19798779296875,0.3037562370300293,1.1692485809326172,-0.7107481956481934
1663861887021875500,12.20787548828125,0.25705409049987793,1.453883171081543,-0.7094192504882812
1663861887031732700,12.217732666015625,0.9320225715637207,1.7193613052368164,-0.369002103805542
1663861887041620500,12.227620361328125,2.1333439350128174,1.9725255966186523,0.2378695011138916
1663861887051538700,12.23753857421875,3.266007661819458,2.017190933227539,0.6979079246520996
1663861887061395700,12.247395751953125,3.292290210723877,1.8365325927734375,0.6907908916473389
1663861887071283500,12.257283447265625,2.2079250812530518,1.2861299514770508,0.8366961479187012
1663861887081140700,12.267140625,0.5712685585021973,0.47545623779296875,0.8889791965484619
1663861887091059000,12.277058837890625,-0.5814499855041504,-0.49756717681884766,0.8424091339111328
1663861887100916000,12.286916015625,-0.22945690155029297,-1.109919548034668,1.2469468116760254
1663861887110803700,12.2968037109375,1.4094247817993164,-1.3980026245117188,1.7345356941223145
1663861887120691500,12.30669140625,2.7529797554016113,-1.3898916244506836,1.8398747444152832
1663861887130579200,12.3165791015625,2.6135287284851074,-1.1316747665405273,1.6156976222991943
1663861887140466700,12.326466796875,1.464663028717041,-0.8195934295654297,1.2916712760925293
1663861887150354400,12.3363544921875,0.5880651473999023,-0.5867948532104492,1.1133174896240234
1663861887160242200,12.3462421875,0.682640552520752,-0.09687280654907227,1.076779842376709
1663861887170130000,12.3561298828125,1.2756905555725098,0.475583553314209,0.9225113391876221
1663861887179987000,12.365987060546875,1.3516454696655273,0.9890522956848145,0.6045718193054199
1663861887189874700,12.375874755859375,1.9088783264160156,1.5395684242248535,0.2711753845214844
1663861887199762400,12.385762451171875,1.5499520301818848,2.265719413757324,-0.23386192321777344
1663861887209650200,12.395650146484375,0.4848918914794922,3.1668543815612793,-0.8136491775512695
1663861887219538000,12.405537841796875,1.4360547065734863,4.221055030822754,-1.1640019416809082
1663861887229425400,12.41542529296875,1.5991520881652832,4.984192848205566,-1.5195088386535645
1663861887239313200,12.425313232421875,0.9720525741577148,4.4008588790893555,-1.6338443756103516
1663861887249201000,12.435200927734375,0.7029514312744141,2.849191188812256,-0.911902904510498
1663861887259088600,12.445088623046875,-0.09805917739868164,0.7783737182617188,-0.04018449783325195
1663861887268976400,12.454976318359375,-0.4067249298095703,-1.0546684265136719,0.26187849044799805
1663861887278864100,12.464864013671875,-0.014513492584228516,-1.8563318252563477,0.0635843276977539
1663861887288751600,12.474751708984375,-0.3986539840698242,-1.4613399505615234,-0.4372267723083496
1663861887298639400,12.484639404296875,-0.5151195526123047,-0.4638099670410156,-0.5794239044189453
1663861887308527000,12.494527099609375,-0.4693441390991211,0.23630285263061523,0.4353909492492676
1663861887318384400,12.50438427734375,-1.0033960342407227,0.24194598197937012,2.148311138153076
1663861887328272000,12.51427197265625,-1.7605352401733398,-0.5238425731658936,3.522594451904297
1663861887338159600,12.52415966796875,-2.20902156829834,-1.4855945110321045,3.692193031311035
1663861887348047400,12.53404736328125,-1.8178157806396484,-1.8144056797027588,3.072402000427246
1663861887357935000,12.54393505859375,-1.3491144180297852,-1.4084076881408691,2.0275650024414062
1663861887367822800,12.55382275390625,-0.1222372055053711,-0.5797019004821777,0.38181495666503906
1663861887377680000,12.563679931640625,0.6590871810913086,0.3262178897857666,-1.802504062652588
1663861887387567600,12.573567626953125,0.3110532760620117,0.6654955148696899,-3.2344555854797363
1663861887397455400,12.583455322265625,-0.35056114196777344,0.24932825565338135,-3.5943922996520996
1663861887407343000,12.593343017578125,-1.4779949188232422,-0.5856574773788452,-2.881089687347412
1663861887417230600,12.603230712890625,-1.5042715072631836,-1.5382084846496582,-1.067939281463623
1663861887427118300,12.613118408203125,-2.180419921875,-1.7841520309448242,1.1938138008117676
1663861887437006000,12.623006103515625,-2.311990737915039,-1.4079113006591797,2.868683338165283
1663861887446863400,12.63286328125,-1.8915462493896484,-0.3748631477355957,2.7191195487976074
1663861887456750800,12.642750732421876,-1.6719379425048828,0.6349724531173706,0.49277639389038086
1663861887466638600,12.652638671875,-1.3200092315673828,1.732257604598999,-1.0205645561218262
