time,seconds_elapsed,z,y,x
1663861875073297200,0.259297119140625,9.32666015625,2.9000096321105957,-0.8796190023422241
1663861875083184600,0.2691845703125,9.35438346862793,2.829942226409912,-0.8107575178146362
1663861875093102800,0.279102783203125,9.385747909545898,2.760138988494873,-0.6780490279197693
1663861875102990600,0.288990478515625,9.412582397460938,2.694603681564331,-0.5592913627624512
1663861875112878300,0.29887841796875,9.426324844360352,2.6601479053497314,-0.4882524907588959
1663861875122766000,0.30876611328125,9.43053150177002,2.645885944366455,-0.48452216386795044
1663861875132623000,0.318623046875,9.431879043579102,2.6307430267333984,-0.5377990007400513
1663861875142480400,0.32848046875,9.442623138427734,2.554398536682129,-0.6944794058799744
1663861875152368000,0.3383681640625,9.452862739562988,2.464421272277832,-0.8604618310928345
1663861875162225200,0.34822509765625,9.460144996643066,2.404088020324707,-0.9467839598655701
1663861875172113000,0.35811279296875,9.464966773986816,2.378342628479004,-0.9634702205657959
1663861875182031000,0.368031005859375,9.472261428833008,2.3638267517089844,-0.9268038868904114
1663861875191888400,0.377888427734375,9.480931282043457,2.3607394695281982,-0.8421581387519836
1663861875201776000,0.387776123046875,9.488118171691895,2.369020938873291,-0.7305735349655151
1663861875211664000,0.397663818359375,9.491202354431152,2.389645576477051,-0.6140651702880859
1663861875221521000,0.40752099609375,9.488809585571289,2.418708562850952,-0.5317179560661316
1663861875231408600,0.41740869140625,9.480880737304688,2.4513769149780273,-0.5234952569007874
1663861875241326800,0.427326904296875,9.472723007202148,2.4722278118133545,-0.570960283279419
1663861875251214600,0.437214599609375,9.475200653076172,2.4555373191833496,-0.6010811924934387
1663861875261071600,0.447071533203125,9.4846830368042,2.4214584827423096,-0.5896764993667603
1663861875270959400,0.45695947265625,9.494112968444824,2.396859884262085,-0.5359829068183899
1663861875280847000,0.46684716796875,9.496623992919922,2.399251699447632,-0.47760528326034546
1663861875290734800,0.47673486328125,9.492199897766113,2.4252641201019287,-0.43198156356811523
1663861875300622600,0.48662255859375,9.48483943939209,2.4611499309539795,-0.38851431012153625
1663861875310510000,0.496510009765625,9.478999137878418,2.490863084793091,-0.3384741544723511
1663861875320397800,0.506397705078125,9.474797248840332,2.5138704776763916,-0.28119146823883057
1663861875330285600,0.51628564453125,9.468450546264648,2.544835329055786,-0.20650772750377655
1663861875340173300,0.52617333984375,9.45492172241211,2.6007912158966064,-0.10354910045862198
1663861875350061000,0.53606103515625,9.431982040405273,2.6847357749938965,0.01735551469027996
1663861875359918000,0.54591796875,9.400949478149414,2.787898302078247,0.14196817576885223
1663861875369805800,0.555805908203125,9.365289688110352,2.899334192276001,0.2357630580663681
1663861875379693600,0.565693603515625,9.330960273742676,3.0030553340911865,0.29193413257598877
1663861875389581300,0.575581298828125,9.305168151855469,3.0802247524261475,0.31057208776474
1663861875399469000,0.585468994140625,9.28516674041748,3.1397111415863037,0.3134995996952057
1663861875409356500,0.5953564453125,9.267801284790039,3.1887378692626953,0.33195891976356506
1663861875419244300,0.605244384765625,9.25737190246582,3.21575665473938,0.3610309660434723
1663861875429132000,0.615132080078125,9.249372482299805,3.2348742485046387,0.393789142370224
1663861875439019800,0.625019775390625,9.236714363098145,3.266826868057251,0.4258238971233368
1663861875448907500,0.634907470703125,9.222217559814453,3.3042643070220947,0.45047736167907715
1663861875458764500,0.6447646484375,9.209883689880371,3.3375205993652344,0.45758166909217834
1663861875468652300,0.65465234375,9.203828811645508,3.3554599285125732,0.44812193512916565
1663861875478540000,0.6645400390625,9.207179069519043,3.34773850440979,0.4369014501571655
1663861875488427800,0.674427734375,9.217573165893555,3.319286346435547,0.43481510877609253
1663861875498315300,0.684315185546875,9.225598335266113,3.2948784828186035,0.4500085115432739
1663861875508203000,0.694203125,9.225024223327637,3.291329860687256,0.4862746596336365
1663861875518060300,0.704060302734375,9.215282440185547,3.3112378120422363,0.5335402488708496
1663861875527948000,0.713947998046875,9.198983192443848,3.348700761795044,0.5790354609489441
1663861875537835500,0.72383544921875,9.1839017868042,3.3827192783355713,0.619320809841156
1663861875547723300,0.73372314453125,9.173809051513672,3.4031732082366943,0.6557631492614746
1663861875557611000,0.743611083984375,9.170793533325195,3.4037885665893555,0.6936534643173218
1663861875567498800,0.753498779296875,9.173859596252441,3.3881325721740723,0.7288643717765808
1663861875577386500,0.763386474609375,9.177153587341309,3.3696236610412598,0.7719247937202454
1663861875587243500,0.773243408203125,9.179364204406738,3.3511407375335693,0.8243177533149719
1663861875597131300,0.78313134765625,9.174633979797363,3.347787857055664,0.8881453275680542
1663861875607019000,0.79301904296875,9.158014297485352,3.373727560043335,0.9587116241455078
1663861875616906800,0.80290673828125,9.134455680847168,3.4160172939300537,1.0309946537017822
1663861875626794500,0.81279443359375,9.11023998260498,3.4578096866607666,1.1033849716186523
1663861875636682000,0.822681884765625,9.090509414672852,3.4884748458862305,1.1677285432815552
1663861875646539300,0.832539306640625,9.07465648651123,3.507920503616333,1.2310532331466675
1663861875656427000,0.842427001953125,9.055538177490234,3.527132749557495,1.3141326904296875
1663861875666314800,0.852314697265625,9.027471542358398,3.557739496231079,1.4204368591308594
1663861875676202200,0.8622021484375,8.98336410522461,3.6115262508392334,1.5577012300491333
1663861875686090000,0.872090087890625,8.919084548950195,3.6916778087615967,1.7296913862228394
1663861875695977700,0.881977783203125,8.838706970214844,3.786846160888672,1.925472378730774
1663861875705865500,0.891865478515625,8.749838829040527,3.870959520339966,2.1509013175964355
1663861875715722500,0.901722412109375,8.651798248291016,3.9165444374084473,2.4448862075805664
1663861875725610200,0.9116103515625,8.541487693786621,3.9035725593566895,2.8240926265716553
1663861875735514000,0.92151416015625,8.42785930633545,3.84659743309021,3.2164032459259033
1663861875745371400,0.931371337890625,8.32341480255127,3.780268430709839,3.5497498512268066
1663861875755228400,0.941228515625,8.229947090148926,3.724968433380127,3.8161449432373047
1663861875765146600,0.951146728515625,8.135283470153809,3.6699512004852295,4.064359188079834
1663861875775034400,0.961034423828125,8.012274742126465,3.602593183517456,4.358344554901123
1663861875784922000,0.970922119140625,7.834146499633789,3.5413978099823,4.717524528503418
1663861875794809900,0.980809814453125,7.597842216491699,3.5111935138702393,5.110254764556885
1663861875804697600,0.990697509765625,7.286272048950195,3.5207862854003906,5.539375305175781
1663861875814585000,1.000585205078125,6.8488054275512695,3.564197540283203,6.046548366546631
1663861875824472800,1.010472900390625,6.265287399291992,3.6170132160186768,6.620708465576172
1663861875834360600,1.020360595703125,5.598023414611816,3.6444263458251953,7.179880142211914
1663861875844217900,1.0302177734375,4.9298810958862305,3.594266653060913,7.677755355834961
1663861875854105300,1.040105224609375,4.294867515563965,3.414951801300049,8.127890586853027
1663861875863993000,1.0499931640625,3.7271671295166016,3.0897104740142822,8.52832317352295
1663861875873880800,1.059880859375,3.259676456451416,2.629108190536499,8.867506980895996
1663861875883768600,1.0697685546875,2.8891799449920654,2.0491795539855957,9.144610404968262
1663861875893625600,1.07962548828125,2.5832417011260986,1.409350872039795,9.354729652404785
1663861875903483000,1.08948291015625,2.303866386413574,0.7701373100280762,9.501025199890137
1663861875913370600,1.09937060546875,2.026529312133789,0.14867790043354034,9.59382438659668
1663861875923258400,1.10925830078125,1.7442615032196045,-0.45823803544044495,9.639396667480469
1663861875933145900,1.119145751953125,1.4683600664138794,-1.051256537437439,9.63893985748291
1663861875943033600,1.12903369140625,1.2343188524246216,-1.6279127597808838,9.591493606567383
1663861875952921300,1.13892138671875,1.075005292892456,-2.171434164047241,9.50261116027832
1663861875962809000,1.14880908203125,0.996454119682312,-2.670231342315674,9.383354187011719
1663861875972696800,1.15869677734375,0.9819098711013794,-3.1281588077545166,9.242341995239258
1663861875982584300,1.168584228515625,0.9982083439826965,-3.543073892593384,9.089587211608887
1663861875992441600,1.178441650390625,1.0149089097976685,-3.910182237625122,8.935929298400879
1663861876002299000,1.188298828125,1.0305144786834717,-4.2233781814575195,8.790421485900879
1663861876012186400,1.198186279296875,1.0471364259719849,-4.480198860168457,8.660353660583496
1663861876022074000,1.20807421875,1.0624635219573975,-4.680885314941406,8.55165958404541
1663861876031961900,1.2179619140625,1.0691306591033936,-4.833437919616699,8.465532302856445
1663861876041849600,1.227849609375,1.073976993560791,-4.939136505126953,8.40368366241455
1663861876051737300,1.2377373046875,1.095615029335022,-5.004298686981201,8.362236976623535
1663861876061625000,1.247625,1.1451952457427979,-5.032387733459473,8.338704109191895
1663861876071482000,1.257482177734375,1.222288727760315,-5.0181474685668945,8.33634090423584
1663861876081400300,1.267400390625,1.3180538415908813,-4.965394020080566,8.353321075439453
1663861876091257600,1.277257568359375,1.4116538763046265,-4.881335735321045,8.38750171661377
1663861876101145300,1.287145263671875,1.4887592792510986,-4.773844242095947,8.435898780822754
1663861876111032800,1.29703271484375,1.5538166761398315,-4.65182638168335,8.492146492004395
1663861876120920600,1.306920654296875,1.613905668258667,-4.519930362701416,8.55195426940918
1663861876130808300,1.316808349609375,1.6664488315582275,-4.377025127410889,8.615973472595215
1663861876140696000,1.326696044921875,1.6950643062591553,-4.226315498352051,8.685356140136719
1663861876150583800,1.336583740234375,1.681057095527649,-4.073007106781006,8.760995864868164
1663861876160471300,1.34647119140625,1.6244728565216064,-3.9350695610046387,8.834403991699219
1663861876170359000,1.356359130859375,1.5434619188308716,-3.8343515396118164,8.893023490905762
1663861876180246800,1.366246826171875,1.471327781677246,-3.7805421352386475,8.928217887878418
1663861876190134500,1.376134521484375,1.4287145137786865,-3.769587755203247,8.939762115478516
1663861876200022300,1.386022216796875,1.3835177421569824,-3.7901368141174316,8.93818473815918
1663861876209879300,1.39587939453125,1.3031920194625854,-3.835758686065674,8.930790901184082
1663861876219767000,1.40576708984375,1.1424058675765991,-3.907351016998291,8.92176628112793
1663861876229624300,1.415624267578125,0.9046735167503357,-4.002572059631348,8.906815528869629
1663861876239511800,1.42551171875,0.6140466332435608,-4.1135334968566895,8.881000518798828
1663861876249369000,1.435369140625,0.2962852716445923,-4.229101181030273,8.842924118041992
1663861876259256800,1.4452568359375,0.08119819313287735,-4.382751941680908,8.772415161132812
1663861876269175000,1.455175048828125,-0.03341314569115639,-4.579078197479248,8.671869277954102
1663861876279032000,1.465031982421875,-0.009333077818155289,-4.771358966827393,8.567638397216797
1663861876288919800,1.474919921875,0.11244086921215057,-4.939399719238281,8.471132278442383
1663861876298807600,1.4848076171875,0.1820690929889679,-5.010972023010254,8.427774429321289
1663861876308695300,1.4946953125,0.17139416933059692,-5.040773868560791,8.410208702087402
1663861876318583000,1.5045830078125,0.025985056534409523,-5.078080654144287,8.389447212219238
1663861876328470800,1.514470703125,-0.11232832819223404,-5.141330242156982,8.350120544433594
1663861876338358300,1.524358154296875,-0.1420949399471283,-5.219104290008545,8.301275253295898
1663861876348246000,1.53424609375,-0.14397011697292328,-5.297957897186279,8.251138687133789
1663861876358133800,1.5441337890625,-0.14341016113758087,-5.379027843475342,8.198529243469238
1663861876368021500,1.554021484375,-0.1427120566368103,-5.476958274841309,8.133445739746094
1663861876377909200,1.5639091796875,-0.15520250797271729,-5.6052398681640625,8.045345306396484
1663861876387796700,1.573796630859375,-0.1704196333885193,-5.759584426879883,7.935271739959717
1663861876397654000,1.583654052734375,-0.1923622339963913,-5.90244722366333,7.829081058502197
1663861876407511300,1.59351123046875,-0.2550877332687378,-6.003208637237549,7.750277519226074
1663861876417398800,1.603398681640625,-0.367354154586792,-6.105787754058838,7.665167331695557
1663861876427286500,1.61328662109375,-0.47761306166648865,-6.267910480499268,7.526989936828613
1663861876437174300,1.62317431640625,-0.5147784948348999,-6.4879231452941895,7.335683822631836
1663861876447062000,1.63306201171875,-0.49242544174194336,-6.7440080642700195,7.102553367614746
1663861876456949800,1.64294970703125,-0.4517487585544586,-6.995176792144775,6.858119010925293
1663861876466837200,1.652837158203125,-0.4542953372001648,-7.213216304779053,6.628235340118408
1663861876476725000,1.66272509765625,-0.5317203998565674,-7.372314929962158,6.444891929626465
1663861876486612700,1.67261279296875,-0.657855212688446,-7.484732627868652,6.30209493637085
1663861876496500500,1.68250048828125,-0.7683278918266296,-7.578650951385498,6.176090240478516
1663861876506388200,1.69238818359375,-0.8124396800994873,-7.6797380447387695,6.044166564941406
1663861876516276000,1.70227587890625,-0.8258370161056519,-7.789211750030518,5.900555610656738
1663861876526163500,1.71216357421875,-0.8261959552764893,-7.8917236328125,5.762681484222412
1663861876536051200,1.72205126953125,-0.8043666481971741,-8.004732131958008,5.607821464538574
1663861876545908500,1.731908447265625,-0.74314284324646,-8.15224552154541,5.399909496307373
1663861876555796200,1.741796142578125,-0.7045035362243652,-8.306293487548828,5.165225982666016
1663861876565683700,1.75168359375,-0.6970077157020569,-8.411502838134766,4.9931135177612305
1663861876575571500,1.761571533203125,-0.6868282556533813,-8.445507049560547,4.936807632446289
1663861876585459200,1.771459228515625,-0.6803712248802185,-8.443438529968262,4.941236972808838
1663861876595347000,1.781346923828125,-0.6743002533912659,-8.433341979980469,4.959280490875244
1663861876605234700,1.791234619140625,-0.6539976596832275,-8.420964241027832,4.982975006103516
1663861876615091700,1.801091796875,-0.6299823522567749,-8.40579891204834,5.011590957641602
1663861876624979500,1.8109794921875,-0.6201812028884888,-8.385412216186523,5.046842575073242
1663861876634867200,1.8208671875,-0.6402649879455566,-8.362915992736816,5.081542015075684
1663861876644755000,1.8307548828125,-0.668327271938324,-8.353755950927734,5.092982292175293
1663861876654642400,1.840642333984375,-0.6753231287002563,-8.362663269042969,5.077419281005859
1663861876664530200,1.8505302734375,-0.6668744683265686,-8.391324996948242,5.031036853790283
1663861876674418000,1.86041796875,-0.6667587161064148,-8.432913780212402,4.961028099060059
1663861876684275200,1.870275146484375,-0.6753858923912048,-8.484126091003418,4.871740341186523
1663861876694162700,1.88016259765625,-0.6843752861022949,-8.540848731994629,4.770315170288086
1663861876704050400,1.890050537109375,-0.7086332440376282,-8.602164268493652,4.655212879180908
1663861876713938200,1.899938232421875,-0.7527818083763123,-8.672004699707031,4.516642093658447
1663861876723826000,1.909825927734375,-0.8025689125061035,-8.750306129455566,4.3541259765625
1663861876733713700,1.919713623046875,-0.854597806930542,-8.835573196411133,4.168056488037109
1663861876743570700,1.92957080078125,-0.8756973743438721,-8.924129486083984,3.970323324203491
1663861876753458400,1.93945849609375,-0.8438056111335754,-9.016390800476074,3.763385772705078
1663861876763346200,1.94934619140625,-0.7740622162818909,-9.113243103027344,3.5383639335632324
1663861876773234000,1.95923388671875,-0.6825238466262817,-9.212647438049316,3.2911524772644043
1663861876783121700,1.96912158203125,-0.5740042328834534,-9.311854362487793,3.0216329097747803
1663861876793009200,1.979009033203125,-0.43898680806159973,-9.399676322937012,2.7611148357391357
1663861876802866400,1.988866455078125,-0.2997843027114868,-9.46703052520752,2.540837049484253
1663861876812754200,1.998754150390625,-0.16973455250263214,-9.519023895263672,2.351541757583618
1663861876822642000,2.008641845703125,-0.05510301887989044,-9.562216758728027,2.175168752670288
1663861876832529400,2.018529296875,0.0500357411801815,-9.600797653198242,1.99813973903656
1663861876842417200,2.028417236328125,0.14405514299869537,-9.634468078613281,1.8239134550094604
1663861876852305000,2.038304931640625,0.21728187799453735,-9.662238121032715,1.6626313924789429
1663861876862192600,2.048192626953125,0.2345045804977417,-9.682311058044434,1.538916826248169
1663861876872049700,2.058049560546875,0.1947641372680664,-9.695228576660156,1.4611600637435913
1663861876881937400,2.0679375,0.1465740203857422,-9.705050468444824,1.4003201723098755
1663861876891794700,2.077794677734375,0.13608752191066742,-9.714696884155273,1.3328657150268555
1663861876901682400,2.087682373046875,0.16914908587932587,-9.72396183013916,1.2594983577728271
1663861876911570000,2.09756982421875,0.23348209261894226,-9.733037948608398,1.1763718128204346
1663861876921457700,2.107457763671875,0.2923937439918518,-9.74139404296875,1.090935230255127
1663861876931345400,2.117345458984375,0.31982171535491943,-9.747554779052734,1.026287317276001
1663861876941233200,2.127233154296875,0.31444185972213745,-9.752008438110352,0.9848028421401978
1663861876951090200,2.137090087890625,0.29097726941108704,-9.756093978881836,0.950976550579071
1663861876960978000,2.14697802734375,0.25438159704208374,-9.759969711303711,0.9212333559989929
1663861876970835200,2.156835205078125,0.19788020849227905,-9.762914657592773,0.903740406036377
1663861876980753400,2.16675341796875,0.13509050011634827,-9.765191078186035,0.8906083703041077
1663861876990610400,2.1766103515625,0.09351924061775208,-9.769076347351074,0.8525214791297913
1663861877000498200,2.186498291015625,0.09157908707857132,-9.77449893951416,0.7881460189819336
1663861877010386000,2.196385986328125,0.1066724956035614,-9.779671669006348,0.7190403938293457
1663861877020243200,2.2062431640625,0.12923966348171234,-9.784460067749023,0.646554708480835
1663861877030161400,2.216161376953125,0.12605248391628265,-9.789170265197754,0.5715299248695374
1663861877040049200,2.226049072265625,0.08414025604724884,-9.793050765991211,0.5093798041343689
1663861877049936600,2.2359365234375,0.01191639807075262,-9.795305252075195,0.47141024470329285
1663861877059824400,2.245824462890625,-0.07324086874723434,-9.796408653259277,0.44203388690948486
1663861877069681700,2.255681640625,-0.12439048290252686,-9.798823356628418,0.37144097685813904
1663861877079569400,2.2655693359375,-0.09694898128509521,-9.804009437561035,0.20588238537311554
1663861877089457000,2.275456787109375,-0.015882788226008415,-9.806437492370605,-0.06259094923734665
1663861877099344600,2.2853447265625,0.08601201325654984,-9.797521591186523,-0.4141949415206909
1663861877109232400,2.295232421875,0.16501033306121826,-9.77157211303711,-0.8121152520179749
1663861877119120100,2.3051201171875,0.19896595180034637,-9.729055404663086,-1.2150287628173828
1663861877129007900,2.3150078125,0.21633772552013397,-9.677478790283203,-1.5716196298599243
1663861877138895400,2.324895263671875,0.2473749816417694,-9.62932014465332,-1.8399405479431152
1663861877148783000,2.334783203125,0.2958013415336609,-9.591316223144531,-2.022256374359131
1663861877158670800,2.3446708984375,0.3359750807285309,-9.564867973327637,-2.137943983078003
1663861877168558600,2.35455859375,0.37328433990478516,-9.547677040100098,-2.2074623107910156
1663861877178446300,2.3644462890625,0.4252791702747345,-9.539508819580078,-2.233227014541626
1663861877188333800,2.374333740234375,0.4959048628807068,-9.540640830993652,-2.2137372493743896
1663861877198191000,2.384191162109375,0.5479044914245605,-9.546544075012207,-2.1757028102874756
1663861877208078800,2.394078857421875,0.5520445108413696,-9.5545015335083,-2.1394288539886475
1663861877217936000,2.403935791015625,0.5050736665725708,-9.56457233428955,-2.1057610511779785
1663861877227823600,2.41382373046875,0.406432181596756,-9.577247619628906,-2.069188117980957
1663861877237711400,2.42371142578125,0.2670195400714874,-9.592215538024902,-2.022005796432495
1663861877247568600,2.433568603515625,0.10888832807540894,-9.60640811920166,-1.968615174293518
1663861877257456400,2.443456298828125,-0.05531878396868706,-9.618136405944824,-1.9127905368804932
1663861877267344000,2.45334375,-0.12344973534345627,-9.625789642333984,-1.870644450187683
1663861877277231600,2.463231689453125,-0.08747134357690811,-9.633063316345215,-1.8348942995071411
1663861877287119400,2.473119384765625,-0.0625564232468605,-9.643898963928223,-1.7781102657318115
1663861877296976600,2.4829765625,-0.04544452205300331,-9.649938583374023,-1.7455695867538452
1663861877306894800,2.492894775390625,-0.03775150701403618,-9.643682479858398,-1.7799875736236572
1663861877316782300,2.5027822265625,-0.08666707575321198,-9.62811279296875,-1.8607288599014282
1663861877326670000,2.512670166015625,-0.1640542596578598,-9.609619140625,-1.9490201473236084
1663861877336527400,2.52252734375,-0.232468381524086,-9.592193603515625,-2.0263707637786865
1663861877346384400,2.53238427734375,-0.29816877841949463,-9.575196266174316,-2.0969271659851074
1663861877356272000,2.542272216796875,-0.3718787133693695,-9.558526992797852,-2.1602439880371094
1663861877366190300,2.5521904296875,-0.46618184447288513,-9.540688514709473,-2.2199819087982178
1663861877376078000,2.562078125,-0.5524610280990601,-9.529464721679688,-2.2482123374938965
1663861877385965800,2.5719658203125,-0.7926904559135437,-9.510114669799805,-2.2582614421844482
1663861877395822800,2.58182275390625,-0.9952545166015625,-9.486995697021484,-2.275251626968384
1663861877405680000,2.59168017578125,-1.1787457466125488,-9.453048706054688,-2.32826566696167
1663861877415598300,2.601598388671875,-1.386051893234253,-9.407210350036621,-2.3986761569976807
1663861877425455600,2.61145556640625,-1.565321922302246,-9.354398727416992,-2.4930665493011475
1663861877435373800,2.621373779296875,-1.6859763860702515,-9.296523094177246,-2.627262592315674
1663861877445261300,2.63126123046875,-1.7124212980270386,-9.251032829284668,-2.7670202255249023
1663861877455149000,2.641149169921875,-1.6273987293243408,-9.226936340332031,-2.8957924842834473
1663861877465036800,2.651036865234375,-1.5236479043960571,-9.216856002807617,-2.983024835586548
1663861877474924500,2.660924560546875,-1.531383991241455,-9.20495319366455,-3.015641927719116
1663861877484781800,2.67078173828125,-1.5495436191558838,-9.193803787231445,-3.0402770042419434
1663861877494669300,2.68066943359375,-1.5529862642288208,-9.18701171875,-3.058992385864258
1663861877504526600,2.690526611328125,-1.5642036199569702,-9.183290481567383,-3.064446210861206
1663861877514414300,2.700414306640625,-1.5821269750595093,-9.184062004089355,-3.052910566329956
1663861877524302000,2.710302001953125,-1.5893456935882568,-9.193137168884277,-3.021686315536499
1663861877534189600,2.720189453125,-1.584404706954956,-9.209800720214844,-2.9731504917144775
1663861877544077300,2.730077392578125,-1.5795010328292847,-9.230385780334473,-2.91127872467041
1663861877553965000,2.739965087890625,-1.5783456563949585,-9.25417709350586,-2.8353850841522217
1663861877563822300,2.749822265625,-1.581731915473938,-9.281197547912598,-2.7437005043029785
1663861877573740500,2.759740478515625,-1.5998555421829224,-9.309149742126465,-2.6363956928253174
1663861877583628000,2.7696279296875,-1.6380566358566284,-9.333771705627441,-2.5234622955322266
1663861877593515800,2.779515869140625,-1.6926758289337158,-9.353890419006348,-2.410391330718994
1663861877603403500,2.789403564453125,-1.7606208324432373,-9.369342803955078,-2.299133777618408
1663861877613291300,2.799291259765625,-1.8350595235824585,-9.37895393371582,-2.1995837688446045
1663861877623179000,2.809178955078125,-1.9159547090530396,-9.378149032592773,-2.1330325603485107
1663861877633066500,2.81906640625,-2.014374017715454,-9.359216690063477,-2.1255016326904297
1663861877642923800,2.828923828125,-2.117145299911499,-9.327142715454102,-2.1662135124206543
1663861877652811500,2.8388115234375,-2.1915252208709717,-9.29767894744873,-2.2182822227478027
1663861877662699300,2.84869921875,-2.2101850509643555,-9.287200927734375,-2.2435197830200195
1663861877672586800,2.858586669921875,-2.1723599433898926,-9.300868034362793,-2.223754405975342
1663861877682474500,2.868474609375,-2.097522020339966,-9.33082389831543,-2.1694483757019043
1663861877692346600,2.8783466796875,-2.001677989959717,-9.365927696228027,-2.1078593730926514
1663861877702234400,2.888234375,-1.8920485973358154,-9.399941444396973,-2.057093858718872
1663861877712091600,2.898091552734375,-1.7786865234375,-9.430497169494629,-2.018014430999756
1663861877721979100,2.907979248046875,-1.6775234937667847,-9.455965042114258,-1.9852049350738525
1663861877731867000,2.917866943359375,-1.5881383419036865,-9.476391792297363,-1.961175560951233
1663861877741754600,2.927754638671875,-1.5111749172210693,-9.492091178894043,-1.9460078477859497
1663861877751612000,2.93761181640625,-1.454811930656433,-9.50298023223877,-1.9357881546020508
1663861877761499400,2.94749951171875,-1.4230635166168213,-9.508894920349121,-1.930333137512207
1663861877771356700,2.957356689453125,-1.4145233631134033,-9.50947093963623,-1.933771014213562
1663861877781214000,2.9672138671875,-1.4283899068832397,-9.504185676574707,-1.9494962692260742
1663861877791101400,2.977101318359375,-1.469054937362671,-9.493279457092285,-1.9722847938537598
1663861877800989200,2.9869892578125,-1.5304092168807983,-9.479000091552734,-1.9941892623901367
1663861877810877000,2.996876953125,-1.5991413593292236,-9.463556289672852,-2.0135140419006348
1663861877820764700,3.0067646484375,-1.659496545791626,-9.449252128601074,-2.031771659851074
1663861877830652400,3.01665234375,-1.69882071018219,-9.4382963180542,-2.0501108169555664
1663861877840540200,3.0265400390625,-1.7186936140060425,-9.430407524108887,-2.0697567462921143
1663861877850427600,3.036427734375,-1.729146957397461,-9.422834396362305,-2.095381736755371
1663861877860285000,3.046284912109375,-1.7430408000946045,-9.413201332092285,-2.1269283294677734
1663861877870203100,3.056203125,-1.7723069190979004,-9.4012451171875,-2.1554346084594727
1663861877880091000,3.0660908203125,-1.8209422826766968,-9.38839340209961,-2.170856237411499
1663861877889978600,3.075978515625,-1.8760020732879639,-9.37710189819336,-2.1727805137634277
1663861877899866000,3.0858662109375,-1.921607255935669,-9.36748218536377,-2.17441987991333
1663861877909753900,3.09575390625,-1.9548271894454956,-9.355744361877441,-2.195244073867798
1663861877919611100,3.105611083984375,-1.9876654148101807,-9.338944435119629,-2.236891508102417
1663861877929499000,3.115498779296875,-2.0411925315856934,-9.314966201782227,-2.2880806922912598
1663861877939386400,3.125386474609375,-2.126582622528076,-9.281400680541992,-2.34598445892334
1663861877949274000,3.135274169921875,-2.2454214096069336,-9.236063957214355,-2.4132096767425537
1663861877959161900,3.145161865234375,-2.3953781127929688,-9.17789363861084,-2.489741325378418
1663861877969019100,3.15501904296875,-2.5721194744110107,-9.10672664642334,-2.573347806930542
1663861877978906600,3.16490673828125,-2.7678847312927246,-9.023602485656738,-2.6615395545959473
1663861877988794400,3.17479443359375,-2.9725756645202637,-8.932258605957031,-2.747530937194824
1663861877998682000,3.18468212890625,-3.1778085231781006,-8.83746337890625,-2.8233232498168945
1663861878008539400,3.194539306640625,-3.371433734893799,-8.746265411376953,-2.882128953933716
1663861878018427000,3.204427001953125,-3.5477869510650635,-8.661837577819824,-2.9250895977020264
1663861878028314600,3.214314697265625,-3.7152881622314453,-8.581696510314941,-2.953221082687378
1663861878038202400,3.224202392578125,-3.8861916065216064,-8.500980377197266,-2.966689109802246
1663861878048090000,3.234090087890625,-4.066978454589844,-8.41672420501709,-2.9645938873291016
1663861878057977900,3.243977783203125,-4.2547688484191895,-8.32818603515625,-2.9510395526885986
1663861878067835000,3.2538349609375,-4.444222450256348,-8.233007431030273,-2.9388530254364014
1663861878077722600,3.26372265625,-4.628095626831055,-8.129072189331055,-2.9443702697753906
1663861878087610400,3.2736103515625,-4.800046920776367,-8.01839828491211,-2.9724111557006836
1663861878097498000,3.283498046875,-4.960444927215576,-7.904247283935547,-3.0145061016082764
1663861878107385900,3.2933857421875,-5.1216349601745605,-7.783996105194092,-3.057553768157959
1663861878117243000,3.303242919921875,-5.298633575439453,-7.650105953216553,-3.0936625003814697
1663861878127130600,3.313130615234375,-5.498171329498291,-7.496951103210449,-3.1202917098999023
1663861878137018400,3.323018310546875,-5.7102580070495605,-7.32421350479126,-3.1494810581207275
1663861878146906000,3.332906005859375,-5.925206661224365,-7.131882667541504,-3.193518877029419
1663861878156793600,3.342793701171875,-6.14141321182251,-6.9184651374816895,-3.2539637088775635
1663861878166651000,3.35265087890625,-6.353231430053711,-6.684609889984131,-3.3350892066955566
1663861878176538600,3.36253857421875,-6.5576348304748535,-6.433508396148682,-3.431877851486206
1663861878186426400,3.37242626953125,-6.754388809204102,-6.171289920806885,-3.5304110050201416
1663861878196313900,3.38231396484375,-6.948154926300049,-5.902303218841553,-3.6133577823638916
1663861878206201600,3.39220166015625,-7.131830215454102,-5.635023593902588,-3.6815602779388428
1663861878225977000,3.41197705078125,-7.455484867095947,-5.0752716064453125,-3.8506813049316406
1663861878235864800,3.42186474609375,-7.605666637420654,-4.773157119750977,-3.942232370376587
1663861878245721900,3.431721923828125,-7.747455596923828,-4.459442615509033,-4.032455921173096
1663861878255640000,3.44164013671875,-7.878114223480225,-4.138688087463379,-4.120311737060547
1663861878265497300,3.451497314453125,-8.002394676208496,-3.8108737468719482,-4.196345806121826
1663861878275385000,3.461385009765625,-8.130258560180664,-3.471935749053955,-4.244401454925537
1663861878285272600,3.4712724609375,-8.254188537597656,-3.1299707889556885,-4.271071434020996
1663861878295160300,3.481160400390625,-8.362191200256348,-2.7935287952423096,-4.294221878051758
1663861878305048000,3.491048095703125,-8.45042896270752,-2.4650096893310547,-4.322541236877441
1663861878314905300,3.5009052734375,-8.536238670349121,-2.1271474361419678,-4.333390235900879
1663861878324823600,3.510823486328125,-8.623669624328613,-1.7787238359451294,-4.31727409362793
1663861878334711300,3.520711181640625,-8.682440757751465,-1.4557595252990723,-4.320461750030518
1663861878344598800,3.530598876953125,-8.729118347167969,-1.1506427526474,-4.318439483642578
1663861878354486500,3.540486572265625,-8.776061058044434,-0.8429765105247498,-4.294242858886719
1663861878364343800,3.55034375,-8.816551208496094,-0.5352373719215393,-4.260556221008301
1663861878374200800,3.560200927734375,-8.847517013549805,-0.22768159210681915,-4.2237396240234375
1663861878384119000,3.570119140625,-8.870022773742676,0.08449163287878036,-4.181619167327881
1663861878393976300,3.579976318359375,-8.883670806884766,0.3896704614162445,-4.135087490081787
1663861878403894500,3.58989453125,-8.88534927368164,0.6853891015052795,-4.092823505401611
1663861878413782300,3.5997822265625,-8.876631736755371,0.9697865843772888,-4.054049015045166
1663861878423670000,3.609669921875,-8.859827995300293,1.245268702507019,-4.0153608322143555
1663861878433557500,3.6195576171875,-8.834491729736328,1.5151257514953613,-3.978259325027466
1663861878443445200,3.6294453125,-8.802698135375977,1.775479793548584,-3.9408817291259766
1663861878453333000,3.6393330078125,-8.765618324279785,2.0234007835388184,-3.903864622116089
1663861878463220700,3.649220703125,-8.727619171142578,2.259646415710449,-3.859152317047119
1663861878473108500,3.6591083984375,-8.69124698638916,2.479991912841797,-3.805556297302246
1663861878482965500,3.668965576171875,-8.654830932617188,2.684804916381836,-3.74914813041687
1663861878492853200,3.678853271484375,-8.616943359375,2.8754851818084717,-3.694627285003662
1663861878502741000,3.688740966796875,-8.577878952026367,3.0483827590942383,-3.6466050148010254
1663861878512628700,3.698628662109375,-8.539064407348633,3.205291509628296,-3.602898597717285
1663861878522485800,3.70848583984375,-8.501473426818848,3.34409236907959,-3.5654408931732178
1663861878532373500,3.71837353515625,-8.466695785522461,3.464830160140991,-3.5327610969543457
1663861878542261200,3.72826123046875,-8.435330390930176,3.5705368518829346,-3.502406597137451
1663861878552149000,3.73814892578125,-8.407837867736816,3.6594130992889404,-3.476686716079712
1663861878562036700,3.74803662109375,-8.385354042053223,3.7297074794769287,-3.456226348876953
1663861878571924200,3.75792431640625,-8.367454528808594,3.784843683242798,-3.4396276473999023
1663861878581781500,3.767781494140625,-8.355541229248047,3.8232150077819824,-3.4261252880096436
1663861878591669200,3.777669189453125,-8.349544525146484,3.842975378036499,-3.4186301231384277
1663861878601557000,3.787556884765625,-8.34958553314209,3.8450326919555664,-3.416215181350708
1663861878611444500,3.797444580078125,-8.3564453125,3.8284032344818115,-3.4181182384490967
1663861878621301800,3.8073017578125,-8.368361473083496,3.7941949367523193,-3.4270966053009033
1663861878631189500,3.817189453125,-8.38536548614502,3.7414207458496094,-3.4435155391693115
1663861878641077200,3.8270771484375,-8.40648078918457,3.6709861755371094,-3.467756986618042
1663861878650934300,3.836934326171875,-8.430063247680664,3.5858311653137207,-3.499459981918335
1663861878660852500,3.8468525390625,-8.456729888916016,3.484854221343994,-3.536933422088623
1663861878670709800,3.856709716796875,-8.485422134399414,3.3686399459838867,-3.5805397033691406
1663861878680566800,3.86656689453125,-8.515673637390137,3.237788200378418,-3.62910795211792
1663861878690454500,3.87645458984375,-8.548574447631836,3.091761589050293,-3.6787593364715576
1663861878700372700,3.886372802734375,-8.582941055297852,2.929982900619507,-3.7307777404785156
1663861878710230000,3.89622998046875,-8.61803913116455,2.7535271644592285,-3.7838973999023438
1663861878720117800,3.90611767578125,-8.65290355682373,2.5605716705322266,-3.839416027069092
1663861878730005200,3.916005126953125,-8.686736106872559,2.352804183959961,-3.895550489425659
1663861878739893000,3.92589306640625,-8.719564437866211,2.130307197570801,-3.949857473373413
1663861878749750300,3.935750244140625,-8.7498779296875,1.895219087600708,-4.002270698547363
1663861878759668500,3.94566845703125,-8.777915000915527,1.6464468240737915,-4.050654888153076
1663861878769556200,3.95555615234375,-8.803409576416016,1.3859446048736572,-4.092618942260742
1663861878779444000,3.96544384765625,-8.825005531311035,1.1146074533462524,-4.128840446472168
1663861878789331500,3.97533154296875,-8.843186378479004,0.8334241509437561,-4.156182765960693
1663861878799219200,3.98521923828125,-8.856541633605957,0.5424769520759583,-4.175857067108154
1663861878809107000,3.99510693359375,-8.864995002746582,0.24331694841384888,-4.186053276062012
1663861878818964200,4.004964111328125,-8.868948936462402,-0.06190026178956032,-4.184290885925293
1663861878828821200,4.0148212890625,-8.866254806518555,-0.37256860733032227,-4.1738600730896
1663861878838739500,4.024739501953125,-8.855297088623047,-0.6894955635070801,-4.156764507293701
1663861878848627200,4.034627197265625,-8.836194038391113,-1.0096428394317627,-4.1319098472595215
1663861878858515000,4.044514892578125,-8.806971549987793,-1.334364891052246,-4.102085113525391
1663861878868372000,4.0543720703125,-8.765501022338867,-1.6610089540481567,-4.071537971496582
1663861878878259700,4.064259765625,-8.71133041381836,-1.9904803037643433,-4.0399370193481445
1663861878888117000,4.074116943359375,-8.645512580871582,-2.3193507194519043,-4.005761623382568
1663861878898035200,4.08403515625,-8.567754745483398,-2.6481330394744873,-3.9687960147857666
1663861878907923000,4.0939228515625,-8.477191925048828,-2.970640182495117,-3.934831142425537
1663861878917810400,4.103810546875,-8.371493339538574,-3.285885810852051,-3.910428285598755
1663861878927698200,4.1136982421875,-8.250876426696777,-3.5962047576904297,-3.8936781883239746
1663861878937586000,4.1235859375,-8.114642143249512,-3.905399799346924,-3.8821144104003906
1663861878947473700,4.1334736328125,-7.962183475494385,-4.214394569396973,-3.874647378921509
1663861878957361400,4.143361328125,-7.795470237731934,-4.5234375,-3.86517071723938
1663861878967218400,4.153218505859375,-7.618740558624268,-4.830893516540527,-3.845471143722534
1663861878977075700,4.16307568359375,-7.43245267868042,-5.135584831237793,-3.815077066421509
1663861878986994000,4.172993896484375,-7.233492374420166,-5.4377923011779785,-3.778543710708618
1663861878996851000,4.182850830078125,-7.024115562438965,-5.730820655822754,-3.7403061389923096
1663861879006738700,4.19273876953125,-6.802476406097412,-6.01600456237793,-3.7019426822662354
1663861879016626400,4.20262646484375,-6.569879531860352,-6.2926249504089355,-3.661958932876587
1663861879026514200,4.21251416015625,-6.3277812004089355,-6.560111999511719,-3.618631601333618
1663861879036402000,4.22240185546875,-6.0780029296875,-6.816851615905762,-3.5719470977783203
1663861879046259000,4.232259033203125,-5.819901943206787,-7.063174247741699,-3.522883176803589
1663861879056146700,4.242146728515625,-5.548746585845947,-7.30343770980835,-3.470100164413452
1663861879066034400,4.252034423828125,-5.265506267547607,-7.537199974060059,-3.4110782146453857
1663861879075922200,4.261922119140625,-4.972158908843994,-7.7623796463012695,-3.3456647396087646
1663861879085810000,4.271809814453125,-4.671060085296631,-7.976664066314697,-3.274815082550049
1663861879095697400,4.281697509765625,-4.362349033355713,-8.179693222045898,-3.1988906860351562
1663861879105585200,4.291585205078125,-4.043638706207275,-8.373786926269531,-3.1143312454223633
1663861879115473000,4.301472900390625,-3.7132577896118164,-8.559516906738281,-3.019400119781494
1663861879125360600,4.311360595703125,-3.3755905628204346,-8.734524726867676,-2.9127070903778076
1663861879135248400,4.321248291015625,-3.0413825511932373,-8.89473819732666,-2.7935678958892822
1663861879145105400,4.33110546875,-2.7221922874450684,-9.036209106445312,-2.665893316268921
1663861879154993200,4.3409931640625,-2.423344373703003,-9.158960342407227,-2.5320403575897217
1663861879164881000,4.350880859375,-2.144758462905884,-9.265273094177246,-2.3927197456359863
1663861879174768600,4.3607685546875,-1.8818854093551636,-9.358405113220215,-2.2470271587371826
1663861879184656100,4.37065625,-1.6296467781066895,-9.440320014953613,-2.0964276790618896
1663861879194543900,4.3805439453125,-1.3837953805923462,-9.511556625366211,-1.9457099437713623
1663861879204431600,4.390431640625,-1.1434786319732666,-9.571562767028809,-1.802228569984436
1663861879214319400,4.4003193359375,-0.9107067584991455,-9.620092391967773,-1.671773076057434
1663861879224176400,4.41017626953125,-0.6887068152427673,-9.656875610351562,-1.5623189210891724
1663861879234064100,4.420064208984375,-0.47889378666877747,-9.682479858398438,-1.4800814390182495
1663861879243951900,4.429951904296875,-0.2875641882419586,-9.697869300842285,-1.4279441833496094
1663861879253839600,4.439839599609375,-0.12621717154979706,-9.70440673828125,-1.4067450761795044
1663861879263727400,4.449727294921875,-0.003819671692326665,-9.704293251037598,-1.413171648979187
1663861879273615000,4.459614990234375,0.07693219184875488,-9.699872970581055,-1.4411565065383911
1663861879283502600,4.469502685546875,0.12125790119171143,-9.69313907623291,-1.4828134775161743
1663861879293390300,4.479390380859375,0.1366836577653885,-9.685869216918945,-1.528277039527893
1663861879303247600,4.48924755859375,0.12982070446014404,-9.679594993591309,-1.5681060552597046
1663861879313104600,4.499104736328125,0.10589785873889923,-9.674729347229004,-1.5996211767196655
1663861879322992400,4.508992431640625,0.07042127847671509,-9.670583724975586,-1.6264184713363647
1663861879332880100,4.518880126953125,0.029505595564842224,-9.666637420654297,-1.6509530544281006
1663861879342767900,4.528767822265625,-0.011197066865861416,-9.663028717041016,-1.6721704006195068
1663861879352655600,4.538655517578125,-0.04822801426053047,-9.660009384155273,-1.688868761062622
1663861879362512600,4.5485126953125,-0.07890670001506805,-9.657953262329102,-1.6994373798370361
1663861879372430800,4.558430908203125,-0.10287434607744217,-9.657132148742676,-1.7028257846832275
1663861879382318600,4.568318603515625,-0.12061901390552521,-9.657610893249512,-1.6989413499832153
1663861879392206300,4.578206298828125,-0.1352710723876953,-9.659028053283691,-1.6897474527359009
1663861879402063400,4.5880634765625,-0.14897635579109192,-9.660853385925293,-1.6781246662139893
1663861879411951000,4.597951171875,-0.1591741442680359,-9.663069725036621,-1.6643750667572021
1663861879421838800,4.6078388671875,-0.16190017759799957,-9.665775299072266,-1.6483229398727417
1663861879431726600,4.6177265625,-0.1581028699874878,-9.668699264526367,-1.6314563751220703
1663861879441583600,4.62758349609375,-0.1520807147026062,-9.671369552612305,-1.6161253452301025
1663861879451471400,4.637471435546875,-0.1460506021976471,-9.673537254333496,-1.6036659479141235
1663861879461359000,4.647359130859375,-0.13959431648254395,-9.675195693969727,-1.5942033529281616
1663861879471246800,4.657246826171875,-0.1321060061454773,-9.676385879516602,-1.587605595588684
1663861879481104000,4.667103759765625,-0.1247735321521759,-9.677090644836426,-1.5839002132415771
1663861879490991600,4.67699169921875,-0.11982078850269318,-9.677372932434082,-1.582556128501892
1663861879500909800,4.686909912109375,-0.11830130219459534,-9.677254676818848,-1.5833967924118042
1663861879510797600,4.696797607421875,-0.11960042268037796,-9.676783561706543,-1.586167812347412
1663861879520654800,4.70665478515625,-0.12360619008541107,-9.676074028015137,-1.5901902914047241
1663861879530512000,4.716511962890625,-0.12988069653511047,-9.675192832946777,-1.5950441360473633
1663861879540430000,4.72643017578125,-0.13868680596351624,-9.674100875854492,-1.6009169816970825
1663861879550287400,4.736287353515625,-0.15055899322032928,-9.672852516174316,-1.6073745489120483
1663861879560205600,4.74620556640625,-0.16619931161403656,-9.671736717224121,-1.612536907196045
1663861879570093300,4.75609326171875,-0.1861119419336319,-9.670903205871582,-1.6153547763824463
1663861879579950300,4.765950439453125,-0.21003872156143188,-9.670365333557129,-1.615645170211792
1663861879589838000,4.775838134765625,-0.23610658943653107,-9.670127868652344,-1.6134612560272217
1663861879599725800,4.785725830078125,-0.26066523790359497,-9.670097351074219,-1.6098663806915283
1663861879609583000,4.7955830078125,-0.2820216417312622,-9.66994571685791,-1.6071730852127075
1663861879619470600,4.805470703125,-0.303121954202652,-9.669276237487793,-1.6073532104492188
1663861879629358300,4.8153583984375,-0.3269749581813812,-9.66767406463623,-1.6123086214065552
1663861879639276500,4.825276611328125,-0.3541029691696167,-9.665152549743652,-1.6216762065887451
1663861879649164300,4.835164306640625,-0.38253775238990784,-9.662090301513672,-1.6334211826324463
1663861879659052000,4.845052001953125,-0.4112771451473236,-9.658747673034668,-1.6461549997329712
1663861879668909000,4.854908935546875,-0.4405350089073181,-9.655184745788574,-1.6594302654266357
1663861879678796800,4.864796875,-0.47022104263305664,-9.651331901550293,-1.673640489578247
1663861879688684500,4.8746845703125,-0.5016010403633118,-9.647019386291504,-1.6893210411071777
1663861879698572300,4.884572265625,-0.5375127196311951,-9.641934394836426,-1.7072062492370605
1663861879708429300,4.89442919921875,-0.5798332095146179,-9.635712623596191,-1.7283570766448975
1663861879718317000,4.904317138671875,-0.6299498677253723,-9.628006935119629,-1.7535762786865234
1663861879728174300,4.91417431640625,-0.68901526927948,-9.618328094482422,-1.7842111587524414
1663861879738092500,4.924092529296875,-0.7579212188720703,-9.605873107910156,-1.8229501247406006
1663861879747980300,4.933980224609375,-0.8365345597267151,-9.590361595153809,-1.8696414232254028
1663861879757868000,4.943867919921875,-0.9272226691246033,-9.571599960327148,-1.9222699403762817
1663861879767755500,4.953755615234375,-1.0304744243621826,-9.549247741699219,-1.979994773864746
1663861879777612800,4.96361279296875,-1.1446479558944702,-9.522984504699707,-2.0427770614624023
1663861879787500500,4.97350048828125,-1.2727446556091309,-9.491888046264648,-2.110582113265991
1663861879797388300,4.98338818359375,-1.418394684791565,-9.454715728759766,-2.183321952819824
1663861879807275800,4.99327587890625,-1.5809340476989746,-9.410185813903809,-2.26261830329895
1663861879817133000,5.003133056640625,-1.7569193840026855,-9.357466697692871,-2.3497753143310547
1663861879827020800,5.013020751953125,-1.9471276998519897,-9.295927047729492,-2.442298412322998
1663861879836908500,5.022908447265625,-2.1516475677490234,-9.226319313049316,-2.532947540283203
1663861879846796000,5.032796142578125,-2.36959171295166,-9.149664878845215,-2.615161895751953
1663861879856683800,5.042683837890625,-2.599574089050293,-9.066272735595703,-2.686134099960327
1663861879866541000,5.052541015625,-2.836681604385376,-8.975284576416016,-2.750977039337158
1663861879876459300,5.062459228515625,-3.0735507011413574,-8.875516891479492,-2.819373846054077
1663861879886347000,5.072346923828125,-3.296849250793457,-8.769929885864258,-2.896463394165039
1663861879896234500,5.082234375,-3.504181146621704,-8.660743713378906,-2.980374813079834
1663861879906122200,5.092122314453125,-3.7061214447021484,-8.547967910766602,-3.06060528755188
1663861879916010000,5.102010009765625,-3.9172141551971436,-8.428129196166992,-3.129291534423828
1663861879925897700,5.111897705078125,-4.14251184463501,-8.296820640563965,-3.1894772052764893
1663861879935785500,5.121785400390625,-4.373636722564697,-8.153237342834473,-3.250601291656494
1663861879945673200,5.131673095703125,-4.594165325164795,-8.003949165344238,-3.316748857498169
1663861879955560700,5.141560791015625,-4.795957565307617,-7.855756759643555,-3.3847084045410156
1663861879965418000,5.15141796875,-4.986293315887451,-7.706099987030029,-3.4530110359191895
1663861879975305700,5.1613056640625,-5.1829633712768555,-7.5427680015563965,-3.5233404636383057
1663861879985193500,5.171193359375,-5.39309024810791,-7.358857154846191,-3.5961341857910156
1663861879995081000,5.1810810546875,-5.60819149017334,-7.156639099121094,-3.6743826866149902
1663861880004938200,5.190938232421875,-5.8133111000061035,-6.942978858947754,-3.7644200325012207
1663861880014826000,5.200825927734375,-6.005505561828613,-6.716940879821777,-3.871303081512451
1663861880024713700,5.210713623046875,-6.1929612159729,-6.476034641265869,-3.984795331954956
1663861880034601200,5.220601318359375,-6.386486530303955,-6.220144748687744,-4.085704803466797
1663861880044489000,5.230489013671875,-6.587689399719238,-5.949110984802246,-4.169030666351318
1663861880054376700,5.240376708984375,-6.7818779945373535,-5.666170120239258,-4.251004695892334
1663861880064264400,5.250264404296875,-6.956104278564453,-5.3749189376831055,-4.34663724899292
1663861880074152200,5.260152099609375,-7.109232425689697,-5.0815749168396,-4.450482368469238
1663861880084039700,5.270039794921875,-7.252025127410889,-4.7910308837890625,-4.541425704956055
1663861880093897000,5.27989697265625,-7.387218952178955,-4.5073089599609375,-4.613409996032715
1663861880103784700,5.28978466796875,-7.512295722961426,-4.233119010925293,-4.67081356048584
1663861880113672400,5.29967236328125,-7.6255340576171875,-3.9652466773986816,-4.7221221923828125
1663861880123560000,5.309559814453125,-7.726367950439453,-3.6916263103485107,-4.77970027923584
1663861880133447700,5.31944775390625,-7.816897392272949,-3.409397602081299,-4.841745853424072
1663861880143305000,5.329304931640625,-7.899714469909668,-3.123607873916626,-4.899792671203613
1663861880153192700,5.339192626953125,-7.9829630851745605,-2.8378043174743652,-4.938577175140381
1663861880163080200,5.349080078125,-8.075484275817871,-2.5524492263793945,-4.943880081176758
1663861880172968000,5.358968017578125,-8.172645568847656,-2.2661807537078857,-4.923685073852539
1663861880182855700,5.368855712890625,-8.26988697052002,-1.9792224168777466,-4.884879112243652
1663861880192743400,5.378743408203125,-8.361478805541992,-1.6853588819503784,-4.838969707489014
1663861880202631200,5.388631103515625,-8.440759658813477,-1.38278329372406,-4.797069072723389
1663861880212519000,5.398518798828125,-8.505743026733398,-1.0817596912384033,-4.759465217590332
1663861880222376000,5.4083759765625,-8.554510116577148,-0.7914100289344788,-4.729104042053223
1663861880232263700,5.418263671875,-8.588569641113281,-0.5103400349617004,-4.705996990203857
1663861880242151400,5.4281513671875,-8.610692024230957,-0.24036113917827606,-4.687066555023193
1663861880252039200,5.4380390625,-8.623269081115723,0.014040966518223286,-4.670055389404297
1663861880261926700,5.4479267578125,-8.629515647888184,0.25862106680870056,-4.651340484619141
1663861880271814400,5.457814453125,-8.635159492492676,0.5012019872665405,-4.620952606201172
1663861880281702100,5.4677021484375,-8.644190788269043,0.7417463660240173,-4.5714521408081055
1663861880291559400,5.477559326171875,-8.655884742736816,0.9807634353637695,-4.503792762756348
1663861880301447000,5.487447021484375,-8.66415023803711,1.212380290031433,-4.430916786193848
1663861880311334700,5.497334716796875,-8.664761543273926,1.4323731660842896,-4.363554000854492
1663861880321192000,5.50719189453125,-8.654864311218262,1.6392557621002197,-4.31005334854126
1663861880331079700,5.51707958984375,-8.637003898620605,1.8290419578552246,-4.269329071044922
1663861880340936700,5.526936767578125,-8.614646911621094,2.0023860931396484,-4.236590385437012
1663861880350824400,5.536824462890625,-8.592873573303223,2.1663994789123535,-4.199954032897949
1663861880360712200,5.546712158203125,-8.572555541992188,2.3231825828552246,-4.157462120056152
1663861880370600000,5.556599853515625,-8.55257511138916,2.4713940620422363,-4.112913131713867
1663861880380457000,5.56645703125,-8.531914710998535,2.6098110675811768,-4.070098876953125
1663861880390344700,5.5763447265625,-8.509363174438477,2.7364919185638428,-4.033947467803955
1663861880400263000,5.586262939453125,-8.484638214111328,2.848808765411377,-4.008190631866455
1663861880410150700,5.596150634765625,-8.460952758789062,2.9427921772003174,-3.9903178215026855
1663861880420038400,5.606038330078125,-8.441147804260254,3.019721508026123,-3.9747567176818848
1663861880429895400,5.6158955078125,-8.425140380859375,3.0816304683685303,-3.96117901802063
1663861880439783200,5.625783203125,-8.414056777954102,3.1294381618499756,-3.947232961654663
1663861880449640400,5.635640380859375,-8.409224510192871,3.161641836166382,-3.9318361282348633
1663861880459558700,5.64555859375,-8.410263061523438,3.1766719818115234,-3.917476177215576
1663861880469446400,5.6554462890625,-8.414984703063965,3.175520420074463,-3.908257484436035
1663861880479303400,5.665303466796875,-8.4220609664917,3.158825397491455,-3.9065449237823486
1663861880489191200,5.675191162109375,-8.431829452514648,3.125180721282959,-3.912529945373535
1663861880499079000,5.685078857421875,-8.444527626037598,3.074820041656494,-3.925025463104248
1663861880508936000,5.69493603515625,-8.460164070129395,3.0081706047058105,-3.9429571628570557
1663861880518854100,5.704854248046875,-8.47940731048584,2.9247539043426514,-3.964323043823242
1663861880528742000,5.714741943359375,-8.500502586364746,2.8271384239196777,-3.989877223968506
1663861880538599200,5.72459912109375,-8.523689270019531,2.7145729064941406,-4.018481731414795
1663861880548487000,5.73448681640625,-8.548054695129395,2.5862929821014404,-4.051202774047852
1663861880558344000,5.744343994140625,-8.572023391723633,2.4442362785339355,-4.088583946228027
1663861880568231700,5.754231689453125,-8.595625877380371,2.286835193634033,-4.129888534545898
1663861880578119400,5.764119384765625,-8.61758041381836,2.115025281906128,-4.175447940826416
1663861880588007200,5.774007080078125,-8.637551307678223,1.9300116300582886,-4.223524570465088
1663861880597925400,5.78392529296875,-8.655784606933594,1.7306740283966064,-4.2723002433776855
1663861880607812900,5.793812744140625,-8.671204566955566,1.519145131111145,-4.321202278137207
1663861880617670100,5.803670166015625,-8.684019088745117,1.2972126007080078,-4.3675432205200195
1663861880627558000,5.813557861328125,-8.6949462890625,1.0641511678695679,-4.408613204956055
1663861880637445600,5.823445556640625,-8.702972412109375,0.8210892081260681,-4.4446001052856445
1663861880647333400,5.83333349609375,-8.706809043884277,0.5696274638175964,-4.47631311416626
1663861880657220900,5.843220947265625,-8.705870628356934,0.31056058406829834,-4.5035271644592285
1663861880667108600,5.853108642578125,-8.70022201538086,0.04323824867606163,-4.524892330169678
1663861880676996400,5.862996337890625,-8.689695358276367,-0.23201772570610046,-4.539356708526611
1663861880686884000,5.872884033203125,-8.673965454101562,-0.5130141973495483,-4.546375751495361
1663861880696771800,5.882771728515625,-8.65285587310791,-0.7984808087348938,-4.5454254150390625
1663861880706659300,5.892659423828125,-8.625773429870605,-1.0877047777175903,-4.5368852615356445
1663861880716547000,5.902547119140625,-8.592214584350586,-1.3813328742980957,-4.520636081695557
1663861880726434800,5.912434814453125,-8.551839828491211,-1.680483102798462,-4.49582052230835
1663861880736292000,5.9222919921875,-8.505088806152344,-1.9825319051742554,-4.461324214935303
1663861880746149000,5.932149169921875,-8.451512336730957,-2.2852182388305664,-4.41815710067749
1663861880756036900,5.942036865234375,-8.390524864196777,-2.5881385803222656,-4.367038249969482
1663861880765924600,5.951924560546875,-8.321206092834473,-2.8893744945526123,-4.310386657714844
1663861880775812400,5.961812255859375,-8.24338150024414,-3.187647581100464,-4.2492289543151855
1663861880785669400,5.97166943359375,-8.156309127807617,-3.481346368789673,-4.186315536499023
1663861880795557000,5.98155712890625,-8.057600975036621,-3.772015333175659,-4.125210762023926
1663861880805444900,5.99144482421875,-7.94607400894165,-4.058938503265381,-4.068822860717773
1663861880815332600,6.00133251953125,-7.822787284851074,-4.3405351638793945,-4.016734600067139
1663861880825220000,6.01122021484375,-7.689998149871826,-4.616732597351074,-3.964858293533325
1663861880835107800,6.02110791015625,-7.54884672164917,-4.888341426849365,-3.9101674556732178
1663861880844995600,6.03099560546875,-7.398747444152832,-5.1572370529174805,-3.8512117862701416
1663861880854883300,6.04088330078125,-7.23726224899292,-5.426786422729492,-3.7871367931365967
1663861880864771000,6.05077099609375,-7.060687065124512,-5.69779634475708,-3.7218549251556396
1663861880874658800,6.060658935546875,-6.868253231048584,-5.968506813049316,-3.657102346420288
1663861880884546300,6.07054638671875,-6.661104202270508,-6.236252307891846,-3.5929412841796875
1663861880894434000,6.08043408203125,-6.442166805267334,-6.496532440185547,-3.5304315090179443
1663861880904321800,6.09032177734375,-6.215273380279541,-6.7442522048950195,-3.472151279449463
1663861880914179000,6.100178955078125,-5.982808589935303,-6.978054046630859,-3.4180634021759033
1663861880924066600,6.110066650390625,-5.742955207824707,-7.201509952545166,-3.365574598312378
1663861880933954300,6.119954345703125,-5.497433185577393,-7.41392707824707,-3.3139538764953613
1663861880943842000,6.129842041015625,-5.247684955596924,-7.615093231201172,-3.2622907161712646
1663861880953729800,6.139729736328125,-4.993354320526123,-7.806297779083252,-3.2091307640075684
1663861880963617500,6.149617431640625,-4.732466697692871,-7.989274978637695,-3.153669595718384
1663861880973505000,6.159505126953125,-4.4612603187561035,-8.166973114013672,-3.0932326316833496
1663861880983362300,6.1693623046875,-4.178484916687012,-8.341669082641602,-3.021125555038452
1663861880993219600,6.179219482421875,-3.8833823204040527,-8.513922691345215,-2.9330646991729736
1663861881003107000,6.189107177734375,-3.5783579349517822,-8.68112564086914,-2.8291006088256836
1663861881012964400,6.19896435546875,-3.270637273788452,-8.836817741394043,-2.7173454761505127
1663861881022882600,6.208882568359375,-2.966186046600342,-8.976041793823242,-2.608214855194092
1663861881032770300,6.218770263671875,-2.6768641471862793,-9.094658851623535,-2.5083773136138916
1663861881042658000,6.228657958984375,-2.4074018001556396,-9.19448184967041,-2.415844440460205
1663861881052545500,6.238545654296875,-2.1594252586364746,-9.278154373168945,-2.3287575244903564
1663861881062433300,6.248433349609375,-1.9308116436004639,-9.349031448364258,-2.2445406913757324
1663861881072321000,6.258321044921875,-1.7186552286148071,-9.409814834594727,-2.16147780418396
1663861881082208800,6.268208740234375,-1.5228679180145264,-9.461812973022461,-2.0797483921051025
1663861881092096500,6.278096435546875,-1.345268964767456,-9.50558853149414,-2.0011045932769775
1663861881101984000,6.28798388671875,-1.1874393224716187,-9.541764259338379,-1.9274635314941406
1663861881111871700,6.297871826171875,-1.0487662553787231,-9.57047176361084,-1.864551067352295
1663861881121729000,6.30772900390625,-0.9263805150985718,-9.591958999633789,-1.8183882236480713
1663861881131616800,6.31761669921875,-0.8192287683486938,-9.607030868530273,-1.7900298833847046
1663861881141504500,6.32750439453125,-0.72934490442276,-9.616755485534668,-1.7766456604003906
1663861881151392000,6.33739208984375,-0.6588113903999329,-9.622478485107422,-1.7732107639312744
1663861881161279700,6.34727978515625,-0.607897162437439,-9.62523365020752,-1.776432991027832
1663861881171167500,6.35716748046875,-0.5759981274604797,-9.625680923461914,-1.7846208810806274
1663861881181055200,6.36705517578125,-0.5604684352874756,-9.624267578125,-1.797145128250122
1663861881190912300,6.376912353515625,-0.5594519972801208,-9.621072769165039,-1.8144903182983398
1663861881200800000,6.386800048828125,-0.570501446723938,-9.616284370422363,-1.836300253868103
1663861881210687700,6.396687744140625,-0.5898481607437134,-9.610355377197266,-1.8610560894012451
1663861881220545000,6.406544921875,-0.6132033467292786,-9.603874206542969,-1.886786937713623
1663861881230432500,6.4164326171875,-0.6365013122558594,-9.597357749938965,-1.9120585918426514
1663861881240320300,6.4263203125,-0.6557469964027405,-9.591230392456055,-1.9361529350280762
1663861881250208000,6.4362080078125,-0.6683219075202942,-9.586101531982422,-1.9571373462677002
1663861881260065300,6.446065185546875,-0.6728950142860413,-9.582493782043457,-1.9731730222702026
1663861881269952800,6.455952880859375,-0.6685234904289246,-9.580693244934082,-1.9833765029907227
1663861881279840500,6.465840576171875,-0.6557499170303345,-9.581098556518555,-1.9856826066970825
1663861881289728300,6.475728271484375,-0.6376773715019226,-9.58372974395752,-1.978863000869751
1663861881299616000,6.485615966796875,-0.617075502872467,-9.588071823120117,-1.9643064737319946
1663861881309473000,6.49547314453125,-0.5932127237319946,-9.593588829040527,-1.9446157217025757
1663861881319360800,6.50536083984375,-0.5662652850151062,-9.599759101867676,-1.9220733642578125
1663861881329248500,6.51524853515625,-0.5388530492782593,-9.605803489685059,-1.8996244668960571
1663861881339136300,6.52513623046875,-0.5128082036972046,-9.610978126525879,-1.8805673122406006
1663861881348993300,6.5349931640625,-0.48864564299583435,-9.614994049072266,-1.8664134740829468
1663861881358911700,6.544911865234375,-0.46685752272605896,-9.617859840393066,-1.8572003841400146
1663861881368768800,6.554768798828125,-0.4487011134624481,-9.619583129882812,-1.8527512550354004
1663861881378687000,6.56468701171875,-0.43289047479629517,-9.620287895202637,-1.8528506755828857
1663861881388544300,6.574544189453125,-0.41877180337905884,-9.620075225830078,-1.857195258140564
1663861881398401300,6.5844013671875,-0.4072911739349365,-9.619140625,-1.8645745515823364
1663861881408319500,6.594319580078125,-0.3996540904045105,-9.617738723754883,-1.8734406232833862
1663861881418207200,6.604207275390625,-0.39552706480026245,-9.616153717041016,-1.8824290037155151
1663861881428095000,6.614094970703125,-0.39445897936820984,-9.614770889282227,-1.8896973133087158
1663861881437982700,6.623982666015625,-0.3964990973472595,-9.613845825195312,-1.8939764499664307
1663861881447870500,6.633870361328125,-0.40136829018592834,-9.613357543945312,-1.895424723625183
1663861881457758000,6.643758056640625,-0.4071749448776245,-9.613204002380371,-1.894971251487732
1663861881467615200,6.653615234375,-0.4118322432041168,-9.613354682922363,-1.8931958675384521
1663861881477503000,6.6635029296875,-0.41666853427886963,-9.613490104675293,-1.8914505243301392
1663861881487360000,6.673360107421875,-0.4262632727622986,-9.612990379333496,-1.8918489217758179
1663861881497247700,6.683247802734375,-0.4449307918548584,-9.61128044128418,-1.8962373733520508
1663861881507166000,6.693166015625,-0.4745515286922455,-9.60814094543457,-1.9049490690231323
1663861881517053700,6.7030537109375,-0.5179833173751831,-9.603445053100586,-1.9172674417495728
1663861881526911000,6.712910888671875,-0.574802041053772,-9.597065925598145,-1.9329580068588257
1663861881536798500,6.722798583984375,-0.6409702301025391,-9.588849067687988,-1.9528273344039917
1663861881546686200,6.732686279296875,-0.716059684753418,-9.578668594360352,-1.9765490293502808
1663861881556574000,6.742573974609375,-0.8034148216247559,-9.566020011901855,-2.004039764404297
1663861881566461700,6.752461669921875,-0.9049353003501892,-9.549822807312012,-2.037740707397461
1663861881576349400,6.762349365234375,-1.021575689315796,-9.528799057006836,-2.0805678367614746
1663861881586237200,6.7722373046875,-1.1559809446334839,-9.501413345336914,-2.1347646713256836
1663861881596124700,6.782124755859375,-1.307778239250183,-9.466522216796875,-2.20115065574646
1663861881606012400,6.792012451171875,-1.4717437028884888,-9.423730850219727,-2.2798352241516113
1663861881615900200,6.801900146484375,-1.6443575620651245,-9.373320579528809,-2.3679821491241455
1663861881625788000,6.811787841796875,-1.8244919776916504,-9.315874099731445,-2.460918426513672
1663861881635645000,6.82164501953125,-2.0122287273406982,-9.252471923828125,-2.5520739555358887
1663861881645502200,6.831502197265625,-2.209383964538574,-9.183667182922363,-2.6361465454101562
1663861881655390000,6.841389892578125,-2.4178688526153564,-9.109010696411133,-2.7111287117004395
1663861881665247000,6.8512470703125,-2.635709047317505,-9.02752685546875,-2.77978253364563
1663861881675165200,6.861165283203125,-2.862386703491211,-8.937540054321289,-2.8456106185913086
1663861881685053000,6.871052978515625,-3.0885162353515625,-8.841008186340332,-2.9099886417388916
1663861881694940700,6.880940673828125,-3.3054661750793457,-8.738731384277344,-2.979740619659424
1663861881704828400,6.890828369140625,-3.5129306316375732,-8.630051612854004,-3.058091402053833
1663861881714685400,6.900685546875,-3.7161364555358887,-8.514538764953613,-3.1405980587005615
1663861881724542700,6.910542724609375,-3.9234659671783447,-8.391016006469727,-3.2198848724365234
1663861881734461000,6.9204609375,-4.14143705368042,-8.257140159606934,-3.292189836502075
1663861881744348700,6.9303486328125,-4.36356782913208,-8.113739967346191,-3.361083745956421
1663861881754236400,6.940236328125,-4.578892230987549,-7.963128089904785,-3.434053659439087
1663861881764124000,6.9501240234375,-4.775386333465576,-7.812324047088623,-3.511932373046875
1663861881774011600,6.96001171875,-4.952248573303223,-7.666685104370117,-3.5871381759643555
1663861881783899400,6.9698994140625,-5.120178699493408,-7.522032260894775,-3.6569366455078125
1663861881793787100,6.979787109375,-5.294031620025635,-7.366739749908447,-3.7248823642730713
1663861881803675000,6.9896748046875,-5.48470401763916,-7.192245006561279,-3.7894651889801025
1663861881813532000,6.999531982421875,-5.688344478607178,-6.997768402099609,-3.8528382778167725
1663861881823419600,7.009419677734375,-5.887698173522949,-6.787356376647949,-3.929020643234253
1663861881833307400,7.019307373046875,-6.067275047302246,-6.5693206787109375,-4.025244235992432
1663861881843195100,7.029195068359375,-6.231011390686035,-6.347408294677734,-4.129806041717529
1663861881853083000,7.039082763671875,-6.390640735626221,-6.1237945556640625,-4.22246789932251
1663861881862970400,7.048970458984375,-6.550483226776123,-5.900115489959717,-4.2953691482543945
1663861881872858000,7.058858154296875,-6.712591171264648,-5.673097610473633,-4.350569725036621
1663861881882745900,7.068745849609375,-6.877689838409424,-5.436681270599365,-4.394344329833984
1663861881892633600,7.078633544921875,-7.041473865509033,-5.181410312652588,-4.443086624145508
1663861881902490600,7.08849072265625,-7.192519664764404,-4.9057793617248535,-4.513467311859131
1663861881912378400,7.09837841796875,-7.3282623291015625,-4.619438171386719,-4.596493244171143
1663861881922266000,7.10826611328125,-7.45819091796875,-4.3322038650512695,-4.666667461395264
1663861881932153900,7.11815380859375,-7.587118625640869,-4.047602653503418,-4.7141194343566895
1663861881942041600,7.12804150390625,-7.714205265045166,-3.7657124996185303,-4.741395950317383
1663861881951929000,7.13792919921875,-7.835760593414307,-3.4861063957214355,-4.755870819091797
1663861881961786400,7.147786376953125,-7.948193550109863,-3.210855722427368,-4.763087749481201
1663861881971674000,7.157674072265625,-8.050978660583496,-2.937324285507202,-4.766995429992676
1663861881981561900,7.167561767578125,-8.148160934448242,-2.6573691368103027,-4.766157150268555
1663861881991419000,7.1774189453125,-8.238511085510254,-2.3690085411071777,-4.762892723083496
1663861882001276200,7.187276123046875,-8.316509246826172,-2.07985782623291,-4.762379169464111
1663861882011164000,7.197163818359375,-8.380522727966309,-1.7993953227996826,-4.764389514923096
1663861882021051400,7.207051513671875,-8.437350273132324,-1.5330134630203247,-4.757244110107422
1663861882030939100,7.216939208984375,-8.491189002990723,-1.2806733846664429,-4.736029148101807
1663861882040827000,7.226826904296875,-8.542495727539062,-1.0362343788146973,-4.70344352722168
1663861882050714600,7.236714599609375,-8.588027000427246,-0.7934091687202454,-4.66762113571167
1663861882060602400,7.246602294921875,-8.626870155334473,-0.5467360615730286,-4.631259918212891
1663861882070490000,7.256489990234375,-8.659191131591797,-0.2960182726383209,-4.593600273132324
1663861882080377600,7.266377685546875,-8.681833267211914,-0.04808725044131279,-4.560028553009033
1663861882090265300,7.276265380859375,-8.694217681884766,0.19098235666751862,-4.5326032638549805
1663861882100153000,7.286153076171875,-8.699015617370605,0.4163573980331421,-4.508233070373535
1663861882110040800,7.296040771484375,-8.699814796447754,0.6271411180496216,-4.482219219207764
1663861882119897900,7.30589794921875,-8.697829246520996,0.8283398151397705,-4.453314304351807
1663861882129785600,7.31578564453125,-8.692221641540527,1.0232411623001099,-4.423644542694092
1663861882139643000,7.325642822265625,-8.682888984680176,1.2119332551956177,-4.394205570220947
1663861882149561000,7.33556103515625,-8.668681144714355,1.396254062652588,-4.36747407913208
1663861882159418000,7.345418212890625,-8.647571563720703,1.5724462270736694,-4.349404335021973
1663861882169275400,7.355275390625,-8.619903564453125,1.7323261499404907,-4.343579292297363
1663861882179193600,7.365193603515625,-8.58885383605957,1.8797547817230225,-4.343788146972656
1663861882189051000,7.37505078125,-8.559121131896973,2.0145299434661865,-4.342060565948486
1663861882198938400,7.3849384765625,-8.534984588623047,2.1393394470214844,-4.329855442047119
1663861882208826000,7.394826171875,-8.515848159790039,2.254626750946045,-4.30898904800415
1663861882218713900,7.4047138671875,-8.501200675964355,2.3574371337890625,-4.282812118530273
1663861882228601600,7.4146015625,-8.489067077636719,2.4457125663757324,-4.257299900054932
1663861882238489300,7.4244892578125,-8.47879695892334,2.518193244934082,-4.23545503616333
1663861882248376800,7.434376953125,-8.470356941223145,2.5737407207489014,-4.2189202308654785
1663861882258264600,7.4442646484375,-8.463549613952637,2.613715648651123,-4.20799446105957
1663861882268121900,7.454121826171875,-8.460107803344727,2.638364315032959,-4.199522972106934
1663861882278040000,7.4640400390625,-8.460036277770996,2.647812604904175,-4.193717956542969
1663861882287897000,7.47389697265625,-8.463500022888184,2.6431171894073486,-4.189687252044678
1663861882297784800,7.483784912109375,-8.47122573852539,2.6223976612091064,-4.187094211578369
1663861882307672600,7.493672607421875,-8.480623245239258,2.5856335163116455,-4.190932273864746
1663861882317529900,7.50352978515625,-8.490452766418457,2.533940076828003,-4.202588081359863
1663861882327417600,7.51341748046875,-8.502311706542969,2.466078042984009,-4.218949794769287
1663861882337305000,7.52330517578125,-8.515562057495117,2.3826210498809814,-4.240128517150879
1663861882347192800,7.53319287109375,-8.528831481933594,2.286111354827881,-4.266511917114258
1663861882357080600,7.54308056640625,-8.542814254760742,2.1767640113830566,-4.295626640319824
1663861882366968300,7.55296826171875,-8.557991027832031,2.0554239749908447,-4.325089931488037
1663861882376856000,7.56285595703125,-8.574383735656738,1.9216933250427246,-4.354011058807373
1663861882386743600,7.57274365234375,-8.591120719909668,1.7747987508773804,-4.3832783699035645
1663861882396600800,7.582600830078125,-8.607325553894043,1.615412712097168,-4.413022994995117
1663861882406488600,7.592488525390625,-8.622909545898438,1.442017674446106,-4.442567825317383
1663861882416376300,7.602376220703125,-8.637757301330566,1.2549285888671875,-4.470424652099609
1663861882426263800,7.612263916015625,-8.650571823120117,1.0555739402770996,-4.497082233428955
1663861882436151600,7.622151611328125,-8.660306930541992,0.8449804782867432,-4.5227742195129395
1663861882446008800,7.6320087890625,-8.666914939880371,0.6237022280693054,-4.545984268188477
1663861882455927000,7.641927001953125,-8.66960334777832,0.3915441036224365,-4.566734790802002
1663861882465814800,7.651814697265625,-8.668634414672852,0.15234172344207764,-4.582789421081543
1663861882475702300,7.661702392578125,-8.6648588180542,-0.09544461220502853,-4.591460704803467
1663861882485590000,7.671590087890625,-8.657624244689941,-0.3514014482498169,-4.592650413513184
1663861882495477800,7.681477783203125,-8.646648406982422,-0.6137890219688416,-4.585752010345459
1663861882505365500,7.691365478515625,-8.631430625915527,-0.8813450932502747,-4.570780277252197
1663861882515222500,7.701222412109375,-8.610593795776367,-1.1533643007278442,-4.549485683441162
1663861882525110300,7.7111103515625,-8.581941604614258,-1.4332298040390015,-4.523993968963623
1663861882534967600,7.720967529296875,-8.544650077819824,-1.719643235206604,-4.494682312011719
1663861882544855300,7.730855224609375,-8.49657154083252,-2.0135293006896973,-4.46367073059082
1663861882554743000,7.740742919921875,-8.43840217590332,-2.3112220764160156,-4.42967414855957
1663861882564630500,7.750630615234375,-8.373309135437012,-2.6087658405303955,-4.387757778167725
1663861882574518300,7.760518310546875,-8.301008224487305,-2.903324604034424,-4.339858531951904
1663861882584406000,7.770406005859375,-8.21877670288086,-3.1935184001922607,-4.292264461517334
1663861882594263300,7.78026318359375,-8.125985145568848,-3.47645902633667,-4.248880386352539
1663861882604181500,7.790181396484375,-8.021529197692871,-3.754629373550415,-4.210487365722656
1663861882614038500,7.80003857421875,-7.904916286468506,-4.02885103225708,-4.177445888519287
1663861882623926300,7.80992626953125,-7.774363040924072,-4.304638862609863,-4.147259712219238
1663861882633814000,7.81981396484375,-7.63084077835083,-4.5813703536987305,-4.117243766784668
1663861882643701800,7.82970166015625,-7.4768853187561035,-4.85849142074585,-4.0818681716918945
1663861882653589200,7.83958935546875,-7.315216541290283,-5.135068416595459,-4.035971641540527
1663861882663477000,7.84947705078125,-7.147204399108887,-5.408985137939453,-3.978785753250122
1663861882673364700,7.85936474609375,-6.971957206726074,-5.678036689758301,-3.914344549179077
1663861882683252500,7.86925244140625,-6.7869977951049805,-5.940864086151123,-3.848788261413574
1663861882693140200,7.87914013671875,-6.592153549194336,-6.196216106414795,-3.78428316116333
1663861882703027700,7.88902783203125,-6.388781547546387,-6.441990852355957,-3.7221791744232178
1663861882712915500,7.89891552734375,-6.177393913269043,-6.677785396575928,-3.662973403930664
1663861882722803200,7.90880322265625,-5.9561920166015625,-6.906429767608643,-3.6049108505249023
1663861882732660500,7.918660400390625,-5.724728107452393,-7.129411220550537,-3.5453295707702637
1663861882742517500,7.928517578125,-5.482516765594482,-7.347408771514893,-3.4825234413146973
1663861882752374800,7.938374755859375,-5.229217052459717,-7.559812545776367,-3.4168572425842285
1663861882762293000,7.94829296875,-4.960947036743164,-7.768574237823486,-3.347932815551758
1663861882772180700,7.9581806640625,-4.679303169250488,-7.972982406616211,-3.2720134258270264
1663861882782037800,7.968037841796875,-4.385954856872559,-8.17252254486084,-3.1849141120910645
1663861882791956000,7.9779560546875,-4.083791255950928,-8.365416526794434,-3.084290027618408
1663861882801843700,7.98784375,-3.780189037322998,-8.545434951782227,-2.975918769836426
1663861882811701000,7.997700927734375,-3.480628728866577,-8.70751667022705,-2.8696279525756836
1663861882821558000,8.00755810546875,-3.1889986991882324,-8.849752426147461,-2.771742343902588
1663861882831476200,8.017476318359375,-2.9061660766601562,-8.974122047424316,-2.681368112564087
1663861882841364000,8.027364013671875,-2.6371407508850098,-9.082317352294922,-2.593721628189087
1663861882851251700,8.037251708984375,-2.3847737312316895,-9.177218437194824,-2.5023770332336426
1663861882861139500,8.047139404296875,-2.1486501693725586,-9.260908126831055,-2.4060862064361572
1663861882871027200,8.057027099609375,-1.9257529973983765,-9.334991455078125,-2.3064699172973633
1663861882880884200,8.06688427734375,-1.7148487567901611,-9.400309562683105,-2.205414295196533
1663861882890772000,8.07677197265625,-1.5146251916885376,-9.45733642578125,-2.105964183807373
1663861882900659700,8.08665966796875,-1.3242677450180054,-9.505748748779297,-2.0143074989318848
1663861882910547500,8.09654736328125,-1.1422796249389648,-9.545559883117676,-1.9359395503997803
1663861882920435000,8.10643505859375,-0.9690028429031372,-9.576949119567871,-1.8744224309921265
1663861882930322700,8.11632275390625,-0.8059588074684143,-9.600991249084473,-1.8280556201934814
1663861882940210400,8.12621044921875,-0.6618967056274414,-9.618812561035156,-1.7918508052825928
1663861882950098200,8.13609814453125,-0.5483542084693909,-9.630627632141113,-1.7665507793426514
1663861882959986000,8.14598583984375,-0.4655066430568695,-9.637083053588867,-1.7550818920135498
1663861882969873400,8.155873291015626,-0.4080955386161804,-9.639501571655273,-1.7560877799987793
1663861882979730700,8.165730712890625,-0.37166687846183777,-9.639497756958008,-1.7641839981079102
1663861882989588000,8.175587890625,-0.3528391122817993,-9.638258934020996,-1.7747862339019775
1663861882999445000,8.185445068359375,-0.3472259044647217,-9.636351585388184,-1.786208152770996
1663861883009363200,8.19536328125,-0.3503941297531128,-9.634137153625488,-1.797502040863037
1663861883019220500,8.205220458984375,-0.3600294291973114,-9.63154411315918,-1.8094507455825806
1663861883029138700,8.215138671875,-0.3732292950153351,-9.628535270690918,-1.8227429389953613
1663861883039026400,8.2250263671875,-0.38800784945487976,-9.625125885009766,-1.8376048803329468
1663861883048914200,8.2349140625,-0.4045315086841583,-9.621335983276367,-1.853817343711853
1663861883058771200,8.244771240234375,-0.4228847324848175,-9.617331504821777,-1.8704252243041992
1663861883068628500,8.25462841796875,-0.44016018509864807,-9.613277435302734,-1.887206792831421
1663861883078516200,8.26451611328125,-0.45052453875541687,-9.609553337097168,-1.9036555290222168
1663861883088403700,8.27440380859375,-0.4492058753967285,-9.606748580932617,-1.9180653095245361
1663861883098322000,8.284322021484375,-0.4345434606075287,-9.605537414550781,-1.9274929761886597
1663861883108179200,8.29417919921875,-0.4093959927558899,-9.606039047241211,-1.93049156665802
1663861883118097400,8.304097412109375,-0.37831389904022217,-9.607731819152832,-1.9284082651138306
1663861883127954700,8.31395458984375,-0.3459789454936981,-9.610286712646484,-1.921736478805542
1663861883137842200,8.32384228515625,-0.3126455247402191,-9.613838195800781,-1.9096453189849854
1663861883147730000,8.33372998046875,-0.2762194871902466,-9.618409156799316,-1.8921655416488647
1663861883157617700,8.34361767578125,-0.2370615154504776,-9.62354564666748,-1.8712435960769653
1663861883167475000,8.353474853515625,-0.19778884947299957,-9.628729820251465,-1.8490073680877686
1663861883177393200,8.36339306640625,-0.1591082513332367,-9.633647918701172,-1.8269895315170288
1663861883187280600,8.37328076171875,-0.12051372230052948,-9.637923240661621,-1.8072926998138428
1663861883197168400,8.38316845703125,-0.08136199414730072,-9.641362190246582,-1.7910634279251099
1663861883207056100,8.39305615234375,-0.04331260919570923,-9.643889427185059,-1.7787362337112427
1663861883216913400,8.402913330078125,-0.01027536392211914,-9.64539623260498,-1.771047592163086
1663861883226801000,8.41280078125,0.0147369634360075,-9.645878791809082,-1.7683912515640259
1663861883236688600,8.422688720703125,0.031115902587771416,-9.645583152770996,-1.7697865962982178
1663861883246576400,8.432576416015625,0.03921031206846237,-9.64472484588623,-1.774298906326294
1663861883256464100,8.442464111328125,0.03787536919116974,-9.643345832824707,-1.7818106412887573
1663861883266351900,8.452351806640625,0.02537318877875805,-9.641491889953613,-1.7920328378677368
1663861883276239600,8.462239501953125,0.0007042309734970331,-9.639022827148438,-1.8054465055465698
1663861883286127000,8.472127197265625,-0.03645753860473633,-9.635749816894531,-1.8224668502807617
1663861883296014800,8.482014892578125,-0.08529973030090332,-9.631176948547363,-1.8448688983917236
1663861883305902600,8.491902587890625,-0.1453654170036316,-9.624676704406738,-1.8747938871383667
1663861883315790300,8.501790283203125,-0.21804769337177277,-9.615723609924316,-1.9132927656173706
1663861883325617000,8.511616943359375,-0.30524948239326477,-9.604068756103516,-1.9593552350997925
1663861883335504600,8.521504638671875,-0.4096824824810028,-9.58928108215332,-2.012021780014038
1663861883345392400,8.531392333984375,-0.5329217910766602,-9.570842742919922,-2.0701045989990234
1663861883355249400,8.54124951171875,-0.6770837306976318,-9.547879219055176,-2.133061647415161
1663861883365167600,8.551167724609375,-0.8446795344352722,-9.519124031066895,-2.200723886489868
1663861883375055400,8.561055419921875,-1.0345181226730347,-9.483473777770996,-2.272416114807129
1663861883384943000,8.570943115234375,-1.2433741092681885,-9.439501762390137,-2.3495137691497803
1663861883394800400,8.58080029296875,-1.4638409614562988,-9.386539459228516,-2.433194398880005
1663861883404688000,8.59068798828125,-1.6936485767364502,-9.323479652404785,-2.5248141288757324
1663861883414545200,8.600545166015625,-1.930751085281372,-9.24988842010498,-2.6233856678009033
1663861883424433000,8.610432861328125,-2.1800053119659424,-9.164137840270996,-2.727001428604126
1663861883434351000,8.62035107421875,-2.447788953781128,-9.064101219177246,-2.8321027755737305
1663861883444208000,8.6302080078125,-2.7322661876678467,-8.9490327835083,-2.935971975326538
1663861883454096000,8.640095947265625,-3.0301015377044678,-8.818074226379395,-3.038163423538208
1663861883463983600,8.649983642578125,-3.327892780303955,-8.67590045928955,-3.1343677043914795
1663861883473871400,8.659871337890625,-3.6056296825408936,-8.531543731689453,-3.2222015857696533
1663861883483728400,8.669728271484376,-3.848564863204956,-8.393682479858398,-3.3022751808166504
1663861883493646800,8.679646728515625,-4.0634942054748535,-8.261456489562988,-3.377387762069702
1663861883503534300,8.689534423828125,-4.266412734985352,-8.128669738769531,-3.4486005306243896
1663861883513422000,8.699422119140625,-4.476072311401367,-7.985597133636475,-3.516448497772217
1663861883523309800,8.709309814453125,-4.701870441436768,-7.825817108154297,-3.580418586730957
1663861883533197600,8.719197509765625,-4.94097900390625,-7.646927833557129,-3.6443941593170166
1663861883543085300,8.729085205078125,-5.1822614669799805,-7.451982498168945,-3.7124807834625244
1663861883552972800,8.738972900390625,-5.415504455566406,-7.249166011810303,-3.780512809753418
1663861883562860500,8.748860595703125,-5.639207363128662,-7.043768882751465,-3.8412275314331055
1663861883572748300,8.758748291015625,-5.859736919403076,-6.83195686340332,-3.893357753753662
1663861883582605600,8.76860546875,-6.07960319519043,-6.607491493225098,-3.943331480026245
1663861883592493000,8.7784931640625,-6.2922234535217285,-6.368369102478027,-4.002771377563477
1663861883602350300,8.788350341796875,-6.489845275878906,-6.119691848754883,-4.074515342712402
1663861883612238000,8.798238037109375,-6.679908275604248,-5.858713626861572,-4.150262832641602
1663861883622095000,8.80809521484375,-6.864105701446533,-5.5835490226745605,-4.228287220001221
1663861883632013300,8.818013427734375,-7.040690898895264,-5.292332172393799,-4.311644554138184
1663861883641901000,8.827901123046875,-7.205465793609619,-4.993249893188477,-4.395350456237793
1663861883651758300,8.83775830078125,-7.358989238739014,-4.6924567222595215,-4.471746444702148
1663861883661646000,8.84764599609375,-7.501714706420898,-4.392429351806641,-4.538856029510498
1663861883671533600,8.857533447265626,-7.633802890777588,-4.095311641693115,-4.596070766448975
1663861883681421300,8.86742138671875,-7.765685558319092,-3.7967441082000732,-4.631333351135254
1663861883691309000,8.87730908203125,-7.903148174285889,-3.4910659790039062,-4.639298915863037
1663861883701196800,8.88719677734375,-8.040374755859375,-3.172325849533081,-4.632399082183838
1663861883711084500,8.89708447265625,-8.167316436767578,-2.846156358718872,-4.62219762802124
1663861883720972300,8.90697216796875,-8.285335540771484,-2.5221426486968994,-4.6002607345581055
1663861883730859800,8.91685986328125,-8.399270057678223,-2.2053990364074707,-4.556189060211182
1663861883740747500,8.92674755859375,-8.504291534423828,-1.8989123106002808,-4.499061107635498
1663861883750635300,8.93663525390625,-8.600586891174316,-1.5970419645309448,-4.432805061340332
1663861883760523000,8.94652294921875,-8.68325424194336,-1.2988855838775635,-4.368566513061523
1663861883770380000,8.956380126953125,-8.747108459472656,-1.0061918497085571,-4.318109512329102
1663861883780237300,8.9662373046875,-8.792611122131348,-0.71272212266922,-4.283972263336182
1663861883790125000,8.976125,-8.818085670471191,-0.4160241186618805,-4.270674228668213
1663861883800012800,8.9860126953125,-8.828289031982422,-0.12480654567480087,-4.268035411834717
1663861883809900300,8.995900390625,-8.833690643310547,0.14935079216957092,-4.256053447723389
1663861883819788000,9.0057880859375,-8.836652755737305,0.40406855940818787,-4.233283042907715
1663861883829645300,9.015645263671875,-8.837268829345703,0.6452485918998718,-4.20198917388916
1663861883839533000,9.025532958984375,-8.837148666381836,0.8805809617042542,-4.159298419952393
1663861883849420500,9.035420654296875,-8.835347175598145,1.1094000339508057,-4.108072280883789
1663861883859308300,9.045308349609375,-8.83017349243164,1.3311470746994019,-4.0529584884643555
1663861883869196000,9.055196044921875,-8.81899642944336,1.5437361001968384,-4.001570224761963
1663861883879053300,9.06505322265625,-8.798144340515137,1.7394813299179077,-3.967019557952881
1663861883888971500,9.074971435546875,-8.769368171691895,1.9207600355148315,-3.947054624557495
1663861883898859000,9.08485888671875,-8.736614227294922,2.0855629444122314,-3.9360361099243164
1663861883908716300,9.09471630859375,-8.703343391418457,2.2350962162017822,-3.9276630878448486
1663861883918573600,9.104573486328125,-8.670902252197266,2.3740596771240234,-3.9178683757781982
1663861883928491800,9.11449169921875,-8.641410827636719,2.5056064128875732,-3.901068687438965
1663861883938379300,9.124379150390626,-8.615361213684082,2.6247973442077637,-3.880253314971924
1663861883948267000,9.13426708984375,-8.591402053833008,2.7311785221099854,-3.8599042892456055
1663861883958154800,9.14415478515625,-8.57036018371582,2.8219974040985107,-3.841308116912842
1663861883968042500,9.15404248046875,-8.55150032043457,2.8975067138671875,-3.8270978927612305
1663861883977930200,9.16393017578125,-8.534099578857422,2.9599361419677734,-3.8181567192077637
1663861883987787300,9.173787353515625,-8.520294189453125,3.0073323249816895,-3.8119468688964844
1663861883997675000,9.183675048828125,-8.5105562210083,3.039151191711426,-3.8084609508514404
1663861884007532300,9.1935322265625,-8.504549980163574,3.056278705596924,-3.8081722259521484
1663861884017450500,9.203450439453125,-8.503192901611328,3.058715343475342,-3.80924654006958
1663861884027307500,9.2133076171875,-8.507109642028809,3.0446267127990723,-3.811785936355591
1663861884037195300,9.2231953125,-8.514880180358887,3.015002727508545,-3.8179774284362793
1663861884047083000,9.2330830078125,-8.525935173034668,2.9704525470733643,-3.8282148838043213
1663861884056970800,9.242970703125,-8.539670944213867,2.9106061458587646,-3.843536615371704
1663861884066858500,9.2528583984375,-8.554463386535645,2.837265968322754,-3.8654191493988037
1663861884076746000,9.26274609375,-8.570302963256836,2.7514572143554688,-3.8922715187072754
1663861884086633700,9.2726337890625,-8.587667465209961,2.651320695877075,-3.9233715534210205
1663861884096521500,9.282521484375,-8.605666160583496,2.536376953125,-3.9597580432891846
1663861884106409200,9.2924091796875,-8.623977661132812,2.408020496368408,-3.9998536109924316
1663861884116266200,9.302266357421875,-8.642599105834961,2.267918348312378,-4.041339874267578
1663861884126154000,9.312154052734375,-8.661090850830078,2.1163928508758545,-4.083719730377197
1663861884136041700,9.322041748046875,-8.67959976196289,1.9528672695159912,-4.125680923461914
1663861884145929500,9.331929443359375,-8.69697380065918,1.7777564525604248,-4.168047904968262
1663861884155817200,9.341817138671875,-8.712519645690918,1.590533971786499,-4.211007118225098
1663861884165704700,9.35170458984375,-8.72626781463623,1.3908531665802002,-4.253017902374268
1663861884175592400,9.361592529296875,-8.738058090209961,1.1818864345550537,-4.291836738586426
1663861884185480200,9.371480224609375,-8.746826171875,0.966004490852356,-4.327844619750977
1663861884195368000,9.381367919921875,-8.752535820007324,0.7422100901603699,-4.360347747802734
1663861884205255700,9.391255615234375,-8.75477123260498,0.508206307888031,-4.389317989349365
1663861884215112700,9.40111279296875,-8.75317668914795,0.2648935317993164,-4.413855075836182
1663861884225000400,9.41100048828125,-8.747218132019043,0.013258878141641617,-4.433554172515869
1663861884234888200,9.42088818359375,-8.737680435180664,-0.2445799708366394,-4.445614814758301
1663861884244776000,9.43077587890625,-8.724258422851562,-0.5079404711723328,-4.4496870040893555
1663861884254663700,9.44066357421875,-8.706317901611328,-0.7760645747184753,-4.44613790512085
1663861884264551200,9.45055126953125,-8.682965278625488,-1.04888117313385,-4.435803413391113
1663861884274439000,9.46043896484375,-8.65335750579834,-1.3261364698410034,-4.419406890869141
1663861884284296200,9.470296142578125,-8.617576599121094,-1.6060595512390137,-4.396398544311523
1663861884294184000,9.480183837890625,-8.573691368103027,-1.890990972518921,-4.368793964385986
1663861884304041000,9.490041015625,-8.520787239074707,-2.1787378787994385,-4.33816385269165
1663861884313928700,9.4999287109375,-8.45848560333252,-2.4701266288757324,-4.303821563720703
1663861884323786000,9.509785888671875,-8.387497901916504,-2.761195659637451,-4.265683174133301
1663861884333704200,9.5197041015625,-8.30933666229248,-3.0512378215789795,-4.220813274383545
1663861884343561200,9.529561279296875,-8.226038932800293,-3.336463451385498,-4.1678147315979
1663861884353449000,9.539448974609375,-8.133173942565918,-3.619771957397461,-4.11328649520874
1663861884363336700,9.549336669921875,-8.02950382232666,-3.8994340896606445,-4.0610175132751465
1663861884373224400,9.559224365234375,-7.9149065017700195,-4.175129413604736,-4.011599540710449
1663861884383112000,9.56911181640625,-7.789597034454346,-4.445946216583252,-3.9656178951263428
1663861884392969200,9.57896923828125,-7.655129909515381,-4.71304988861084,-3.9187419414520264
1663861884402887400,9.588887451171875,-7.507906913757324,-4.984992027282715,-3.8667285442352295
1663861884412775200,9.598775146484375,-7.345425128936768,-5.258644104003906,-3.815990686416626
1663861884422663000,9.608662841796875,-7.16714334487915,-5.531193733215332,-3.769394636154175
1663861884432550700,9.618550537109375,-6.975905895233154,-5.800889492034912,-3.7224743366241455
1663861884442438100,9.628438232421875,-6.77361536026001,-6.065093994140625,-3.674665927886963
1663861884452326000,9.638325927734375,-6.561968803405762,-6.320511341094971,-3.627960205078125
1663861884462213600,9.648213623046875,-6.34437370300293,-6.56380033493042,-3.5827128887176514
1663861884472101400,9.658101318359375,-6.1229047775268555,-6.7937493324279785,-3.53912353515625
1663861884481958400,9.66795849609375,-5.897153377532959,-7.011559009552002,-3.4974305629730225
1663861884491846100,9.67784619140625,-5.663883686065674,-7.2210259437561035,-3.4565281867980957
1663861884501734000,9.68773388671875,-5.424757957458496,-7.4212646484375,-3.415731191635132
1663861884511591200,9.697591064453125,-5.183048248291016,-7.610522747039795,-3.3743646144866943
1663861884521478700,9.707478759765625,-4.93963623046875,-7.7894463539123535,-3.330899953842163
1663861884531366400,9.717366455078125,-4.695794582366943,-7.958244800567627,-3.284240484237671
1663861884541223700,9.7272236328125,-4.450340747833252,-8.118012428283691,-3.234614849090576
1663861884551111400,9.737111328125,-4.1998772621154785,-8.270984649658203,-3.181546926498413
1663861884560999000,9.7469990234375,-3.9439852237701416,-8.41709041595459,-3.1253724098205566
1663861884570886700,9.75688671875,-3.6834046840667725,-8.55620002746582,-3.0650229454040527
1663861884580774400,9.7667744140625,-3.42230486869812,-8.687338829040527,-2.9980597496032715
1663861884590662100,9.776662109375,-3.1643385887145996,-8.80866527557373,-2.9265635013580322
1663861884600550000,9.7865498046875,-2.911123752593994,-8.918370246887207,-2.8562934398651123
1663861884610437400,9.796437255859376,-2.665072202682495,-9.015798568725586,-2.789830446243286
1663861884620325000,9.8063251953125,-2.428745746612549,-9.101625442504883,-2.7261669635772705
1663861884630212900,9.816212890625,-2.201766014099121,-9.177165985107422,-2.6650021076202393
1663861884640100600,9.8261005859375,-1.9815685749053955,-9.244540214538574,-2.6042776107788086
1663861884649988400,9.83598828125,-1.7664591073989868,-9.30553913116455,-2.5410523414611816
1663861884659845400,9.845845458984375,-1.5568220615386963,-9.360285758972168,-2.4762320518493652
1663861884669733000,9.855733154296875,-1.3538135290145874,-9.409638404846191,-2.407547950744629
1663861884679620900,9.865620849609375,-1.1625272035598755,-9.453842163085938,-2.333190441131592
1663861884689508600,9.875508544921875,-0.9860892295837402,-9.492936134338379,-2.2543702125549316
1663861884699396400,9.885396240234375,-0.8244432806968689,-9.526409149169922,-2.176738739013672
1663861884709283800,9.895283935546875,-0.6736871600151062,-9.553709030151367,-2.107883930206299
1663861884719171600,9.905171630859375,-0.5332546830177307,-9.575146675109863,-2.0500242710113525
1663861884729059300,9.915059326171875,-0.40783175826072693,-9.590682029724121,-2.0057106018066406
1663861884738916600,9.92491650390625,-0.3041503131389618,-9.600092887878418,-1.9789140224456787
1663861884748804000,9.93480419921875,-0.2307523638010025,-9.603797912597656,-1.970840334892273
1663861884758691800,9.94469189453125,-0.19056890904903412,-9.603317260742188,-1.9774640798568726
1663861884768579600,9.95457958984375,-0.17615146934986115,-9.600198745727539,-1.993875503540039
1663861884778467300,9.96446728515625,-0.17438526451587677,-9.59572982788086,-2.0154290199279785
1663861884788324400,9.974324462890625,-0.17552225291728973,-9.591072082519531,-2.0373785495758057
1663861884798212000,9.984212158203125,-0.17556951940059662,-9.586539268493652,-2.0585994720458984
1663861884808069400,9.9940693359375,-0.17570850253105164,-9.581955909729004,-2.079815626144409
1663861884817957000,10.00395703125,-0.18070726096630096,-9.577086448669434,-2.1017003059387207
1663861884827814100,10.013814208984375,-0.19399656355381012,-9.571969032287598,-2.1237170696258545
1663861884837732400,10.023732421875,-0.21428115665912628,-9.566862106323242,-2.144674062728882
1663861884847620000,10.0336201171875,-0.2360365241765976,-9.562397956848145,-2.1622257232666016
1663861884857507800,10.0435078125,-0.25319331884384155,-9.559051513671875,-2.175039768218994
1663861884867364900,10.05336474609375,-0.26168274879455566,-9.557097434997559,-2.182612419128418
1663861884877252600,10.063252685546875,-0.26166024804115295,-9.556604385375977,-2.1847705841064453
1663861884887140400,10.073140380859375,-0.2555648982524872,-9.5573148727417,-2.1823856830596924
1663861884897028000,10.083028076171875,-0.2469664067029953,-9.558669090270996,-2.1774373054504395
1663861884906885400,10.092885498046876,-0.23801949620246887,-9.560380935668945,-2.1709096431732178
1663861884916803600,10.102803466796875,-0.22796748578548431,-9.562552452087402,-2.162409543991089
1663861884926660600,10.11266064453125,-0.21606963872909546,-9.56518268585205,-2.1519720554351807
1663861884936548400,10.12254833984375,-0.2014310657978058,-9.568351745605469,-2.1392695903778076
1663861884946436000,10.13243603515625,-0.1853930503129959,-9.571674346923828,-2.125809669494629
1663861884956293000,10.142293212890625,-0.17149421572685242,-9.574676513671875,-2.113420248031616
1663861884966211300,10.15221142578125,-0.16227206587791443,-9.577194213867188,-2.1027164459228516
1663861884976099000,10.16209912109375,-0.15832549333572388,-9.579197883605957,-2.093869686126709
1663861884985986800,10.17198681640625,-0.15935519337654114,-9.580698013305664,-2.086913585662842
1663861884995874600,10.18187451171875,-0.16515128314495087,-9.581709861755371,-2.0818140506744385
1663861885005731600,10.191731689453125,-0.17504839599132538,-9.582316398620605,-2.0782110691070557
1663861885015588900,10.2015888671875,-0.18847264349460602,-9.582527160644531,-2.076063871383667
1663861885025507000,10.211507080078125,-0.2058764547109604,-9.58232593536377,-2.075336217880249
1663861885035364400,10.2213642578125,-0.227565199136734,-9.58153247833252,-2.076742172241211
1663861885045251800,10.231251953125,-0.25500285625457764,-9.579977035522461,-2.0807225704193115
1663861885055170000,10.241170166015625,-0.2895568907260895,-9.577509880065918,-2.0875465869903564
1663861885065027300,10.25102734375,-0.33276987075805664,-9.573835372924805,-2.097933292388916
1663861885074915000,10.2609150390625,-0.38679471611976624,-9.5684175491333,-2.113328218460083
1663861885084802800,10.270802734375,-0.45216551423072815,-9.56075668334961,-2.1349170207977295
1663861885094690300,10.280690185546876,-0.5282469987869263,-9.550467491149902,-2.1633126735687256
1663861885104578000,10.290578125,-0.6145737171173096,-9.537293434143066,-2.1983449459075928
1663861885114465800,10.3004658203125,-0.711003303527832,-9.520977020263672,-2.2396109104156494
1663861885124323000,10.310322998046875,-0.8174342513084412,-9.501036643981934,-2.287464141845703
1663861885134210800,10.3202109375,-0.9363234043121338,-9.47681999206543,-2.341698408126831
1663861885144098300,10.330098388671875,-1.0704132318496704,-9.447626113891602,-2.4014503955841064
1663861885153986000,10.339986083984375,-1.223225712776184,-9.41250228881836,-2.4655463695526123
1663861885163873800,10.349873779296875,-1.3940609693527222,-9.370586395263672,-2.5335936546325684
1663861885173761500,10.359761474609375,-1.5813055038452148,-9.320563316345215,-2.6070966720581055
1663861885183649300,10.369649169921875,-1.7875462770462036,-9.26016616821289,-2.687823534011841
1663861885193506300,10.37950634765625,-2.018707752227783,-9.186437606811523,-2.77571177482605
1663861885203394000,10.38939404296875,-2.282013416290283,-9.095809936523438,-2.8686325550079346
1663861885213251300,10.399251220703125,-2.5658979415893555,-8.988557815551758,-2.9651947021484375
1663861885223138800,10.409138916015625,-2.851203203201294,-8.865748405456543,-3.07238507270813
1663861885233057000,10.41905712890625,-3.1272404193878174,-8.729964256286621,-3.1903719902038574
1663861885242944800,10.42894482421875,-3.391294240951538,-8.587431907653809,-3.3053781986236572
1663861885252832500,10.43883251953125,-3.6424129009246826,-8.444483757019043,-3.404981851577759
1663861885262689800,10.448689697265625,-3.8739242553710938,-8.306490898132324,-3.487882375717163
1663861885272577300,10.458577392578125,-4.086965084075928,-8.1718111038208,-3.562107801437378
1663861885282465000,10.468465087890625,-4.289098739624023,-8.035149574279785,-3.6346089839935303
1663861885292322300,10.478322265625,-4.4949870109558105,-7.889583587646484,-3.7040436267852783
1663861885302240500,10.488240478515625,-4.719897270202637,-7.729262351989746,-3.761842727661133
1663861885312128300,10.498128173828125,-4.965359687805176,-7.552971839904785,-3.8037097454071045
1663861885321985300,10.5079853515625,-5.221899509429932,-7.361185073852539,-3.8360280990600586
1663861885331873000,10.517873046875,-5.472362995147705,-7.159229278564453,-3.868988037109375
1663861885341760800,10.5277607421875,-5.698746681213379,-6.958714008331299,-3.9078097343444824
1663861885351648500,10.5376484375,-5.901047706604004,-6.764827728271484,-3.9477994441986084
1663861885361536300,10.547536376953126,-6.087734222412109,-6.5729265213012695,-3.988297939300537
1663861885371393300,10.557393310546875,-6.267475128173828,-6.376096248626709,-4.029210090637207
1663861885381311500,10.5673115234375,-6.447173118591309,-6.1625471115112305,-4.077664852142334
1663861885391199200,10.57719921875,-6.624190807342529,-5.927972793579102,-4.141210079193115
1663861885401056500,10.587056396484375,-6.793239116668701,-5.678236484527588,-4.216623306274414
1663861885410944000,10.596944091796875,-6.95320987701416,-5.420734882354736,-4.294053554534912
1663861885420801300,10.60680126953125,-7.099077224731445,-5.161446571350098,-4.374123573303223
1663861885430719500,10.616719482421875,-7.223021030426025,-4.8996262550354,-4.471242904663086
1663861885440576800,10.62657666015625,-7.33700704574585,-4.6369709968566895,-4.564780235290527
1663861885450464300,10.63646435546875,-7.458236217498779,-4.371646881103516,-4.629665374755859
1663861885460352000,10.64635205078125,-7.588851451873779,-4.100783348083496,-4.6651153564453125
1663861885470239700,10.65623974609375,-7.721944808959961,-3.8201334476470947,-4.684927463531494
1663861885480097000,10.666096923828125,-7.850435256958008,-3.532325506210327,-4.697203636169434
1663861885490015200,10.67601513671875,-7.978114604949951,-3.2322869300842285,-4.698126792907715
1663861885499872300,10.685872314453125,-8.096893310546875,-2.928882598876953,-4.693861961364746
1663861885509760000,10.695760009765625,-8.204619407653809,-2.6267201900482178,-4.685609817504883
1663861885519647700,10.705647705078125,-8.304588317871094,-2.330275774002075,-4.666262626647949
1663861885529535500,10.715535400390625,-8.391254425048828,-2.0436184406280518,-4.6455206871032715
1663861885539423000,10.725423095703125,-8.459498405456543,-1.7673025131225586,-4.635074615478516
1663861885549310700,10.735310791015625,-8.51059341430664,-1.5021559000015259,-4.635051250457764
1663861885559198500,10.745198486328125,-8.55441951751709,-1.2411972284317017,-4.631600856781006
1663861885569086200,10.755086181640625,-8.590581893920898,-0.9811550974845886,-4.6270527839660645
1663861885578974000,10.764973876953125,-8.615663528442383,-0.7258439660072327,-4.627513408660889
1663861885588861700,10.77486181640625,-8.638799667358398,-0.46629196405410767,-4.617802619934082
1663861885598749200,10.784749267578125,-8.663700103759766,-0.1960139274597168,-4.590452194213867
1663861885608637000,10.794636962890625,-8.686857223510742,0.0720265805721283,-4.550131320953369
1663861885618494200,10.804494140625,-8.70472240447998,0.32352975010871887,-4.504833698272705
1663861885628382000,10.8143818359375,-8.709485054016113,0.5560287237167358,-4.4728169441223145
1663861885638269400,10.82426953125,-8.703274726867676,0.771209716796875,-4.452935695648193
1663861885648157200,10.8341572265625,-8.691089630126953,0.9712401032447815,-4.437572479248047
1663861885658045000,10.844044921875,-8.678852081298828,1.1606642007827759,-4.4159674644470215
1663861885667932700,10.8539326171875,-8.671656608581543,1.3449076414108276,-4.3776679039001465
1663861885677789700,10.863789794921875,-8.668288230895996,1.523411750793457,-4.325549125671387
1663861885687647000,10.87364697265625,-8.666030883789062,1.6952176094055176,-4.265740394592285
1663861885697565200,10.883565185546875,-8.662971496582031,1.8584989309310913,-4.203486919403076
1663861885707453000,10.893452880859375,-8.658926010131836,2.0079052448272705,-4.1426682472229
1663861885717310000,10.90331005859375,-8.651352882385254,2.1451096534729004,-4.089373588562012
1663861885727167200,10.913167236328125,-8.639874458312988,2.270143985748291,-4.04591178894043
1663861885737085400,10.92308544921875,-8.624856948852539,2.3849916458129883,-4.011737823486328
1663861885746942700,10.932942626953125,-8.607206344604492,2.4904770851135254,-3.985461711883545
1663861885756861000,10.94286083984375,-8.590457916259766,2.586717367172241,-3.960216999053955
1663861885766718000,10.952718017578125,-8.575297355651855,2.674220561981201,-3.934868812561035
1663861885776605700,10.962605712890625,-8.560406684875488,2.7496461868286133,-3.915262460708618
1663861885786493400,10.972493408203125,-8.548260688781738,2.812044382095337,-3.8974392414093018
1663861885796381200,10.982381103515625,-8.539817810058594,2.8607075214385986,-3.880495309829712
1663861885806238200,10.99223828125,-8.533565521240234,2.8970272541046143,-3.867283582687378
1663861885816126000,11.0021259765625,-8.529335975646973,2.9223198890686035,-3.857572317123413
1663861885826013700,11.012013671875,-8.528756141662598,2.9344825744628906,-3.8496131896972656
1663861885835901400,11.0219013671875,-8.530638694763184,2.9333033561706543,-3.846338987350464
1663861885845789200,11.0317890625,-8.533785820007324,2.9193389415740967,-3.8499789237976074
1663861885855646200,11.041646240234375,-8.538408279418945,2.8937582969665527,-3.8590331077575684
1663861885865564400,11.051564453125,-8.545754432678223,2.856358051300049,-3.870617151260376
1663861885875452200,11.0614521484375,-8.556293487548828,2.805164098739624,-3.8847503662109375
1663861885885309400,11.071309326171875,-8.568572044372559,2.7410061359405518,-3.9034388065338135
1663861885895227600,11.0812275390625,-8.58165168762207,2.665227174758911,-3.927112102508545
1663861885905115100,11.091115234375,-8.596138000488281,2.577148914337158,-3.9541239738464355
1663861885914972400,11.100972412109375,-8.61135482788086,2.4765520095825195,-3.9851787090301514
1663861885924860200,11.110860107421875,-8.626480102539062,2.364474296569824,-4.020384788513184
1663861885934748000,11.120747802734375,-8.642367362976074,2.239452838897705,-4.057674407958984
1663861885944635400,11.130635498046875,-8.65810775756836,2.099797248840332,-4.098586082458496
1663861885954523100,11.140523193359375,-8.673806190490723,1.9460951089859009,-4.1410369873046875
1663861885964411000,11.150410888671875,-8.689788818359375,1.7794095277786255,-4.182301998138428
1663861885974298600,11.160298583984375,-8.704448699951172,1.6025612354278564,-4.223122596740723
1663861885984155600,11.17015576171875,-8.716653823852539,1.4174048900604248,-4.26395320892334
1663861885994013000,11.180012939453125,-8.727431297302246,1.2221689224243164,-4.3021674156188965
1663861886003900700,11.189900634765625,-8.73752498626709,1.0156501531600952,-4.335262775421143
1663861886013788400,11.199788330078125,-8.746336936950684,0.7995917201042175,-4.362640857696533
1663861886023706600,11.20970654296875,-8.753066062927246,0.5743514895439148,-4.384557723999023
1663861886033563600,11.219563720703125,-8.757011413574219,0.3424592912197113,-4.4008941650390625
1663861886043421000,11.2294208984375,-8.758553504943848,0.10335402935743332,-4.4099273681640625
1663861886053339100,11.239339111328125,-8.757229804992676,-0.14304718375205994,-4.411445617675781
1663861886063227000,11.249226806640625,-8.752004623413086,-0.3936243951320648,-4.40656852722168
1663861886073114600,11.259114501953125,-8.742297172546387,-0.6495473980903625,-4.395534038543701
1663861886083002000,11.269002197265625,-8.726879119873047,-0.9111948609352112,-4.379692554473877
1663861886092889900,11.278889892578125,-8.704962730407715,-1.178429365158081,-4.3595075607299805
1663861886102747100,11.2887470703125,-8.675814628601074,-1.4494473934173584,-4.335865497589111
1663861886112604200,11.298604248046875,-8.638701438903809,-1.7239805459976196,-4.309423446655273
1663861886122522400,11.3085224609375,-8.592633247375488,-2.0017833709716797,-4.28134298324585
1663861886132410000,11.31841015625,-8.538630485534668,-2.2772090435028076,-4.251646518707275
1663861886142297900,11.3282978515625,-8.476850509643555,-2.549302101135254,-4.2207159996032715
1663861886152185600,11.338185546875,-8.405455589294434,-2.8183135986328125,-4.192353248596191
1663861886162073300,11.3480732421875,-8.322935104370117,-3.084927558898926,-4.169216156005859
1663861886171960800,11.3579609375,-8.229089736938477,-3.3500025272369385,-4.15089750289917
1663861886181848600,11.3678486328125,-8.127412796020508,-3.611463785171509,-4.131932735443115
1663861886191736300,11.377736328125,-8.022346496582031,-3.865440607070923,-4.107396602630615
1663861886201624000,11.3876240234375,-7.913045406341553,-4.11285400390625,-4.079034805297852
1663861886211511800,11.39751171875,-7.796542167663574,-4.356250762939453,-4.050604343414307
1663861886221399300,11.4073994140625,-7.671890735626221,-4.598636150360107,-4.020576000213623
1663861886231256600,11.417256591796875,-7.5400776863098145,-4.841060161590576,-3.9851903915405273
1663861886241113900,11.42711376953125,-7.399355888366699,-5.085297584533691,-3.9445743560791016
1663861886251001300,11.43700146484375,-7.2464752197265625,-5.33171272277832,-3.9027981758117676
1663861886260889000,11.44688916015625,-7.082504749298096,-5.57696533203125,-3.860825300216675
1663861886270776800,11.45677685546875,-6.91081428527832,-5.816883087158203,-3.8177106380462646
1663861886280634000,11.466634033203125,-6.736086845397949,-6.046487808227539,-3.7729954719543457
1663861886290521600,11.476521484375,-6.55817174911499,-6.266040802001953,-3.7279350757598877
1663861886300409300,11.486409423828125,-6.374610424041748,-6.477654933929443,-3.684386730194092
1663861886310297000,11.496297119140625,-6.183457851409912,-6.683166980743408,-3.642871379852295
1663861886320184800,11.506184814453125,-5.983570098876953,-6.885261058807373,-3.600062131881714
1663861886330072600,11.516072509765625,-5.7736897468566895,-7.0858354568481445,-3.553285598754883
1663861886339960300,11.525960205078125,-5.554074764251709,-7.284192085266113,-3.501884937286377
1663861886349847800,11.535847900390625,-5.3232293128967285,-7.4798583984375,-3.447511672973633
1663861886359735600,11.545735595703125,-5.0788445472717285,-7.673193454742432,-3.3908445835113525
1663861886369623300,11.555623291015625,-4.820831298828125,-7.864557266235352,-3.3284714221954346
1663861886379511000,11.565510986328125,-4.550349235534668,-8.052912712097168,-3.2581138610839844
1663861886389398800,11.575398681640625,-4.2698845863342285,-8.236469268798828,-3.177899122238159
1663861886399255800,11.585255859375,-3.9834487438201904,-8.412278175354004,-3.0880584716796875
1663861886409143600,11.5951435546875,-3.6937272548675537,-8.576443672180176,-2.9952239990234375
1663861886419031300,11.60503125,-3.4085817337036133,-8.724942207336426,-2.9029901027679443
1663861886428919000,11.6149189453125,-3.133228302001953,-8.858491897583008,-2.807201862335205
1663861886438776000,11.624776123046875,-2.8704192638397217,-8.978745460510254,-2.7042973041534424
1663861886448633300,11.63463330078125,-2.6207404136657715,-9.086869239807129,-2.5943994522094727
1663861886458551600,11.644551513671875,-2.382486581802368,-9.183527946472168,-2.4813239574432373
1663861886468439300,11.654439208984375,-2.156365156173706,-9.26809310913086,-2.371270179748535
1663861886478326800,11.664326904296875,-1.9410063028335571,-9.34165096282959,-2.266366958618164
1663861886488184000,11.67418408203125,-1.7366359233856201,-9.404993057250977,-2.168083667755127
1663861886498071800,11.68407177734375,-1.5402278900146484,-9.458939552307129,-2.08003306388855
1663861886507959600,11.69395947265625,-1.3547403812408447,-9.503259658813477,-2.0057711601257324
1663861886517847000,11.703846923828126,-1.182491421699524,-9.538957595825195,-1.9443227052688599
1663861886527704300,11.713704345703125,-1.0237829685211182,-9.567512512207031,-1.8934000730514526
1663861886537622500,11.72362255859375,-0.875947892665863,-9.590502738952637,-1.8507781028747559
1663861886547510300,11.73351025390625,-0.7425383925437927,-9.60789680480957,-1.8186094760894775
1663861886557367600,11.743367431640625,-0.6288857460021973,-9.619458198547363,-1.8002568483352661
1663861886567255000,11.753255126953125,-0.5371043086051941,-9.625892639160156,-1.7955762147903442
1663861886577142800,11.763142822265625,-0.4643053710460663,-9.628744125366211,-1.8005815744400024
1663861886587000000,11.773,-0.4047495722770691,-9.629907608032227,-1.8087142705917358
1663861886596887800,11.7828876953125,-0.35395562648773193,-9.630577087402344,-1.8157867193222046
1663861886606775300,11.792775390625,-0.31400519609451294,-9.631123542785645,-1.82023286819458
1663861886616663000,11.8026630859375,-0.2884681820869446,-9.6314115524292,-1.8229304552078247
1663861886626520300,11.812520263671875,-0.2782839238643646,-9.6309175491333,-1.8271183967590332
1663861886636438500,11.8224384765625,-0.282426118850708,-9.629190444946289,-1.835571050643921
1663861886646326300,11.832326171875,-0.2969950735569,-9.626439094543457,-1.8476637601852417
1663861886656213800,11.8422138671875,-0.3146812915802002,-9.623173713684082,-1.8616881370544434
1663861886666071000,11.852071044921875,-0.32900407910346985,-9.619819641113281,-1.8764896392822266
1663861886675958800,11.861958740234375,-0.3393417000770569,-9.616593360900879,-1.8911269903182983
1663861886685846500,11.871846435546875,-0.3464564085006714,-9.613654136657715,-1.9047327041625977
1663861886695734000,11.881734130859375,-0.35067102313041687,-9.611152648925781,-1.9165468215942383
1663861886705591300,11.89159130859375,-0.35161322355270386,-9.609292030334473,-1.9256864786148071
1663861886715509500,11.901509521484375,-0.3489210903644562,-9.608253479003906,-1.9313507080078125
1663861886725397200,11.911397216796875,-0.3436058461666107,-9.608160018920898,-1.9327620267868042
1663861886735254300,11.921254150390626,-0.3358418643474579,-9.608988761901855,-1.9300068616867065
1663861886745142000,11.93114208984375,-0.324480801820755,-9.61067008972168,-1.923572063446045
1663861886754999300,11.940999267578125,-0.3099338114261627,-9.61305046081543,-1.9140517711639404
1663861886764917500,11.95091748046875,-0.2942313253879547,-9.615897178649902,-1.9021881818771362
1663861886774805200,11.96080517578125,-0.27979931235313416,-9.618817329406738,-1.8895633220672607
1663861886784693000,11.97069287109375,-0.26789963245391846,-9.62143325805664,-1.8779349327087402
1663861886794580500,11.98058056640625,-0.2588850259780884,-9.623536109924316,-1.8683964014053345
1663861886804468200,11.99046826171875,-0.2527356445789337,-9.624998092651367,-1.861701250076294
1663861886814356000,12.00035595703125,-0.25037601590156555,-9.625646591186523,-1.8586583137512207
1663861886824243700,12.01024365234375,-0.2524108290672302,-9.625333786010742,-1.8600040674209595
1663861886834100700,12.020100830078125,-0.260256290435791,-9.624096870422363,-1.8653196096420288
1663861886843988500,12.029988525390625,-0.2759091556072235,-9.6220064163208,-1.8738337755203247
1663861886853876200,12.039876220703125,-0.29998546838760376,-9.6190185546875,-1.8854390382766724
1663861886863764000,12.049763916015625,-0.33393964171409607,-9.614889144897461,-1.9007306098937988
1663861886873651700,12.059651611328125,-0.37843212485313416,-9.60908317565918,-1.921638011932373
1663861886883539200,12.069539306640625,-0.4326348602771759,-9.601190567016602,-1.9494481086730957
1663861886893427000,12.079427001953125,-0.49472349882125854,-9.590962409973145,-1.9847064018249512
1663861886903284200,12.0892841796875,-0.563484787940979,-9.578306198120117,-2.0270469188690186
1663861886913172000,12.099171875,-0.6402946710586548,-9.563061714172363,-2.0756332874298096
1663861886923059500,12.1090595703125,-0.7278775572776794,-9.545003890991211,-2.1291937828063965
1663861886932947200,12.118947265625,-0.8295699954032898,-9.523489952087402,-2.1875431537628174
1663861886942804500,12.128804443359375,-0.9482623338699341,-9.497693061828613,-2.2505621910095215
1663861886952692200,12.138692138671875,-1.0870732069015503,-9.466283798217773,-2.3190815448760986
1663861886962549200,12.14854931640625,-1.2449289560317993,-9.4281644821167,-2.3937923908233643
1663861886972467500,12.158467529296875,-1.4226235151290894,-9.381867408752441,-2.47529673576355
1663861886982355200,12.168355224609375,-1.6196579933166504,-9.326576232910156,-2.5616507530212402
1663861886992212500,12.17821240234375,-1.8380074501037598,-9.261053085327148,-2.6504740715026855
1663861887002100000,12.188099853515626,-2.0783419609069824,-9.183188438415527,-2.7422492504119873
1663861887011987700,12.19798779296875,-2.3330137729644775,-9.092693328857422,-2.837315797805786
1663861887021875500,12.20787548828125,-2.592855453491211,-8.9909086227417,-2.9344611167907715
1663861887031732700,12.217732666015625,-2.847383499145508,-8.88113784790039,-3.031202793121338
1663861887041620500,12.227620361328125,-3.0887720584869385,-8.768117904663086,-3.1224963665008545
1663861887051538700,12.23753857421875,-3.3112597465515137,-8.658281326293945,-3.2000179290771484
1663861887061395700,12.247395751953125,-3.511061191558838,-8.556910514831543,-3.25915789604187
1663861887071283500,12.257283447265625,-3.694796323776245,-8.461858749389648,-3.303908586502075
1663861887081140700,12.267140625,-3.87143874168396,-8.36703872680664,-3.3429036140441895
1663861887091059000,12.277058837890625,-4.058523654937744,-8.26089859008789,-3.384721040725708
1663861887100916000,12.286916015625,-4.264626502990723,-8.137650489807129,-3.4295763969421387
1663861887110803700,12.2968037109375,-4.4816412925720215,-8.000901222229004,-3.474313497543335
1663861887120691500,12.30669140625,-4.68736457824707,-7.862658500671387,-3.5181803703308105
1663861887130579200,12.3165791015625,-4.87194299697876,-7.7301788330078125,-3.560744285583496
1663861887140466700,12.326466796875,-5.043375492095947,-7.60031270980835,-3.601389169692993
1663861887150354400,12.3363544921875,-5.2138285636901855,-7.465022087097168,-3.641403913497925
1663861887160242200,12.3462421875,-5.390843391418457,-7.317754745483398,-3.682343006134033
1663861887170130000,12.3561298828125,-5.5738983154296875,-7.156830787658691,-3.7258317470550537
1663861887179987000,12.365987060546875,-5.752996921539307,-6.985768795013428,-3.777888536453247
1663861887189874700,12.375874755859375,-5.919503211975098,-6.807529926300049,-3.8454389572143555
1663861887199762400,12.385762451171875,-6.075702667236328,-6.6231865882873535,-3.922961950302124
1663861887209650200,12.395650146484375,-6.229422092437744,-6.424622058868408,-4.0111002922058105
1663861887219538000,12.405537841796875,-6.382967472076416,-6.206795692443848,-4.111423969268799
1663861887229425400,12.41542529296875,-6.534646987915039,-5.9741411209106445,-4.2164459228515625
1663861887239313200,12.425313232421875,-6.682650089263916,-5.72975492477417,-4.322323322296143
1663861887249201000,12.435200927734375,-6.826075553894043,-5.476067543029785,-4.42580509185791
1663861887259088600,12.445088623046875,-6.964667320251465,-5.218541145324707,-4.520023345947266
1663861887268976400,12.454976318359375,-7.098401069641113,-4.960452079772949,-4.601847171783447
1663861887278864100,12.464864013671875,-7.228896617889404,-4.704044342041016,-4.667484283447266
1663861887288751600,12.474751708984375,-7.36049747467041,-4.449280738830566,-4.711407661437988
1663861887298639400,12.484639404296875,-7.489828109741211,-4.194211959838867,-4.74146032333374
1663861887308527000,12.494527099609375,-7.610950469970703,-3.934948444366455,-4.770742893218994
1663861887318384400,12.50438427734375,-7.73013973236084,-3.666780710220337,-4.792706489562988
1663861887328272000,12.51427197265625,-7.853092670440674,-3.388780117034912,-4.797445774078369
1663861887338159600,12.52415966796875,-7.970157623291016,-3.1083824634552,-4.794260025024414
1663861887348047400,12.53404736328125,-8.072741508483887,-2.835691213607788,-4.791668891906738
1663861887357935000,12.54393505859375,-8.164769172668457,-2.5742666721343994,-4.783310413360596
1663861887367822800,12.55382275390625,-8.250069618225098,-2.3212809562683105,-4.766381740570068
1663861887377680000,12.563679931640625,-8.330205917358398,-2.075612783432007,-4.740241527557373
1663861887387567600,12.573567626953125,-8.40457534790039,-1.8326096534729004,-4.709039211273193
1663861887397455400,12.583455322265625,-8.472707748413086,-1.5859301090240479,-4.676370143890381
1663861887407343000,12.593343017578125,-8.540215492248535,-1.3257297277450562,-4.6343865394592285
1663861887417230600,12.603230712890625,-8.595346450805664,-1.0589876174926758,-4.6009721755981445
1663861887427118300,12.613118408203125,-8.634516716003418,-0.797458291053772,-4.580345630645752
1663861887437006000,12.623006103515625,-8.667116165161133,-0.5450249314308167,-4.555702209472656
1663861887446863400,12.63286328125,-8.692623138427734,-0.3094136118888855,-4.529123306274414
1663861887456750800,12.642750732421876,-8.705283164978027,-0.09498603641986847,-4.514357089996338
1663861887466638600,12.652638671875,-8.708573341369629,0.10445787012577057,-4.507795333862305
1663861887476526300,12.6625263671875,-8.708392143249512,0.2968619763851166,-4.499573707580566
1663861887486414000,12.6724140625,-8.70511245727539,0.48541778326034546,-4.489519119262695
1663861887496301800,12.6823017578125,-8.698025703430176,0.6717338562011719,-4.479231834411621
1663861887506189600,12.692189453125,-8.685141563415527,0.8538438081741333,-4.473214149475098
1663861887516046600,12.702046630859375,-8.67051887512207,1.02834951877594,-4.464861869812012
1663861887525934300,12.711934326171875,-8.658576965332031,1.1874483823776245,-4.448529243469238
1663861887535791600,12.72179150390625,-8.646638870239258,1.3280243873596191,-4.431971073150635
1663861887545679000,12.73167919921875,-8.633207321166992,1.4557334184646606,-4.418027400970459
1663861887555566800,12.74156689453125,-8.620482444763184,1.5730551481246948,-4.402632713317871
1663861887565454600,12.75145458984375,-8.608510971069336,1.6785964965820312,-4.387052536010742
1663861887575312000,12.761311767578125,-8.59750747680664,1.7722890377044678,-4.3717570304870605
1663861887585199400,12.771199462890625,-8.588373184204102,1.8527010679244995,-4.3563432693481445
