time,seconds_elapsed,z,y,x
1663861875073297200,0.259297119140625,-0.30078125,-0.2532958984375,-0.06121826171875
1663861875083184600,0.2691845703125,-0.405181884765625,-0.50469970703125,0.1507720947265625
1663861875093102800,0.279102783203125,-0.5351409912109375,-0.6453094482421875,0.2881927490234375
1663861875102990600,0.288990478515625,-0.62249755859375,-0.560089111328125,0.3734130859375
1663861875112878300,0.29887841796875,-0.68109130859375,-0.273529052734375,0.4011077880859375
1663861875122766000,0.30876611328125,-0.7290191650390625,-0.010406494140625,0.3542327880859375
1663861875132623000,0.318623046875,-0.7428741455078125,0.137664794921875,0.2562255859375
1663861875142480400,0.32848046875,-0.714111328125,0.1642913818359375,0.1507720947265625
1663861875152368000,0.3383681640625,-0.55218505859375,0.00238037109375,0.0580902099609375
1663861875162225200,0.34822509765625,-0.346588134765625,-0.25115966796875,0.0101470947265625
1663861875172113000,0.35811279296875,-0.1974639892578125,-0.4248046875,0.005889892578125
1663861875182031000,0.368031005859375,-0.118621826171875,-0.571807861328125,0.0186767578125
1663861875191888400,0.377888427734375,-0.1015777587890625,-0.627197265625,0.083648681640625
1663861875201776000,0.387776123046875,-0.14312744140625,-0.5515594482421875,0.189117431640625
1663861875211664000,0.397663818359375,-0.2347412109375,-0.42266845703125,0.2860565185546875
1663861875221521000,0.40752099609375,-0.359375,-0.34063720703125,0.3499755859375
1663861875231408600,0.41740869140625,-0.4797515869140625,-0.296966552734375,0.348907470703125
1663861875241326800,0.427326904296875,-0.5234222412109375,-0.4610137939453125,0.28179931640625
1663861875251214600,0.437214599609375,-0.438201904296875,-0.776336669921875,0.2445068359375
1663861875261071600,0.447071533203125,-0.266693115234375,-0.92547607421875,0.30523681640625
1663861875270959400,0.45695947265625,-0.08453369140625,-0.9297332763671875,0.4202728271484375
1663861875280847000,0.46684716796875,0.0614013671875,-0.774200439453125,0.5023040771484375
1663861875290734800,0.47673486328125,0.1487579345703125,-0.538787841796875,0.498046875
1663861875300622600,0.48662255859375,0.16259765625,-0.38751220703125,0.430938720703125
1663861875310510000,0.496510009765625,0.1199951171875,-0.36407470703125,0.360626220703125
1663861875320397800,0.506397705078125,0.0699310302734375,-0.3811187744140625,0.3616943359375
1663861875330285600,0.51628564453125,0.029449462890625,-0.4397125244140625,0.475677490234375
1663861875340173300,0.52617333984375,-0.0259552001953125,-0.637847900390625,0.6578369140625
1663861875350061000,0.53606103515625,-0.1282196044921875,-0.88818359375,0.8655548095703125
1663861875359918000,0.54591796875,-0.270965576171875,-1.0415802001953125,1.0615692138671875
1663861875369805800,0.555805908203125,-0.40625,-1.10443115234375,1.1542510986328125
1663861875379693600,0.565693603515625,-0.43927001953125,-1.039459228515625,1.10418701171875
1663861875389581300,0.575581298828125,-0.3551177978515625,-0.86688232421875,0.931610107421875
1663861875399469000,0.585468994140625,-0.1729583740234375,-0.557952880859375,0.7324066162109375
1663861875409356500,0.5953564453125,-0.016357421875,-0.3140106201171875,0.510833740234375
1663861875419244300,0.605244384765625,0.0230560302734375,-0.20855712890625,0.2977752685546875
1663861875429132000,0.615132080078125,0.0145263671875,-0.1659393310546875,0.1976470947265625
1663861875439019800,0.625019775390625,-0.0121002197265625,-0.1883087158203125,0.2050933837890625
1663861875448907500,0.634907470703125,-0.0717620849609375,-0.2223968505859375,0.243438720703125
1663861875458764500,0.6447646484375,-0.132476806640625,-0.226654052734375,0.1944427490234375
1663861875468652300,0.65465234375,-0.1175689697265625,-0.195770263671875,0.061279296875
1663861875478540000,0.6645400390625,-0.0366058349609375,-0.1861724853515625,-0.1006317138671875
1663861875488427800,0.674427734375,0.0645904541015625,-0.2256011962890625,-0.18798828125
1663861875498315300,0.684315185546875,0.154083251953125,-0.26287841796875,-0.093170166015625
1663861875508203000,0.694203125,0.1807098388671875,-0.34063720703125,0.1134796142578125
1663861875518060300,0.704060302734375,0.1583404541015625,-0.4876556396484375,0.30523681640625
1663861875527948000,0.713947998046875,0.1434326171875,-0.5547637939453125,0.3755340576171875
1663861875537835500,0.72383544921875,0.1498260498046875,-0.503631591796875,0.2977752685546875
1663861875547723300,0.73372314453125,0.17431640625,-0.3917694091796875,0.12945556640625
1663861875557611000,0.743611083984375,0.196685791015625,-0.3363800048828125,-0.0431060791015625
1663861875567498800,0.753498779296875,0.2243804931640625,-0.3683319091796875,-0.130462646484375
1663861875577386500,0.763386474609375,0.26593017578125,-0.4439697265625,-0.118743896484375
1663861875587243500,0.773243408203125,0.2978973388671875,-0.5526275634765625,-0.0207366943359375
1663861875597131300,0.78313134765625,0.325592041015625,-0.6474456787109375,0.1614227294921875
1663861875607019000,0.79301904296875,0.3096160888671875,-0.64105224609375,0.325469970703125
1663861875616906800,0.80290673828125,0.2371673583984375,-0.637847900390625,0.3883209228515625
1663861875626794500,0.81279443359375,0.1785736083984375,-0.684722900390625,0.35955810546875
1663861875636682000,0.822681884765625,0.1604766845703125,-0.69537353515625,0.2881927490234375
1663861875646539300,0.832539306640625,0.220123291015625,-0.7465057373046875,0.2647552490234375
1663861875656427000,0.842427001953125,0.3618011474609375,-0.9275970458984375,0.3531646728515625
1663861875666314800,0.852314697265625,0.5258636474609375,-1.1704864501953125,0.5576934814453125
1663861875676202200,0.8622021484375,0.7080230712890625,-1.4080352783203125,0.81549072265625
1663861875686090000,0.872090087890625,0.8837890625,-1.5561065673828125,1.0061798095703125
1663861875695977700,0.881977783203125,0.995635986328125,-1.662628173828125,1.03173828125
1663861875705865500,0.891865478515625,1.1053619384765625,-1.9321441650390625,0.886871337890625
1663861875715722500,0.901722412109375,1.30242919921875,-2.4669036865234375,0.6844635009765625
1663861875725610200,0.9116103515625,1.45477294921875,-3.100738525390625,0.5033721923828125
1663861875735514000,0.92151416015625,1.3993682861328125,-3.38623046875,0.3787384033203125
1663861875745371400,0.931371337890625,1.1959075927734375,-3.1284332275390625,0.3297271728515625
1663861875755228400,0.941228515625,1.112823486328125,-2.7683868408203125,0.414947509765625
1663861875765146600,0.951146728515625,1.4451751708984375,-2.7300262451171875,0.6951141357421875
1663861875775034400,0.961034423828125,2.1631622314453125,-2.9121856689453125,1.171295166015625
1663861875784922000,0.970922119140625,2.86944580078125,-3.147613525390625,1.8147125244140625
1663861875794809900,0.980809814453125,3.2380218505859375,-3.3319091796875,2.5007476806640625
1663861875804697600,0.990697509765625,3.3157806396484375,-3.71966552734375,3.1271209716796875
1663861875814585000,1.000585205078125,3.187957763671875,-4.7188720703125,3.6245880126953125
1663861875824472800,1.010472900390625,2.7693023681640625,-6.133544921875,3.825927734375
1663861875834360600,1.020360595703125,2.2707672119140625,-7.198822021484375,3.7087554931640625
1663861875844217900,1.0302177734375,2.287811279296875,-7.5439605712890625,3.4818572998046875
1663861875854105300,1.040105224609375,2.9727630615234375,-7.1796417236328125,3.3103485107421875
1663861875863993000,1.0499931640625,3.9815826416015625,-6.1782989501953125,3.1249847412109375
1663861875873880800,1.059880859375,4.950958251953125,-4.7636260986328125,2.7926177978515625
1663861875883768600,1.0697685546875,5.707305908203125,-3.4970245361328125,2.355865478515625
1663861875893625600,1.07962548828125,6.092926025390625,-2.6831512451171875,1.9521331787109375
1663861875903483000,1.08948291015625,6.117431640625,-2.451995849609375,1.68475341796875
1663861875913370600,1.09937060546875,5.9618988037109375,-2.576629638671875,1.5494537353515625
1663861875923258400,1.10925830078125,5.818084716796875,-2.7992706298828125,1.4834136962890625
1663861875933145900,1.119145751953125,5.6987762451171875,-2.9942169189453125,1.4812774658203125
1663861875943033600,1.12903369140625,5.6146240234375,-2.954803466796875,1.53240966796875
1663861875952921300,1.13892138671875,5.5389862060546875,-2.4828948974609375,1.605926513671875
1663861875962809000,1.14880908203125,5.3791961669921875,-1.7382659912109375,1.6442718505859375
1663861875972696800,1.15869677734375,5.1512298583984375,-1.0650177001953125,1.648529052734375
1663861875982584300,1.168584228515625,4.9499053955078125,-0.6698150634765625,1.68048095703125
1663861875992441600,1.178441650390625,4.72833251953125,-0.5962982177734375,1.7561187744140625
1663861876002299000,1.188298828125,4.4364471435546875,-0.616546630859375,1.84027099609375
1663861876012186400,1.198186279296875,4.0721282958984375,-0.5377197265625,1.899932861328125
1663861876022074000,1.20807421875,3.62152099609375,-0.4173431396484375,1.87969970703125
1663861876031961900,1.2179619140625,3.150665283203125,-0.3385162353515625,1.726287841796875
1663861876041849600,1.227849609375,2.6904754638671875,-0.33319091796875,1.48980712890625
1663861876051737300,1.2377373046875,2.2100372314453125,-0.2362518310546875,1.3140411376953125
1663861876061625000,1.247625,1.7764739990234375,0.000244140625,1.2543792724609375
1663861876071482000,1.257482177734375,1.350372314453125,0.3698883056640625,1.2682342529296875
1663861876081400300,1.267400390625,0.8720703125,0.8013153076171875,1.246917724609375
1663861876091257600,1.277257568359375,0.40228271484375,1.1134490966796875,1.114837646484375
1663861876101145300,1.287145263671875,-0.0142364501953125,1.1933441162109375,0.8879241943359375
1663861876111032800,1.29703271484375,-0.3561859130859375,1.1794891357421875,0.6035003662109375
1663861876120920600,1.306920654296875,-0.613983154296875,1.164581298828125,0.3382568359375
1663861876130808300,1.316808349609375,-0.8344879150390625,1.0452728271484375,0.1933746337890625
1663861876140696000,1.326696044921875,-1.0145111083984375,0.7107696533203125,0.201904296875
1663861876150583800,1.336583740234375,-1.114654541015625,0.2133026123046875,0.315887451171875
1663861876160471300,1.34647119140625,-1.0858917236328125,-0.2458343505859375,0.3382568359375
1663861876170359000,1.356359130859375,-0.8696441650390625,-0.458892822265625,0.130523681640625
1663861876180246800,1.366246826171875,-0.4936065673828125,-0.367279052734375,-0.2295379638671875
1663861876190134500,1.376134521484375,-0.087738037109375,-0.1595458984375,-0.504364013671875
1663861876200022300,1.386022216796875,0.2169342041015625,-0.2000274658203125,-0.506500244140625
1663861876209879300,1.39587939453125,0.3511505126953125,-0.7134857177734375,-0.31475830078125
1663861876219767000,1.40576708984375,0.3969573974609375,-1.4091033935546875,-0.0324554443359375
1663861876229624300,1.415624267578125,0.506683349609375,-1.690338134765625,-0.1911773681640625
1663861876239511800,1.42551171875,0.8134765625,-1.7073822021484375,-0.7919921875
1663861876249369000,1.435369140625,1.2640838623046875,-1.7606353759765625,-1.3544464111328125
1663861876259256800,1.4452568359375,1.818023681640625,-1.4176177978515625,-1.40557861328125
1663861876269175000,1.455175048828125,2.03533935546875,-0.49298095703125,-0.9315338134765625
1663861876279032000,1.465031982421875,2.2366790771484375,-0.28631591796875,-0.962432861328125
1663861876288919800,1.474919921875,2.1216278076171875,-0.5622100830078125,-0.0313873291015625
1663861876298807600,1.4848076171875,0.86993408203125,-1.4336090087890625,0.9603729248046875
1663861876308695300,1.4946953125,0.5354461669921875,-2.0908660888671875,1.5526580810546875
1663861876318583000,1.5045830078125,0.6249237060546875,-1.481536865234375,1.636810302734375
1663861876328470800,1.514470703125,0.85076904296875,-0.5643463134765625,0.2679443359375
1663861876338358300,1.524358154296875,1.0552978515625,0.1483154296875,-0.6439208984375
1663861876348246000,1.53424609375,0.9104156494140625,0.4742889404296875,-0.6694793701171875
1663861876358133800,1.5441337890625,0.7783203125,0.43060302734375,-0.6865234375
1663861876368021500,1.554021484375,0.7729949951171875,0.2196807861328125,-0.5022430419921875
1663861876377909200,1.5639091796875,0.8880462646484375,0.0854644775390625,-0.2167510986328125
1663861876387796700,1.573796630859375,1.348236083984375,-0.0977630615234375,-0.165618896484375
1663861876397654000,1.583654052734375,1.6156158447265625,-0.3278656005859375,-0.0676116943359375
1663861876407511300,1.59351123046875,1.3226776123046875,-0.720947265625,0.029327392578125
1663861876417398800,1.603398681640625,1.324798583984375,-1.6349334716796875,0.198699951171875
1663861876427286500,1.61328662109375,1.8936614990234375,-1.7926025390625,0.380859375
1663861876437174300,1.62317431640625,2.6127166748046875,-0.8828582763671875,0.4810028076171875
1663861876447062000,1.63306201171875,3.2294921875,-0.102020263671875,0.654632568359375
1663861876456949800,1.64294970703125,3.5000762939453125,-0.3544921875,0.978485107421875
1663861876466837200,1.652837158203125,3.127227783203125,-1.0341339111328125,1.2107086181640625
1663861876476725000,1.66272509765625,2.21429443359375,-2.1239013671875,1.0519866943359375
1663861876486612700,1.67261279296875,1.3514404296875,-2.8770294189453125,0.78460693359375
1663861876496500500,1.68250048828125,1.1074981689453125,-2.940948486328125,0.864501953125
1663861876506388200,1.69238818359375,1.2619476318359375,-2.3422698974609375,1.1776885986328125
1663861876516276000,1.70227587890625,1.660369873046875,-1.277008056640625,0.988067626953125
1663861876526163500,1.71216357421875,1.740264892578125,-1.2152252197265625,0.9380035400390625
1663861876536051200,1.72205126953125,1.690185546875,-1.324951171875,1.13507080078125
1663861876545908500,1.731908447265625,2.2430572509765625,-1.037322998046875,1.3832855224609375
1663861876555796200,1.741796142578125,2.8982086181640625,-1.218414306640625,1.615509033203125
1663861876565683700,1.75168359375,2.294189453125,-2.0823516845703125,1.2682342529296875
1663861876575571500,1.761571533203125,0.7080230712890625,-1.6615753173828125,0.9039154052734375
1663861876585459200,1.771459228515625,-0.40838623046875,-0.5089569091796875,0.372344970703125
1663861876595347000,1.781346923828125,-0.2965240478515625,0.84393310546875,-0.4990386962890625
1663861876605234700,1.791234619140625,-0.1495208740234375,2.083892822265625,-1.067901611328125
1663861876615091700,1.801091796875,-0.202789306640625,2.6740570068359375,-1.3097076416015625
1663861876624979500,1.8109794921875,-0.22088623046875,2.6953582763671875,-1.4130401611328125
1663861876634867200,1.8208671875,-0.186798095703125,2.3065338134765625,-1.4801483154296875
1663861876644755000,1.8307548828125,0.0198516845703125,1.6460723876953125,-1.3001251220703125
1663861876654642400,1.840642333984375,0.3106689453125,0.981353759765625,-0.6811981201171875
1663861876664530200,1.8505302734375,0.5130767822265625,0.3837432861328125,-0.05908203125
1663861876674418000,1.86041796875,0.699493408203125,-0.412017822265625,0.290313720703125
1663861876684275200,1.870275146484375,0.9093475341796875,-1.2056427001953125,0.5640869140625
1663861876694162700,1.88016259765625,1.0254669189453125,-1.732940673828125,0.8655548095703125
1663861876704050400,1.890050537109375,1.11175537109375,-2.16650390625,1.032806396484375
1663861876713938200,1.899938232421875,1.25982666015625,-2.6394805908203125,0.8250732421875
1663861876723826000,1.909825927734375,1.5357208251953125,-2.336944580078125,0.5736846923828125
1663861876733713700,1.919713623046875,1.91070556640625,-1.941741943359375,0.3297271728515625
1663861876743570700,1.92957080078125,2.147186279296875,-1.573150634765625,0.3297271728515625
1663861876753458400,1.93945849609375,2.2111053466796875,-1.037322998046875,0.7441253662109375
1663861876763346200,1.94934619140625,2.352783203125,-0.990447998046875,1.1798095703125
1663861876773234000,1.95923388671875,2.492340087890625,-1.858642578125,1.8147125244140625
1663861876783121700,1.96912158203125,2.5391998291015625,-3.7345733642578125,2.63922119140625
1663861876793009200,1.979009033203125,2.3943328857421875,-5.1492462158203125,3.077056884765625
1663861876802866400,1.988866455078125,2.115234375,-4.25335693359375,2.536956787109375
1663861876812754200,1.998754150390625,1.9618377685546875,-2.1057891845703125,1.85626220703125
1663861876822642000,2.008641845703125,1.8031158447265625,-0.8722076416015625,1.498321533203125
1663861876832529400,2.018529296875,1.7647552490234375,-0.90203857421875,1.3928680419921875
1663861876842417200,2.028417236328125,1.7541046142578125,-1.392059326171875,1.3896636962890625
1663861876852305000,2.038304931640625,1.6944580078125,-1.779815673828125,1.2554473876953125
1663861876862192600,2.048192626953125,1.404693603515625,-1.800048828125,0.69085693359375
1663861876872049700,2.058049560546875,0.9327850341796875,-1.998199462890625,0.0421142578125
1663861876881937400,2.0679375,0.6717987060546875,-2.4935455322265625,-0.03778076171875
1663861876891794700,2.077794677734375,0.7080230712890625,-2.9228363037109375,0.3201446533203125
1663861876901682400,2.087682373046875,0.7058868408203125,-2.7417449951171875,0.6844635009765625
1663861876911570000,2.09756982421875,0.6963043212890625,-2.2304229736328125,0.9593048095703125
1663861876921457700,2.107457763671875,0.7538299560546875,-1.48046875,0.829345703125
1663861876931345400,2.117345458984375,0.6494293212890625,-0.842376708984375,0.4085693359375
1663861876941233200,2.127233154296875,0.4108123779296875,-0.709228515625,0.0442352294921875
1663861876951090200,2.137090087890625,0.29150390625,-1.025604248046875,-0.1357879638671875
1663861876960978000,2.14697802734375,0.290435791015625,-1.2493133544921875,-0.2774658203125
1663861876970835200,2.156835205078125,0.210540771484375,-1.2237396240234375,-0.4447174072265625
1663861876980753400,2.16675341796875,0.189239501953125,-1.4442596435546875,-0.4436492919921875
1663861876990610400,2.1766103515625,0.4747314453125,-1.918304443359375,-0.2156829833984375
1663861877000498200,2.186498291015625,0.868865966796875,-1.7371978759765625,-0.01861572265625
1663861877010386000,2.196385986328125,0.941314697265625,-0.5611572265625,-0.00262451171875
1663861877020243200,2.2062431640625,0.8560943603515625,0.7565765380859375,-0.0399169921875
1663861877030161400,2.216161376953125,0.75701904296875,2.0476837158203125,-0.2625579833984375
1663861877040049200,2.226049072265625,0.5578155517578125,2.499359130859375,-0.51715087890625
1663861877049936600,2.2359365234375,0.2478179931640625,1.9922943115234375,-0.6673583984375
1663861877059824400,2.245824462890625,0.1018829345703125,0.7246246337890625,-0.6268768310546875
1663861877069681700,2.255681640625,0.5375823974609375,-1.0426483154296875,-0.2817230224609375
1663861877079569400,2.2655693359375,1.6060333251953125,-2.0226898193359375,0.2445068359375
1663861877089457000,2.275456787109375,2.821502685546875,-1.3739471435546875,0.6386566162109375
1663861877099344600,2.2853447265625,3.76959228515625,-0.139312744140625,0.8485107421875
1663861877109232400,2.295232421875,4.236175537109375,1.265777587890625,0.7654266357421875
1663861877119120100,2.3051201171875,4.2297821044921875,2.1041412353515625,0.590728759765625
1663861877129007900,2.3150078125,3.7365570068359375,1.7366180419921875,0.6056365966796875
1663861877138895400,2.324895263671875,2.786346435546875,0.6575164794921875,0.6418609619140625
1663861877148783000,2.334783203125,1.9394683837890625,-0.3054962158203125,0.5736846923828125
1663861877158670800,2.3446708984375,1.27899169921875,-0.8572998046875,0.370208740234375
1663861877168558600,2.35455859375,0.793243408203125,-1.42828369140625,0.2050933837890625
1663861877178446300,2.3644462890625,0.3511505126953125,-2.1366729736328125,0.142242431640625
1663861877188333800,2.374333740234375,-0.15484619140625,-2.5872802734375,0.118804931640625
1663861877198191000,2.384191162109375,-0.44140625,-2.20379638671875,-0.0111541748046875
1663861877208078800,2.394078857421875,-0.4808197021484375,-1.2929840087890625,-0.2657470703125
1663861877217936000,2.403935791015625,-0.4936065673828125,-0.2415771484375,-0.57574462890625
1663861877227823600,2.41382373046875,-0.522369384765625,0.8503265380859375,-0.882537841796875
1663861877237711400,2.42371142578125,-0.6054534912109375,1.6876220703125,-1.1381988525390625
1663861877247568600,2.433568603515625,-0.6970672607421875,2.168060302734375,-1.2532501220703125
1663861877257456400,2.443456298828125,-0.759918212890625,2.396026611328125,-1.26177978515625
1663861877267344000,2.45334375,-0.5692291259765625,1.5651092529296875,-0.4415130615234375
1663861877277231600,2.463231689453125,-0.4232940673828125,0.716094970703125,0.58538818359375
1663861877287119400,2.473119384765625,-0.7641754150390625,0.692657470703125,0.544921875
1663861877296976600,2.4829765625,-0.6523284912109375,0.0641632080078125,0.393646240234375
1663861877306894800,2.492894775390625,0.06353759765625,-0.7837982177734375,0.134796142578125
1663861877316782300,2.5027822265625,0.812408447265625,-1.2024383544921875,-0.539520263671875
1663861877326670000,2.512670166015625,1.0382537841796875,-1.7148284912109375,-1.098785400390625
1663861877336527400,2.52252734375,0.8773956298828125,-1.64239501953125,-1.1872100830078125
1663861877346384400,2.53238427734375,0.6952362060546875,-0.7039031982421875,-0.972015380859375
1663861877356272000,2.542272216796875,0.4885711669921875,0.373077392578125,-0.7717437744140625
1663861877366190300,2.5521904296875,0.436370849609375,1.047393798828125,-0.722747802734375
1663861877376078000,2.562078125,0.539703369140625,1.77923583984375,-0.8697509765625
1663861877385965800,2.5719658203125,0.1839141845703125,3.3899078369140625,-1.3427276611328125
1663861877395822800,2.58182275390625,0.0028076171875,1.195465087890625,-1.535552978515625
1663861877405680000,2.59168017578125,0.438507080078125,0.06842041015625,-1.9275665283203125
1663861877415598300,2.601598388671875,0.82305908203125,0.250579833984375,-2.1320953369140625
1663861877425455600,2.61145556640625,1.06488037109375,0.0716094970703125,-1.921173095703125
1663861877435373800,2.621373779296875,1.45477294921875,-0.6463775634765625,-1.4141082763671875
1663861877445261300,2.63126123046875,1.3461151123046875,-1.8298797607421875,-0.699310302734375
1663861877455149000,2.641149169921875,0.9658050537109375,-2.9036712646484375,-0.0580291748046875
1663861877465036800,2.651036865234375,0.67498779296875,-1.7830047607421875,0.1369171142578125
1663861877474924500,2.660924560546875,0.552490234375,0.490264892578125,0.029327392578125
1663861877484781800,2.67078173828125,0.426788330078125,0.4476470947265625,-0.0228729248046875
1663861877494669300,2.68066943359375,0.2829742431640625,0.0290069580078125,-0.0463104248046875
1663861877504526600,2.690526611328125,0.140228271484375,0.023681640625,-0.1709442138671875
1663861877514414300,2.700414306640625,-0.0493927001953125,0.0598907470703125,-0.2487030029296875
1663861877524302000,2.710302001953125,-0.278411865234375,-0.0072174072265625,-0.16241455078125
1663861877534189600,2.720189453125,-0.4701690673828125,-0.0540924072265625,-0.0452423095703125
1663861877544077300,2.730077392578125,-0.6043853759765625,-0.0413055419921875,-0.0196685791015625
1663861877553965000,2.739965087890625,-0.757781982421875,-0.078582763671875,-0.0463104248046875
1663861877563822300,2.749822265625,-0.952728271484375,-0.1094818115234375,-0.09423828125
1663861877573740500,2.759740478515625,-1.135955810546875,0.043914794921875,-0.2050323486328125
1663861877583628000,2.7696279296875,-1.2222442626953125,0.264434814453125,-0.3520355224609375
1663861877593515800,2.779515869140625,-1.2233123779296875,0.3943939208984375,-0.4894561767578125
1663861877603403500,2.789403564453125,-1.1732330322265625,0.4487152099609375,-0.6162261962890625
1663861877613291300,2.799291259765625,-1.0507354736328125,0.35284423828125,-0.680145263671875
1663861877623179000,2.809178955078125,-0.7748260498046875,0.057769775390625,-0.7760162353515625
1663861877633066500,2.81906640625,-0.177215576171875,-0.275665283203125,-1.029541015625
1663861877642923800,2.828923828125,0.3394317626953125,-0.5025634765625,-1.180816650390625
1663861877652811500,2.8388115234375,0.4779205322265625,-0.5622100830078125,-0.938995361328125
1663861877662699300,2.84869921875,0.20947265625,-0.4088134765625,-0.33819580078125
1663861877672586800,2.858586669921875,-0.2400665283203125,0.023681640625,0.3872528076171875
1663861877682474500,2.868474609375,-0.567108154296875,0.560577392578125,0.9720916748046875
1663861877692346600,2.8783466796875,-0.6171722412109375,0.811981201171875,1.319366455078125
1663861877702234400,2.888234375,-0.5170440673828125,0.716094970703125,1.4631805419921875
1663861877712091600,2.898091552734375,-0.4371490478515625,0.4977264404296875,1.446136474609375
1663861877721979100,2.907979248046875,-0.3998565673828125,0.27294921875,1.27142333984375
1663861877731867000,2.917866943359375,-0.360443115234375,-0.0966949462890625,1.032806396484375
1663861877741754600,2.927754638671875,-0.29119873046875,-0.35662841796875,0.8016510009765625
1663861877751612000,2.93761181640625,-0.2176971435546875,-0.409881591796875,0.5491790771484375
1663861877761499400,2.94749951171875,-0.130340576171875,-0.3694000244140625,0.282867431640625
1663861877771356700,2.957356689453125,-0.031280517578125,-0.3715362548828125,0.0229339599609375
1663861877781214000,2.9672138671875,0.0880279541015625,-0.4397125244140625,-0.20928955078125
1663861877791101400,2.977101318359375,0.1721954345703125,-0.618682861328125,-0.4670867919921875
1663861877800989200,2.9869892578125,0.1103973388671875,-1.0000457763671875,-0.7525787353515625
1663861877810877000,2.996876953125,0.006011962890625,-1.33453369140625,-0.976287841796875
1663861877820764700,3.0067646484375,-0.0376739501953125,-1.359039306640625,-1.009307861328125
1663861877830652400,3.01665234375,-0.016357421875,-1.0671539306640625,-0.80157470703125
1663861877840540200,3.0265400390625,0.0550079345703125,-0.6921844482421875,-0.48626708984375
1663861877850427600,3.036427734375,0.1487579345703125,-0.5760650634765625,-0.26788330078125
1663861877860285000,3.046284912109375,0.23077392578125,-0.732666015625,-0.2710723876953125
1663861877870203100,3.056203125,0.23504638671875,-0.8711395263671875,-0.4766693115234375
1663861877880091000,3.0660908203125,0.1551513671875,-0.7614288330078125,-0.7259521484375
1663861877889978600,3.075978515625,0.0571441650390625,-0.5558319091796875,-0.7983856201171875
1663861877899866000,3.0858662109375,0.0305023193359375,-0.4940338134765625,-0.68865966796875
1663861877909753900,3.09575390625,0.1689910888671875,-0.686859130859375,-0.5810699462890625
1663861877919611100,3.105611083984375,0.321319580078125,-1.0234832763671875,-0.6364593505859375
1663861877929499000,3.115498779296875,0.33624267578125,-1.3089752197265625,-0.919830322265625
1663861877939386400,3.125386474609375,0.3170623779296875,-1.515625,-1.352325439453125
1663861877949274000,3.135274169921875,0.346893310546875,-1.58807373046875,-1.784820556640625
1663861877959161900,3.145161865234375,0.405487060546875,-1.4900665283203125,-2.1310272216796875
1663861877969019100,3.15501904296875,0.4875030517578125,-1.2812652587890625,-2.37603759765625
1663861877978906600,3.16490673828125,0.576995849609375,-1.0415802001953125,-2.523040771484375
1663861877988794400,3.17479443359375,0.6377105712890625,-0.7156219482421875,-2.54754638671875
1663861877998682000,3.18468212890625,0.6856536865234375,-0.238372802734375,-2.44635009765625
1663861878008539400,3.194539306640625,0.699493408203125,0.24951171875,-2.2002716064453125
1663861878018427000,3.204427001953125,0.6707305908203125,0.5286102294921875,-1.9041290283203125
1663861878028314600,3.214314697265625,0.599365234375,0.6319427490234375,-1.7549896240234375
1663861878038202400,3.224202392578125,0.4981536865234375,0.6532440185546875,-1.796539306640625
1663861878048090000,3.234090087890625,0.3660736083984375,0.636199951171875,-1.9477996826171875
1663861878057977900,3.243977783203125,0.241424560546875,0.5850677490234375,-2.10546875
1663861878067835000,3.2538349609375,0.1839141845703125,0.42315673828125,-2.2087860107421875
1663861878077722600,3.26372265625,0.2147979736328125,0.0961151123046875,-2.2886810302734375
1663861878087610400,3.2736103515625,0.2989501953125,-0.238372802734375,-2.311065673828125
1663861878097498000,3.283498046875,0.35540771484375,-0.4194793701171875,-2.2886810302734375
1663861878107385900,3.2933857421875,0.3927001953125,-0.3544921875,-2.287628173828125
1663861878117243000,3.303242919921875,0.4193267822265625,-0.148895263671875,-2.4165191650390625
1663861878127130600,3.313130615234375,0.450225830078125,0.1184844970703125,-2.647674560546875
1663861878137018400,3.323018310546875,0.553558349609375,0.248443603515625,-2.833038330078125
1663861878146906000,3.332906005859375,0.7239990234375,0.217559814453125,-2.94488525390625
1663861878156793600,3.342793701171875,0.89337158203125,0.1131591796875,-3.051422119140625
1663861878166651000,3.35265087890625,1.0712738037109375,-0.071136474609375,-3.1930999755859375
1663861878176538600,3.36253857421875,1.2512969970703125,-0.172332763671875,-3.2484893798828125
1663861878186426400,3.37242626953125,1.383392333984375,-0.1212005615234375,-3.24102783203125
1663861878196313900,3.38231396484375,1.3908538818359375,0.0620269775390625,-3.2357025146484375
1663861878206201600,3.39220166015625,1.317352294921875,0.156829833984375,-3.1568756103515625
1663861878216089300,3.40208935546875,1.33013916015625,0.0481719970703125,-3.12811279296875
1663861878225977000,3.41197705078125,1.41961669921875,-0.137176513671875,-3.1132049560546875
1663861878235864800,3.42186474609375,1.554901123046875,-0.181915283203125,-3.1377105712890625
1663861878245721900,3.431721923828125,1.6742095947265625,-0.125457763671875,-3.176055908203125
1663861878255640000,3.44164013671875,1.7679595947265625,-0.1297149658203125,-3.1568756103515625
1663861878265497300,3.451497314453125,1.84039306640625,-0.0775146484375,-3.2133331298828125
1663861878275385000,3.461385009765625,1.8148345947265625,0.104644775390625,-3.3092041015625
1663861878285272600,3.4712724609375,1.6475830078125,0.180267333984375,-3.371002197265625
1663861878295160300,3.481160400390625,1.44091796875,0.11529541015625,-3.3379669189453125
1663861878305048000,3.491048095703125,1.3013763427734375,-0.00189208984375,-3.2357025146484375
1663861878314905300,3.5009052734375,1.293914794921875,0.21649169921875,-3.29962158203125
1663861878324823600,3.510823486328125,1.3780670166015625,0.5211639404296875,-3.3795166015625
1663861878334711300,3.520711181640625,1.3791351318359375,0.22821044921875,-3.129180908203125
1663861878344598800,3.530598876953125,1.3045654296875,0.1887969970703125,-2.948089599609375
1663861878354486500,3.540486572265625,1.2438507080078125,0.4178314208984375,-2.990692138671875
1663861878364343800,3.55034375,1.2225341796875,0.513702392578125,-2.9885711669921875
1663861878374200800,3.560200927734375,1.2204132080078125,0.487060546875,-2.967254638671875
1663861878384119000,3.570119140625,1.204437255859375,0.468963623046875,-3.006683349609375
1663861878393976300,3.579976318359375,1.143707275390625,0.4636383056640625,-2.9757843017578125
1663861878403894500,3.58989453125,1.062744140625,0.377349853515625,-2.875640869140625
1663861878413782300,3.5997822265625,1.0030975341796875,0.31024169921875,-2.7691192626953125
1663861878423670000,3.609669921875,0.9338531494140625,0.2910614013671875,-2.70733642578125
1663861878433557500,3.6195576171875,0.892303466796875,0.28253173828125,-2.67218017578125
1663861878443445200,3.6294453125,0.8741912841796875,0.27508544921875,-2.58270263671875
1663861878453333000,3.6393330078125,0.8720703125,0.2782745361328125,-2.44635009765625
1663861878463220700,3.649220703125,0.9232025146484375,0.3379364013671875,-2.2929534912109375
1663861878473108500,3.6591083984375,0.950897216796875,0.386932373046875,-2.123565673828125
1663861878482965500,3.668965576171875,0.950897216796875,0.3922576904296875,-1.977630615234375
1663861878492853200,3.678853271484375,0.9199981689453125,0.332611083984375,-1.8370208740234375
1663861878502741000,3.688740966796875,0.8454437255859375,0.2793426513671875,-1.67083740234375
1663861878512628700,3.698628662109375,0.8017578125,0.225006103515625,-1.509979248046875
1663861878522485800,3.70848583984375,0.7303924560546875,0.158966064453125,-1.338470458984375
1663861878532373500,3.71837353515625,0.6494293212890625,0.1280670166015625,-1.16802978515625
1663861878542261200,3.72826123046875,0.58551025390625,0.1206207275390625,-1.028472900390625
1663861878552149000,3.73814892578125,0.505615234375,0.092926025390625,-0.8633575439453125
1663861878562036700,3.74803662109375,0.415069580078125,0.0598907470703125,-0.6822662353515625
1663861878571924200,3.75792431640625,0.3309173583984375,0.046051025390625,-0.529937744140625
1663861878581781500,3.767781494140625,0.243560791015625,0.04498291015625,-0.3648223876953125
1663861878591669200,3.777669189453125,0.1476898193359375,0.011962890625,-0.1815948486328125
1663861878601557000,3.787556884765625,0.0422210693359375,0.00238037109375,-0.0090179443359375
1663861878611444500,3.797444580078125,-0.0696258544921875,-0.00189208984375,0.1731414794921875
1663861878621301800,3.8073017578125,-0.179351806640625,-0.033843994140625,0.348907470703125
1663861878631189500,3.817189453125,-0.2773590087890625,-0.082855224609375,0.533203125
1663861878641077200,3.8270771484375,-0.3668365478515625,-0.139312744140625,0.700439453125
1663861878650934300,3.836934326171875,-0.4467315673828125,-0.193634033203125,0.8485107421875
1663861878660852500,3.8468525390625,-0.5191650390625,-0.2298583984375,0.997650146484375
1663861878670709800,3.856709716796875,-0.586273193359375,-0.275665283203125,1.1531829833984375
1663861878680566800,3.86656689453125,-0.6374053955078125,-0.3235931396484375,1.30657958984375
1663861878690454500,3.87645458984375,-0.6746978759765625,-0.3385162353515625,1.4589080810546875
1663861878700372700,3.886372802734375,-0.726898193359375,-0.3608856201171875,1.6080474853515625
1663861878710230000,3.89622998046875,-0.781219482421875,-0.376861572265625,1.763580322265625
1663861878720117800,3.90611767578125,-0.8323516845703125,-0.4034881591796875,1.9159088134765625
1663861878730005200,3.916005126953125,-0.8920135498046875,-0.412017822265625,2.0522613525390625
1663861878739893000,3.92589306640625,-0.9580535888671875,-0.3949737548828125,2.18328857421875
1663861878749750300,3.935750244140625,-1.02197265625,-0.378997802734375,2.2940826416015625
1663861878759668500,3.94566845703125,-1.06884765625,-0.341705322265625,2.400604248046875
1663861878769556200,3.95555615234375,-1.100799560546875,-0.2927093505859375,2.5124664306640625
1663861878779444000,3.96544384765625,-1.1231689453125,-0.2532958984375,2.6104583740234375
1663861878789331500,3.97533154296875,-1.135955810546875,-0.1861724853515625,2.7052764892578125
1663861878799219200,3.98521923828125,-1.145538330078125,-0.1329193115234375,2.797943115234375
1663861878809107000,3.99510693359375,-1.147674560546875,-0.058349609375,2.8757171630859375
1663861878818964200,4.004964111328125,-1.1402130126953125,0.0396575927734375,2.948150634765625
1663861878828821200,4.0148212890625,-1.122100830078125,0.0982513427734375,3.0131378173828125
1663861878838739500,4.024739501953125,-1.0933380126953125,0.1365966796875,3.072784423828125
1663861878848627200,4.034627197265625,-1.05499267578125,0.1866607666015625,3.14202880859375
1663861878858515000,4.044514892578125,-1.0272979736328125,0.2015838623046875,3.21978759765625
1663861878868372000,4.0543720703125,-0.9953460693359375,0.180267333984375,3.2837066650390625
1663861878878259700,4.064259765625,-0.954864501953125,0.1621551513671875,3.3423004150390625
1663861878888117000,4.074116943359375,-0.9250335693359375,0.161102294921875,3.39129638671875
1663861878898035200,4.08403515625,-0.9015960693359375,0.1621551513671875,3.415802001953125
1663861878907923000,4.0939228515625,-0.87603759765625,0.1014404296875,3.4168701171875
1663861878917810400,4.103810546875,-0.8462066650390625,-0.0274505615234375,3.39556884765625
1663861878927698200,4.1136982421875,-0.814239501953125,-0.1339874267578125,3.4019622802734375
1663861878937586000,4.1235859375,-0.8003997802734375,-0.2234649658203125,3.4562835693359375
1663861878947473700,4.1334736328125,-0.7982635498046875,-0.306549072265625,3.5159454345703125
1663861878957361400,4.143361328125,-0.7993316650390625,-0.318267822265625,3.5819854736328125
1663861878967218400,4.153218505859375,-0.8110504150390625,-0.2330474853515625,3.6490936279296875
1663861878977075700,4.16307568359375,-0.814239501953125,-0.137176513671875,3.6981048583984375
1663861878986994000,4.172993896484375,-0.8110504150390625,-0.0966949462890625,3.7385711669921875
1663861878996851000,4.182850830078125,-0.8014678955078125,-0.10308837890625,3.7524261474609375
1663861879006738700,4.19273876953125,-0.790802001953125,-0.1297149658203125,3.7385711669921875
1663861879016626400,4.20262646484375,-0.7854766845703125,-0.1414337158203125,3.733245849609375
1663861879026514200,4.21251416015625,-0.7971954345703125,-0.1457061767578125,3.72686767578125
1663861879036402000,4.22240185546875,-0.807861328125,-0.1414337158203125,3.692779541015625
1663861879046259000,4.232259033203125,-0.807861328125,-0.139312744140625,3.681060791015625
1663861879056146700,4.242146728515625,-0.825958251953125,-0.146759033203125,3.721527099609375
1663861879066034400,4.252034423828125,-0.872833251953125,-0.1435699462890625,3.7737274169921875
1663861879075922200,4.261922119140625,-0.9261016845703125,-0.151031494140625,3.7982330322265625
1663861879085810000,4.271809814453125,-0.978302001953125,-0.1776580810546875,3.7897186279296875
1663861879095697400,4.281697509765625,-1.032623291015625,-0.2256011962890625,3.7662811279296875
1663861879105585200,4.291585205078125,-1.1274261474609375,-0.2671356201171875,3.780120849609375
1663861879115473000,4.301472900390625,-1.2446136474609375,-0.3235931396484375,3.8227386474609375
1663861879125360600,4.311360595703125,-1.3607330322265625,-0.365142822265625,3.837646484375
1663861879135248400,4.321248291015625,-1.4747161865234375,-0.3779296875,3.74603271484375
1663861879145105400,4.33110546875,-1.5407562255859375,-0.3662109375,3.5446929931640625
1663861879154993200,4.3409931640625,-1.5546112060546875,-0.296966552734375,3.2730560302734375
1663861879164881000,4.350880859375,-1.556732177734375,-0.158477783203125,3.025909423828125
1663861879174768600,4.3607685546875,-1.566314697265625,0.046051025390625,2.856536865234375
1663861879184656100,4.37065625,-1.5759124755859375,0.2772064208984375,2.753204345703125
1663861879194543900,4.3805439453125,-1.5546112060546875,0.511566162109375,2.699951171875
1663861879204431600,4.390431640625,-1.4715118408203125,0.696929931640625,2.6573333740234375
1663861879214319400,4.4003193359375,-1.3458099365234375,0.8055877685546875,2.582763671875
1663861879224176400,4.41017626953125,-1.16790771484375,0.7672271728515625,2.4623870849609375
1663861879234064100,4.420064208984375,-0.9271697998046875,0.5296783447265625,2.2919464111328125
1663861879243951900,4.429951904296875,-0.6523284912109375,0.1642913818359375,2.04693603515625
1663861879253839600,4.439839599609375,-0.339141845703125,-0.1861724853515625,1.695404052734375
1663861879263727400,4.449727294921875,-0.0355377197265625,-0.4556884765625,1.2565155029296875
1663861879273615000,4.459614990234375,0.220123291015625,-0.5632781982421875,0.795257568359375
1663861879283502600,4.469502685546875,0.3958892822265625,-0.4940338134765625,0.419219970703125
1663861879293390300,4.479390380859375,0.4640655517578125,-0.3129425048828125,0.144378662109375
1663861879303247600,4.48924755859375,0.4182586669921875,-0.078582763671875,-0.04949951171875
1663861879313104600,4.499104736328125,0.3277130126953125,0.13446044921875,-0.184783935546875
1663861879322992400,4.508992431640625,0.2755126953125,0.22821044921875,-0.290252685546875
1663861879332880100,4.518880126953125,0.2595367431640625,0.1994476318359375,-0.3648223876953125
1663861879342767900,4.528767822265625,0.23504638671875,0.0993194580078125,-0.403167724609375
1663861879352655600,4.538655517578125,0.196685791015625,-0.00933837890625,-0.4116973876953125
1663861879362512600,4.5485126953125,0.140228271484375,-0.080718994140625,-0.3839874267578125
1663861879372430800,4.558430908203125,0.07098388671875,-0.1105499267578125,-0.3307342529296875
1663861879382318600,4.568318603515625,-0.0035858154296875,-0.1542205810546875,-0.2625579833984375
1663861879392206300,4.578206298828125,-0.0685577392578125,-0.2362518310546875,-0.2263336181640625
1663861879402063400,4.5880634765625,-0.106903076171875,-0.2809906005859375,-0.222076416015625
1663861879411951000,4.597951171875,-0.1378021240234375,-0.2543487548828125,-0.184783935546875
1663861879421838800,4.6078388671875,-0.1718902587890625,-0.2298583984375,-0.1006317138671875
1663861879431726600,4.6177265625,-0.1921234130859375,-0.2362518310546875,-0.024993896484375
1663861879441583600,4.62758349609375,-0.1846771240234375,-0.2447662353515625,0.0016326904296875
1663861879451471400,4.637471435546875,-0.1580352783203125,-0.2479705810546875,0.0005645751953125
1663861879461359000,4.647359130859375,-0.130340576171875,-0.2554168701171875,0.0069580078125
1663861879471246800,4.657246826171875,-0.1026458740234375,-0.287384033203125,0.0186767578125
1663861879481104000,4.667103759765625,-0.0717620849609375,-0.33319091796875,0.019744873046875
1663861879490991600,4.67699169921875,-0.04193115234375,-0.3491668701171875,-0.0090179443359375
1663861879500909800,4.686909912109375,-0.0121002197265625,-0.2958984375,-0.0463104248046875
1663861879510797600,4.696797607421875,0.015594482421875,-0.2202606201171875,-0.0665435791015625
1663861879520654800,4.70665478515625,0.0315704345703125,-0.1893768310546875,-0.0878448486328125
1663861879530512000,4.716511962890625,0.04010009765625,-0.20855712890625,-0.1112823486328125
1663861879540430000,4.72643017578125,0.050750732421875,-0.2660675048828125,-0.1368560791015625
1663861879550287400,4.736287353515625,0.060333251953125,-0.3587493896484375,-0.1720123291015625
1663861879560205600,4.74620556640625,0.05181884765625,-0.4397125244140625,-0.22100830078125
1663861879570093300,4.75609326171875,0.0305023193359375,-0.4492950439453125,-0.2657470703125
1663861879579950300,4.765950439453125,0.00494384765625,-0.412017822265625,-0.2977142333984375
1663861879589838000,4.775838134765625,-0.0238189697265625,-0.3459625244140625,-0.3158111572265625
1663861879599725800,4.785725830078125,-0.042999267578125,-0.238372802734375,-0.2977142333984375
1663861879609583000,4.7955830078125,-0.0376739501953125,-0.1339874267578125,-0.24444580078125
1663861879619470600,4.805470703125,-0.0110321044921875,-0.1179962158203125,-0.222076416015625
1663861879629358300,4.8153583984375,0.0347747802734375,-0.19256591796875,-0.25616455078125
1663861879639276500,4.825276611328125,0.0805816650390625,-0.2895050048828125,-0.3094329833984375
1663861879649164300,4.835164306640625,0.1082763671875,-0.3480987548828125,-0.3435211181640625
1663861879659052000,4.845052001953125,0.121063232421875,-0.3363800048828125,-0.3531036376953125
1663861879668909000,4.854908935546875,0.128509521484375,-0.2660675048828125,-0.356292724609375
1663861879678796800,4.864796875,0.1381072998046875,-0.181915283203125,-0.356292724609375
1663861879688684500,4.8746845703125,0.1487579345703125,-0.127593994140625,-0.368011474609375
1663861879698572300,4.884572265625,0.1668701171875,-0.1222686767578125,-0.4084930419921875
1663861879708429300,4.89442919921875,0.196685791015625,-0.1648712158203125,-0.484130859375
1663861879718317000,4.904317138671875,0.231842041015625,-0.2213287353515625,-0.5800018310546875
1663861879728174300,4.91417431640625,0.278717041015625,-0.308685302734375,-0.6865234375
1663861879738092500,4.924092529296875,0.34796142578125,-0.445037841796875,-0.8079681396484375
1663861879747980300,4.933980224609375,0.4193267822265625,-0.5632781982421875,-0.94219970703125
1663861879757868000,4.943867919921875,0.4747314453125,-0.6016387939453125,-1.088134765625
1663861879767755500,4.953755615234375,0.5258636474609375,-0.5973663330078125,-1.2319488525390625
1663861879777612800,4.96361279296875,0.5823211669921875,-0.557952880859375,-1.364044189453125
1663861879787500500,4.97350048828125,0.645172119140625,-0.442901611328125,-1.4918670654296875
1663861879797388300,4.98338818359375,0.71014404296875,-0.3342437744140625,-1.645263671875
1663861879807275800,4.99327587890625,0.7751312255859375,-0.343841552734375,-1.8348846435546875
1663861879817133000,5.003133056640625,0.8560943603515625,-0.3843231201171875,-2.02130126953125
1663861879827020800,5.013020751953125,0.9317169189453125,-0.3246612548828125,-2.184295654296875
1663861879836908500,5.022908447265625,0.9615478515625,-0.1638031005859375,-2.3238372802734375
1663861879846796000,5.032796142578125,0.9317169189453125,0.0407257080078125,-2.43463134765625
1663861879856683800,5.042683837890625,0.859283447265625,0.2079620361328125,-2.523040771484375
1663861879866541000,5.052541015625,0.8017578125,0.225006103515625,-2.60614013671875
1663861879876459300,5.062459228515625,0.7825927734375,0.035400390625,-2.6657867431640625
1663861879886347000,5.072346923828125,0.7825927734375,-0.2799224853515625,-2.6657867431640625
1663861879896234500,5.082234375,0.7847137451171875,-0.5025634765625,-2.6125335693359375
1663861879906122200,5.092122314453125,0.7719268798828125,-0.4503631591796875,-2.5656585693359375
1663861879916010000,5.102010009765625,0.7357177734375,-0.242645263671875,-2.602935791015625
1663861879925897700,5.111897705078125,0.6973724365234375,-0.128662109375,-2.7350311279296875
1663861879935785500,5.121785400390625,0.6813812255859375,-0.19683837890625,-2.889495849609375
1663861879945673200,5.131673095703125,0.6739349365234375,-0.308685302734375,-2.9065399169921875
1663861879955560700,5.141560791015625,0.6835174560546875,-0.3054962158203125,-2.7456817626953125
1663861879965418000,5.15141796875,0.746368408203125,-0.205352783203125,-2.5965423583984375
1663861879975305700,5.1613056640625,0.8646087646484375,-0.0775146484375,-2.6316986083984375
1663861879985193500,5.171193359375,0.986053466796875,0.0279388427734375,-2.811737060546875
1663861879995081000,5.1810810546875,1.1032257080078125,0.0513763427734375,-2.955535888671875
1663861880004938200,5.190938232421875,1.223602294921875,-0.0540924072265625,-2.957672119140625
1663861880014826000,5.200825927734375,1.362091064453125,-0.226654052734375,-2.9193267822265625
1663861880024713700,5.210713623046875,1.484588623046875,-0.2596893310546875,-2.9747161865234375
1663861880034601200,5.220601318359375,1.5474395751953125,-0.047698974609375,-3.084442138671875
1663861880044489000,5.230489013671875,1.587921142578125,0.1866607666015625,-3.1898956298828125
1663861880054376700,5.240376708984375,1.587921142578125,0.100372314453125,-3.265533447265625
1663861880064264400,5.250264404296875,1.5655517578125,-0.21600341796875,-3.3070831298828125
1663861880074152200,5.260152099609375,1.5250701904296875,-0.4301300048828125,-3.2857818603515625
1663861880084039700,5.270039794921875,1.4451751708984375,-0.35235595703125,-3.2122650146484375
1663861880093897000,5.27989697265625,1.324798583984375,-0.1989593505859375,-3.129180908203125
1663861880103784700,5.28978466796875,1.1724700927734375,-0.0966949462890625,-2.990692138671875
1663861880113672400,5.29967236328125,1.0606231689453125,-0.0966949462890625,-2.879913330078125
1663861880123560000,5.309559814453125,1.0915069580078125,-0.162750244140625,-2.8809814453125
1663861880133447700,5.31944775390625,1.2512969970703125,-0.17340087890625,-2.876708984375
1663861880143305000,5.329304931640625,1.4228057861328125,-0.1062774658203125,-2.81280517578125
1663861880153192700,5.339192626953125,1.5303955078125,0.0993194580078125,-2.7147979736328125
1663861880163080200,5.349080078125,1.5357208251953125,0.4391326904296875,-2.6689910888671875
1663861880172968000,5.358968017578125,1.472869873046875,0.716094970703125,-2.6668548583984375
1663861880182855700,5.368855712890625,1.47607421875,0.9078521728515625,-2.6306304931640625
1663861880192743400,5.378743408203125,1.55596923828125,0.9152984619140625,-2.63702392578125
1663861880202631200,5.388631103515625,1.62628173828125,0.776824951171875,-2.673248291015625
1663861880212519000,5.398518798828125,1.658233642578125,0.6212921142578125,-2.640228271484375
1663861880222376000,5.4083759765625,1.592193603515625,0.424224853515625,-2.5763092041015625
1663861880232263700,5.418263671875,1.404693603515625,0.27294921875,-2.5752410888671875
1663861880242151400,5.4281513671875,1.1873931884765625,0.215423583984375,-2.5518035888671875
1663861880252039200,5.4380390625,1.0084228515625,0.2069091796875,-2.4378204345703125
1663861880261926700,5.4479267578125,0.9263916015625,0.2335357666015625,-2.351531982421875
1663861880271814400,5.457814453125,0.9498291015625,0.36456298828125,-2.31744384765625
1663861880281702100,5.4677021484375,1.030792236328125,0.544586181640625,-2.2663116455078125
1663861880291559400,5.477559326171875,1.08831787109375,0.696929931640625,-2.2215728759765625
1663861880301447000,5.487447021484375,1.0925750732421875,0.674560546875,-2.1342315673828125
1663861880311334700,5.497334716796875,1.0148162841796875,0.5509796142578125,-2.055389404296875
1663861880321192000,5.50719189453125,0.84649658203125,0.400787353515625,-2.0042572021484375
1663861880331079700,5.51707958984375,0.65582275390625,0.3123626708984375,-1.9019927978515625
1663861880340936700,5.526936767578125,0.5343780517578125,0.28680419921875,-1.7752227783203125
1663861880350824400,5.536824462890625,0.516265869140625,0.34112548828125,-1.669769287109375
1663861880360712200,5.546712158203125,0.5460968017578125,0.3816070556640625,-1.578155517578125
1663861880370600000,5.556599853515625,0.5684661865234375,0.3688201904296875,-1.474822998046875
1663861880380457000,5.56645703125,0.553558349609375,0.3240814208984375,-1.3768157958984375
1663861880390344700,5.5763447265625,0.482177734375,0.25164794921875,-1.26922607421875
1663861880400263000,5.586262939453125,0.3852386474609375,0.1642913818359375,-1.131805419921875
1663861880410150700,5.596150634765625,0.3181304931640625,0.0982513427734375,-0.9549713134765625
1663861880420038400,5.606038330078125,0.26806640625,0.0950469970703125,-0.779205322265625
1663861880429895400,5.6158955078125,0.231842041015625,0.0961151123046875,-0.6162261962890625
1663861880439783200,5.625783203125,0.2158660888671875,0.102508544921875,-0.447906494140625
1663861880449640400,5.635640380859375,0.1945648193359375,0.114227294921875,-0.2742767333984375
1663861880459558700,5.64555859375,0.1434326171875,0.1089019775390625,-0.095306396484375
1663861880469446400,5.6554462890625,0.0645904541015625,0.0716094970703125,0.061279296875
1663861880479303400,5.665303466796875,-0.028076171875,0.0162200927734375,0.2050933837890625
1663861880489191200,5.675191162109375,-0.1175689697265625,-0.0402374267578125,0.3638153076171875
1663861880499079000,5.685078857421875,-0.200653076171875,-0.0881805419921875,0.521484375
1663861880508936000,5.69493603515625,-0.290130615234375,-0.1201324462890625,0.6716766357421875
1663861880518854100,5.704854248046875,-0.3860015869140625,-0.127593994140625,0.816558837890625
1663861880528742000,5.714741943359375,-0.475494384765625,-0.14996337890625,0.9475860595703125
1663861880538599200,5.72459912109375,-0.55645751953125,-0.1712646484375,1.089263916015625
1663861880548487000,5.73448681640625,-0.6384735107421875,-0.205352783203125,1.22454833984375
1663861880558344000,5.744343994140625,-0.7290191650390625,-0.2415771484375,1.3438568115234375
1663861880568231700,5.754231689453125,-0.8206329345703125,-0.27459716796875,1.4716949462890625
1663861880578119400,5.764119384765625,-0.9154510498046875,-0.320404052734375,1.59100341796875
1663861880588007200,5.774007080078125,-1.0049285888671875,-0.34490966796875,1.69647216796875
1663861880597925400,5.78392529296875,-1.0826873779296875,-0.3459625244140625,1.808319091796875
1663861880607812900,5.793812744140625,-1.1306304931640625,-0.35235595703125,1.92230224609375
1663861880617670100,5.803670166015625,-1.14874267578125,-0.341705322265625,2.0330963134765625
1663861880627558000,5.813557861328125,-1.1540679931640625,-0.3076171875,2.1449432373046875
1663861880637445600,5.823445556640625,-1.1551361083984375,-0.285247802734375,2.252532958984375
1663861880647333400,5.83333349609375,-1.1540679931640625,-0.275665283203125,2.34307861328125
1663861880657220900,5.843220947265625,-1.16046142578125,-0.2596893310546875,2.421905517578125
1663861880667108600,5.853108642578125,-1.1668548583984375,-0.2223968505859375,2.5092620849609375
1663861880676996400,5.862996337890625,-1.1647186279296875,-0.1755218505859375,2.6019439697265625
1663861880686884000,5.872884033203125,-1.145538330078125,-0.127593994140625,2.6807708740234375
1663861880696771800,5.882771728515625,-1.1306304931640625,-0.080718994140625,2.7468109130859375
1663861880706659300,5.892659423828125,-1.13702392578125,-0.035980224609375,2.7926177978515625
1663861880716547000,5.902547119140625,-1.1540679931640625,0.0140838623046875,2.844818115234375
1663861880726434800,5.912434814453125,-1.1753692626953125,0.069488525390625,2.9108734130859375
1663861880736292000,5.9222919921875,-1.1966705322265625,0.1365966796875,2.962005615234375
1663861880746149000,5.932149169921875,-1.204132080078125,0.2005157470703125,2.9875640869140625
1663861880756036900,5.942036865234375,-1.192413330078125,0.2559051513671875,3.0120697021484375
1663861880765924600,5.951924560546875,-1.17218017578125,0.28466796875,3.0344390869140625
1663861880775812400,5.961812255859375,-1.1583251953125,0.3017120361328125,3.0450897216796875
1663861880785669400,5.97166943359375,-1.14447021484375,0.29425048828125,3.049346923828125
1663861880795557000,5.98155712890625,-1.112518310546875,0.248443603515625,3.063201904296875
1663861880805444900,5.99144482421875,-1.0720367431640625,0.16961669921875,3.0941009521484375
1663861880815332600,6.00133251953125,-1.03369140625,0.102508544921875,3.1026153564453125
1663861880825220000,6.01122021484375,-1.00811767578125,0.0833282470703125,3.1015472412109375
1663861880835107800,6.02110791015625,-1.00067138671875,0.0865325927734375,3.10687255859375
1663861880844995600,6.03099560546875,-1.0134429931640625,0.1067657470703125,3.1228485107421875
1663861880854883300,6.04088330078125,-1.02410888671875,0.1397857666015625,3.1931610107421875
1663861880864771000,6.05077099609375,-1.01239013671875,0.1291351318359375,3.2964935302734375
1663861880874658800,6.060658935546875,-0.9910736083984375,0.10357666015625,3.3891754150390625
1663861880884546300,6.07054638671875,-0.954864501953125,0.092926025390625,3.460540771484375
1663861880894434000,6.08043408203125,-0.8920135498046875,0.0865325927734375,3.4989013671875
1663861880904321800,6.09032177734375,-0.804656982421875,0.0737457275390625,3.4765167236328125
1663861880914179000,6.100178955078125,-0.7205047607421875,0.0737457275390625,3.4339141845703125
1663861880924066600,6.110066650390625,-0.6619110107421875,0.0865325927734375,3.4221954345703125
1663861880933954300,6.119954345703125,-0.6267547607421875,0.088653564453125,3.4083404541015625
1663861880943842000,6.129842041015625,-0.6171722412109375,0.0758819580078125,3.3785247802734375
1663861880953729800,6.139729736328125,-0.643798828125,0.04498291015625,3.3465576171875
1663861880963617500,6.149617431640625,-0.68853759765625,0.0034332275390625,3.3327178955078125
1663861880973505000,6.159505126953125,-0.7418060302734375,-0.00933837890625,3.3699951171875
1663861880983362300,6.1693623046875,-0.8334197998046875,0.0598907470703125,3.47119140625
1663861880993219600,6.179219482421875,-0.9559326171875,0.172821044921875,3.5904998779296875
1663861881003107000,6.189107177734375,-1.07843017578125,0.2889251708984375,3.67999267578125
1663861881012964400,6.19896435546875,-1.1583251953125,0.330474853515625,3.6863861083984375
1663861881022882600,6.208882568359375,-1.13702392578125,0.29852294921875,3.5681304931640625
1663861881032770300,6.218770263671875,-1.042205810546875,0.26336669921875,3.347625732421875
1663861881042658000,6.228657958984375,-0.9591217041015625,0.260162353515625,3.0791778564453125
1663861881052545500,6.238545654296875,-0.8973388671875,0.2772064208984375,2.7968902587890625
1663861881062433300,6.248433349609375,-0.8536529541015625,0.3475189208984375,2.5540008544921875
1663861881072321000,6.258321044921875,-0.8249053955078125,0.4678955078125,2.3760986328125
1663861881082208800,6.268208740234375,-0.8003997802734375,0.5850677490234375,2.2152557373046875
1663861881092096500,6.278096435546875,-0.771636962890625,0.640472412109375,2.02349853515625
1663861881101984000,6.28798388671875,-0.736480712890625,0.6351470947265625,1.808319091796875
1663861881111871700,6.297871826171875,-0.658721923828125,0.5499114990234375,1.5750274658203125
1663861881121729000,6.30772900390625,-0.510650634765625,0.422088623046875,1.363037109375
1663861881131616800,6.31761669921875,-0.3327484130859375,0.309173583984375,1.1734161376953125
1663861881141504500,6.32750439453125,-0.180419921875,0.180267333984375,0.9720916748046875
1663861881151392000,6.33739208984375,-0.076019287109375,0.05670166015625,0.747314453125
1663861881161279700,6.34727978515625,-0.0003814697265625,-0.0317230224609375,0.5236053466796875
1663861881171167500,6.35716748046875,0.06353759765625,-0.078582763671875,0.3190765380859375
1663861881181055200,6.36705517578125,0.1136016845703125,-0.104156494140625,0.1464996337890625
1663861881190912300,6.376912353515625,0.165802001953125,-0.0998992919921875,-0.0015716552734375
1663861881200800000,6.386800048828125,0.2169342041015625,-0.0636749267578125,-0.120880126953125
1663861881210687700,6.396687744140625,0.2520904541015625,-0.012542724609375,-0.2050323486328125
1663861881220545000,6.406544921875,0.2701873779296875,0.08013916015625,-0.243377685546875
1663861881230432500,6.4164326171875,0.2744598388671875,0.1738739013671875,-0.2305908203125
1663861881240320300,6.4263203125,0.2723236083984375,0.1877288818359375,-0.17840576171875
1663861881250208000,6.4362080078125,0.24676513671875,0.0950469970703125,-0.118743896484375
1663861881260065300,6.446065185546875,0.198822021484375,-0.035980224609375,-0.064422607421875
1663861881269952800,6.455952880859375,0.142364501953125,-0.1361083984375,-0.0015716552734375
1663861881279840500,6.465840576171875,0.0645904541015625,-0.184051513671875,0.0698089599609375
1663861881289728300,6.475728271484375,-0.0366058349609375,-0.18084716796875,0.123077392578125
1663861881299616000,6.485615966796875,-0.130340576171875,-0.160614013671875,0.1592864990234375
1663861881309473000,6.49547314453125,-0.200653076171875,-0.2202606201171875,0.1923065185546875
1663861881319360800,6.50536083984375,-0.2507171630859375,-0.3278656005859375,0.2082977294921875
1663861881329248500,6.51524853515625,-0.266693115234375,-0.3821868896484375,0.2050933837890625
1663861881339136300,6.52513623046875,-0.2422027587890625,-0.388580322265625,0.1976470947265625
1663861881348993300,6.5349931640625,-0.198516845703125,-0.378997802734375,0.1859283447265625
1663861881358911700,6.544911865234375,-0.1473846435546875,-0.3278656005859375,0.16888427734375
1663861881368768800,6.554768798828125,-0.095184326171875,-0.242645263671875,0.1497039794921875
1663861881378687000,6.56468701171875,-0.0451202392578125,-0.203216552734375,0.132659912109375
1663861881388544300,6.574544189453125,0.0006866455078125,-0.23944091796875,0.109222412109375
1663861881398401300,6.5844013671875,0.036895751953125,-0.2895050048828125,0.074066162109375
1663861881408319500,6.594319580078125,0.05926513671875,-0.30975341796875,0.0325164794921875
1663861881418207200,6.604207275390625,0.0699310302734375,-0.29803466796875,-0.00262451171875
1663861881428095000,6.614094970703125,0.062469482421875,-0.2490234375,-0.029266357421875
1663861881437982700,6.623982666015625,0.041168212890625,-0.19683837890625,-0.050567626953125
1663861881447870500,6.633870361328125,0.018798828125,-0.181915283203125,-0.0771942138671875
1663861881457758000,6.643758056640625,-0.0003814697265625,-0.2128143310546875,-0.09423828125
1663861881467615200,6.653615234375,-0.017425537109375,-0.2650146484375,-0.0910491943359375
1663861881477503000,6.6635029296875,-0.0238189697265625,-0.3044281005859375,-0.0921173095703125
1663861881487360000,6.673360107421875,-0.005706787109375,-0.32147216796875,-0.1357879638671875
1663861881497247700,6.683247802734375,0.0315704345703125,-0.3235931396484375,-0.2295379638671875
1663861881507166000,6.693166015625,0.0731201171875,-0.3385162353515625,-0.3413848876953125
1663861881517053700,6.7030537109375,0.1103973388671875,-0.3662109375,-0.4915924072265625
1663861881526911000,6.712910888671875,0.142364501953125,-0.386444091796875,-0.6598968505859375
1663861881536798500,6.722798583984375,0.1817779541015625,-0.3821868896484375,-0.78240966796875
1663861881546686200,6.732686279296875,0.222259521484375,-0.3310546875,-0.8761444091796875
1663861881556574000,6.742573974609375,0.2595367431640625,-0.2469024658203125,-0.9869384765625
1663861881566461700,6.752461669921875,0.3170623779296875,-0.2021636962890625,-1.1254119873046875
1663861881576349400,6.762349365234375,0.4001617431640625,-0.2341156005859375,-1.284149169921875
1663861881586237200,6.7722373046875,0.5013580322265625,-0.33319091796875,-1.488677978515625
1663861881596124700,6.782124755859375,0.607879638671875,-0.4503631591796875,-1.715576171875
1663861881606012400,6.792012451171875,0.7197418212890625,-0.548370361328125,-1.8913421630859375
1663861881615900200,6.801900146484375,0.81561279296875,-0.59417724609375,-2.0170440673828125
1663861881625788000,6.811787841796875,0.882720947265625,-0.5260009765625,-2.116119384765625
1663861881635645000,6.82164501953125,0.91680908203125,-0.3001556396484375,-2.184295654296875
1663861881645502200,6.831502197265625,0.917877197265625,0.010894775390625,-2.2205047607421875
1663861881655390000,6.841389892578125,0.8912506103515625,0.260162353515625,-2.2684478759765625
1663861881665247000,6.8512470703125,0.8646087646484375,0.3507080078125,-2.366455078125
1663861881675165200,6.861165283203125,0.8411712646484375,0.3112945556640625,-2.4868316650390625
1663861881685053000,6.871052978515625,0.7943115234375,0.161102294921875,-2.55926513671875
1663861881694940700,6.880940673828125,0.769805908203125,-0.0860443115234375,-2.5614013671875
1663861881704828400,6.890828369140625,0.8060150146484375,-0.250091552734375,-2.5432891845703125
1663861881714685400,6.900685546875,0.8603515625,-0.263946533203125,-2.53582763671875
1663861881724542700,6.910542724609375,0.868865966796875,-0.1872406005859375,-2.5752410888671875
1663861881734461000,6.9204609375,0.835845947265625,-0.090301513671875,-2.67431640625
1663861881744348700,6.9303486328125,0.8177337646484375,-0.0540924072265625,-2.7701873779296875
1663861881754236400,6.940236328125,0.8539581298828125,-0.0775146484375,-2.776580810546875
1663861881764124000,6.9501240234375,0.908294677734375,-0.1009521484375,-2.6349029541015625
1663861881774011600,6.96001171875,0.9093475341796875,-0.081787109375,-2.4069366455078125
1663861881783899400,6.9698994140625,0.8678131103515625,-0.0881805419921875,-2.2801666259765625
1663861881793787100,6.979787109375,0.8752593994140625,-0.0753936767578125,-2.3845672607421875
1663861881803675000,6.9896748046875,0.9668731689453125,0.0833282470703125,-2.6008148193359375
1663861881813532000,6.999531982421875,1.0957794189453125,0.2356719970703125,-2.7787017822265625
1663861881823419600,7.009419677734375,1.2097625732421875,0.112091064453125,-2.853271484375
1663861881833307400,7.019307373046875,1.2694091796875,-0.2096099853515625,-2.835174560546875
1663861881843195100,7.029195068359375,1.2747344970703125,-0.3970947265625,-2.8159942626953125
1663861881853083000,7.039082763671875,1.216156005859375,-0.3353118896484375,-2.7989501953125
1663861881862970400,7.048970458984375,1.1042938232421875,-0.172332763671875,-2.7925567626953125
1663861881872858000,7.058858154296875,1.032928466796875,0.032196044921875,-2.79681396484375
1663861881882745900,7.068745849609375,1.016937255859375,0.1951904296875,-2.8277130126953125
1663861881892633600,7.078633544921875,1.087249755859375,0.1621551513671875,-2.934234619140625
1663861881902490600,7.08849072265625,1.2395782470703125,-0.0871124267578125,-3.05035400390625
1663861881912378400,7.09837841796875,1.352508544921875,-0.263946533203125,-3.0780487060546875
1663861881922266000,7.10826611328125,1.3535614013671875,-0.18511962890625,-3.0556793212890625
1663861881932153900,7.11815380859375,1.258758544921875,-0.0061492919921875,-3.058868408203125
1663861881942041600,7.12804150390625,1.14263916015625,0.1653594970703125,-3.058868408203125
1663861881951929000,7.13792919921875,1.0670166015625,0.2921295166015625,-3.0109405517578125
1663861881961786400,7.147786376953125,1.062744140625,0.3858642578125,-2.89056396484375
1663861881971674000,7.157674072265625,1.1607513427734375,0.4359283447265625,-2.7563323974609375
1663861881981561900,7.167561767578125,1.2928466796875,0.4625701904296875,-2.7403564453125
1663861881991419000,7.1774189453125,1.3333282470703125,0.410369873046875,-2.809600830078125
1663861882001276200,7.187276123046875,1.2512969970703125,0.2793426513671875,-2.8458251953125
1663861882011164000,7.197163818359375,1.1074981689453125,0.1877288818359375,-2.7872314453125
1663861882021051400,7.207051513671875,0.9679412841796875,0.25909423828125,-2.659393310546875
1663861882030939100,7.216939208984375,0.8635406494140625,0.4178314208984375,-2.5219879150390625
1663861882040827000,7.226826904296875,0.86993408203125,0.5499114990234375,-2.4058685302734375
1663861882050714600,7.236714599609375,0.97540283203125,0.5626983642578125,-2.3281097412109375
1663861882060602400,7.246602294921875,1.108551025390625,0.525421142578125,-2.3131866455078125
1663861882070490000,7.256489990234375,1.17779541015625,0.4913330078125,-2.332366943359375
1663861882080377600,7.266377685546875,1.1756744384765625,0.400787353515625,-2.2940216064453125
1663861882090265300,7.276265380859375,1.1192169189453125,0.295318603515625,-2.2141265869140625
1663861882100153000,7.286153076171875,1.02972412109375,0.248443603515625,-2.0958709716796875
1663861882110040800,7.296040771484375,0.9594268798828125,0.252716064453125,-1.954193115234375
1663861882119897900,7.30589794921875,0.9445037841796875,0.260162353515625,-1.8572540283203125
1663861882129785600,7.31578564453125,0.9455718994140625,0.2441864013671875,-1.785888671875
1663861882139643000,7.325642822265625,0.96368408203125,0.205841064453125,-1.7336883544921875
1663861882149561000,7.33556103515625,0.9359893798828125,0.1323394775390625,-1.704925537109375
1663861882159418000,7.345418212890625,0.816680908203125,0.0258026123046875,-1.6740264892578125
1663861882169275400,7.355275390625,0.634521484375,-0.09136962890625,-1.56536865234375
1663861882179193600,7.365193603515625,0.49603271484375,-0.1179962158203125,-1.4812164306640625
1663861882189051000,7.37505078125,0.4321136474609375,-0.066864013671875,-1.373626708984375
1663861882198938400,7.3849384765625,0.4342498779296875,0.0545654296875,-1.25006103515625
1663861882208826000,7.394826171875,0.4438323974609375,0.145111083984375,-1.1286163330078125
1663861882218713900,7.4047138671875,0.4278564453125,0.1898651123046875,-0.9816131591796875
1663861882228601600,7.4146015625,0.3841705322265625,0.1760101318359375,-0.8345947265625
1663861882238489300,7.4244892578125,0.3170623779296875,0.1408538818359375,-0.680145263671875
1663861882248376800,7.434376953125,0.233978271484375,0.0971832275390625,-0.520355224609375
1663861882258264600,7.4442646484375,0.1551513671875,0.0630950927734375,-0.3776092529296875
1663861882268121900,7.454121826171875,0.0848388671875,0.065216064453125,-0.2305908203125
1663861882278040000,7.4640400390625,0.0198516845703125,0.0513763427734375,-0.08251953125
1663861882287897000,7.47389697265625,-0.04193115234375,0.04498291015625,0.0580902099609375
1663861882297784800,7.483784912109375,-0.120758056640625,0.0407257080078125,0.2093505859375
1663861882307672600,7.493672607421875,-0.2155609130859375,-0.011474609375,0.346771240234375
1663861882317529900,7.50352978515625,-0.3125,-0.0732574462890625,0.473541259765625
1663861882327417600,7.51341748046875,-0.414764404296875,-0.0977630615234375,0.609893798828125
1663861882337305000,7.52330517578125,-0.5159759521484375,-0.1243896484375,0.734527587890625
1663861882347192800,7.53319287109375,-0.6075897216796875,-0.1595458984375,0.841064453125
1663861882357080600,7.54308056640625,-0.70025634765625,-0.1755218505859375,0.9454498291015625
1663861882366968300,7.55296826171875,-0.7876129150390625,-0.1680755615234375,1.044525146484375
1663861882376856000,7.56285595703125,-0.8653717041015625,-0.1563568115234375,1.1542510986328125
1663861882386743600,7.57274365234375,-0.9261016845703125,-0.162750244140625,1.2767486572265625
1663861882396600800,7.582600830078125,-0.976165771484375,-0.170196533203125,1.397125244140625
1663861882406488600,7.592488525390625,-1.0145111083984375,-0.1680755615234375,1.5313568115234375
1663861882416376300,7.602376220703125,-1.04327392578125,-0.162750244140625,1.6708984375
1663861882426263800,7.612263916015625,-1.0731048583984375,-0.1680755615234375,1.7902069091796875
1663861882436151600,7.622151611328125,-1.1050567626953125,-0.1744537353515625,1.899932861328125
1663861882446008800,7.6320087890625,-1.133819580078125,-0.170196533203125,2.014984130859375
1663861882455927000,7.641927001953125,-1.1529998779296875,-0.1680755615234375,2.1119232177734375
1663861882465814800,7.651814697265625,-1.159393310546875,-0.139312744140625,2.198211669921875
1663861882475702300,7.661702392578125,-1.1529998779296875,-0.07965087890625,2.301544189453125
1663861882485590000,7.671590087890625,-1.1274261474609375,-0.0189361572265625,2.4112548828125
1663861882495477800,7.681477783203125,-1.0826873779296875,0.04498291015625,2.5124664306640625
1663861882505365500,7.691365478515625,-1.03155517578125,0.1078338623046875,2.6030120849609375
1663861882515222500,7.701222412109375,-0.98895263671875,0.149383544921875,2.6924896240234375
1663861882525110300,7.7111103515625,-0.9708404541015625,0.1632232666015625,2.7926177978515625
1663861882534967600,7.720967529296875,-0.966583251953125,0.1738739013671875,2.8959503173828125
1663861882544855300,7.730855224609375,-0.962310791015625,0.158966064453125,2.9907684326171875
1663861882554743000,7.740742919921875,-0.9495391845703125,0.1621551513671875,3.0621337890625
1663861882564630500,7.750630615234375,-0.9367523193359375,0.225006103515625,3.0930328369140625
1663861882574518300,7.760518310546875,-0.93035888671875,0.26336669921875,3.0941009521484375
1663861882584406000,7.770406005859375,-0.921844482421875,0.2303466796875,3.086639404296875
1663861882594263300,7.78026318359375,-0.898406982421875,0.1674957275390625,3.065338134765625
1663861882604181500,7.790181396484375,-0.8547210693359375,0.0971832275390625,3.05255126953125
1663861882614038500,7.80003857421875,-0.8312835693359375,0.0172882080078125,3.0855712890625
1663861882623926300,7.80992626953125,-0.8270263671875,-0.0423736572265625,3.1505584716796875
1663861882633814000,7.81981396484375,-0.8110504150390625,-0.06793212890625,3.22406005859375
1663861882643701800,7.82970166015625,-0.807861328125,-0.034912109375,3.292236328125
1663861882653589200,7.83958935546875,-0.8334197998046875,0.0535125732421875,3.338043212890625
1663861882663477000,7.84947705078125,-0.8675079345703125,0.1515045166015625,3.3561553955078125
1663861882673364700,7.85936474609375,-0.8888092041015625,0.205841064453125,3.357208251953125
1663861882683252500,7.86925244140625,-0.8781585693359375,0.20263671875,3.3540191650390625
1663861882693140200,7.87914013671875,-0.8387451171875,0.1898651123046875,3.3582763671875
1663861882703027700,7.88902783203125,-0.7897491455078125,0.1621551513671875,3.3529510498046875
1663861882712915500,7.89891552734375,-0.7556610107421875,0.12274169921875,3.3209991455078125
1663861882722803200,7.90880322265625,-0.7396697998046875,0.0961151123046875,3.3188629150390625
1663861882732660500,7.918660400390625,-0.750335693359375,0.079071044921875,3.359344482421875
1663861882742517500,7.928517578125,-0.7854766845703125,0.0598907470703125,3.3998260498046875
1663861882752374800,7.938374755859375,-0.8238372802734375,0.0311279296875,3.437103271484375
1663861882762293000,7.94829296875,-0.8675079345703125,-0.00933837890625,3.49676513671875
1663861882772180700,7.9581806640625,-0.9356842041015625,-0.00189208984375,3.5830535888671875
1663861882782037800,7.968037841796875,-1.030487060546875,0.046051025390625,3.6746673583984375
1663861882791956000,7.9779560546875,-1.1423492431640625,0.0950469970703125,3.7087554931640625
1663861882801843700,7.98784375,-1.2286376953125,0.102508544921875,3.665069580078125
1663861882811701000,7.997700927734375,-1.225433349609375,0.0407257080078125,3.5489654541015625
1663861882821558000,8.00755810546875,-1.159393310546875,-0.07965087890625,3.3668060302734375
1663861882831476200,8.017476318359375,-1.0869598388671875,-0.18084716796875,3.1590728759765625
1663861882841364000,8.027364013671875,-1.0368804931640625,-0.158477783203125,2.973724365234375
1663861882851251700,8.037251708984375,-1.0262298583984375,-0.011474609375,2.8011474609375
1663861882861139500,8.047139404296875,-1.03369140625,0.1717529296875,2.6338958740234375
1663861882871027200,8.057027099609375,-1.023040771484375,0.3858642578125,2.5103302001953125
1663861882880884200,8.06688427734375,-1.0059967041015625,0.593597412109375,2.421905517578125
1663861882890772000,8.07677197265625,-0.9804229736328125,0.7054443359375,2.3153839111328125
1663861882900659700,8.08665966796875,-0.919708251953125,0.6916046142578125,2.1886138916015625
1663861882910547500,8.09654736328125,-0.8099822998046875,0.5882720947265625,2.0533294677734375
1663861882920435000,8.10643505859375,-0.6523284912109375,0.4615020751953125,1.9148406982421875
1663861882930322700,8.11632275390625,-0.5010528564453125,0.332611083984375,1.763580322265625
1663861882940210400,8.12621044921875,-0.393463134765625,0.2665557861328125,1.556915283203125
1663861882950098200,8.13609814453125,-0.2837371826171875,0.1983795166015625,1.22882080078125
1663861882959986000,8.14598583984375,-0.14312744140625,0.0535125732421875,0.873016357421875
1663861882969873400,8.155873291015626,-0.0142364501953125,-0.123321533203125,0.576873779296875
1663861882979730700,8.165730712890625,0.0539398193359375,-0.283111572265625,0.3382568359375
1663861882989588000,8.175587890625,0.07098388671875,-0.365142822265625,0.1486358642578125
1663861882999445000,8.185445068359375,0.0784454345703125,-0.3726043701171875,0.0101470947265625
1663861883009363200,8.19536328125,0.0784454345703125,-0.29803466796875,-0.0803985595703125
1663861883019220500,8.205220458984375,0.09442138671875,-0.093505859375,-0.1336517333984375
1663861883029138700,8.215138671875,0.1221160888671875,0.1632232666015625,-0.144317626953125
1663861883039026400,8.2250263671875,0.1487579345703125,0.37841796875,-0.1240692138671875
1663861883048914200,8.2349140625,0.173248291015625,0.487060546875,-0.10595703125
1663861883058771200,8.244771240234375,0.18603515625,0.4444580078125,-0.1102294921875
1663861883068628500,8.25462841796875,0.1902923583984375,0.283599853515625,-0.1262054443359375
1663861883078516200,8.26451611328125,0.1902923583984375,0.11102294921875,-0.1027679443359375
1663861883088403700,8.27440380859375,0.177520751953125,-0.01361083984375,-0.0218048095703125
1663861883098322000,8.284322021484375,0.132781982421875,-0.066864013671875,0.0932464599609375
1663861883108179200,8.29417919921875,0.0699310302734375,-0.047698974609375,0.19976806640625
1663861883118097400,8.304097412109375,0.017730712890625,0.00238037109375,0.278594970703125
1663861883127954700,8.31395458984375,-0.0334014892578125,-0.012542724609375,0.315887451171875
1663861883137842200,8.32384228515625,-0.1037139892578125,-0.1531524658203125,0.3148193359375
1663861883147730000,8.33372998046875,-0.1761474609375,-0.318267822265625,0.313751220703125
1663861883157617700,8.34361767578125,-0.224090576171875,-0.3896484375,0.32440185546875
1663861883167475000,8.353474853515625,-0.24859619140625,-0.3704681396484375,0.327606201171875
1663861883177393200,8.36339306640625,-0.2539215087890625,-0.3118743896484375,0.32440185546875
1663861883187280600,8.37328076171875,-0.23687744140625,-0.2650146484375,0.3307952880859375
1663861883197168400,8.38316845703125,-0.2038421630859375,-0.2660675048828125,0.3414459228515625
1663861883207056100,8.39305615234375,-0.1644287109375,-0.322540283203125,0.32867431640625
1663861883216913400,8.402913330078125,-0.1143646240234375,-0.3960418701171875,0.2722015380859375
1663861883226801000,8.41280078125,-0.05364990234375,-0.4524993896484375,0.179534912109375
1663861883236688600,8.422688720703125,-0.0025177001953125,-0.4716644287109375,0.0825958251953125
1663861883246576400,8.432576416015625,0.0347747802734375,-0.4503631591796875,-0.00262451171875
1663861883256464100,8.442464111328125,0.0688629150390625,-0.390716552734375,-0.093170166015625
1663861883266351900,8.452351806640625,0.097625732421875,-0.30975341796875,-0.19757080078125
1663861883276239600,8.462239501953125,0.12744140625,-0.2415771484375,-0.311553955078125
1663861883286127000,8.472127197265625,0.1594085693359375,-0.2106781005859375,-0.4319305419921875
1663861883296014800,8.482014892578125,0.2041473388671875,-0.23944091796875,-0.5565643310546875
1663861883305902600,8.491902587890625,0.2733917236328125,-0.329986572265625,-0.6865234375
1663861883315790300,8.501790283203125,0.35968017578125,-0.466339111328125,-0.8420562744140625
1663861883325617000,8.511616943359375,0.4416961669921875,-0.5984344482421875,-1.028472900390625
1663861883335504600,8.521504638671875,0.505615234375,-0.6921844482421875,-1.2308807373046875
1663861883345392400,8.531392333984375,0.5578155517578125,-0.7241363525390625,-1.4449920654296875
1663861883355249400,8.54124951171875,0.607879638671875,-0.682586669921875,-1.668701171875
1663861883365167600,8.551167724609375,0.6494293212890625,-0.616546630859375,-1.895599365234375
1663861883375055400,8.561055419921875,0.687774658203125,-0.5675506591796875,-2.1299591064453125
1663861883384943000,8.570943115234375,0.73358154296875,-0.579254150390625,-2.3483428955078125
1663861883394800400,8.58080029296875,0.793243408203125,-0.6218719482421875,-2.5177154541015625
1663861883404688000,8.59068798828125,0.86993408203125,-0.60589599609375,-2.6434173583984375
1663861883414545200,8.600545166015625,0.9668731689453125,-0.489776611328125,-2.73291015625
1663861883424433000,8.610432861328125,1.06488037109375,-0.296966552734375,-2.8181304931640625
1663861883434351000,8.62035107421875,1.1415863037109375,-0.0881805419921875,-2.9662017822265625
1663861883444208000,8.6302080078125,1.190582275390625,0.0492401123046875,-3.164337158203125
1663861883454096000,8.640095947265625,1.2054901123046875,0.10357666015625,-3.345428466796875
1663861883463983600,8.649983642578125,1.15863037109375,0.0897216796875,-3.42852783203125
1663861883473871400,8.659871337890625,1.0393218994140625,-0.0306549072265625,-3.321990966796875
1663861883483728400,8.669728271484376,0.8901824951171875,-0.1947021484375,-3.0450286865234375
1663861883493646800,8.679646728515625,0.7964324951171875,-0.2532958984375,-2.751007080078125
1663861883503534300,8.689534423828125,0.8017578125,-0.1659393310546875,-2.595489501953125
1663861883513422000,8.699422119140625,0.8603515625,-0.02105712890625,-2.63702392578125
1663861883523309800,8.709309814453125,0.9146728515625,0.1056976318359375,-2.821319580078125
1663861883533197600,8.719197509765625,0.960479736328125,0.1291351318359375,-3.03863525390625
1663861883543085300,8.729085205078125,1.0030975341796875,0.0758819580078125,-3.1930999755859375
1663861883552972800,8.738972900390625,1.0382537841796875,0.102508544921875,-3.1941680908203125
1663861883562860500,8.748860595703125,1.0467681884765625,0.21649169921875,-3.082305908203125
1663861883572748300,8.758748291015625,1.0243988037109375,0.2931976318359375,-3.0460968017578125
1663861883582605600,8.76860546875,0.9967041015625,0.2654876708984375,-3.150482177734375
1663861883592493000,8.7784931640625,1.02972412109375,0.12701416015625,-3.23358154296875
1663861883602350300,8.788350341796875,1.109619140625,-0.0157318115234375,-3.2261199951171875
1663861883612238000,8.798238037109375,1.192718505859375,-0.02105712890625,-3.230377197265625
1663861883622095000,8.80809521484375,1.305633544921875,-0.022125244140625,-3.275115966796875
1663861883632013300,8.818013427734375,1.3802032470703125,-0.1084136962890625,-3.3369140625
1663861883641901000,8.827901123046875,1.4228057861328125,-0.1659393310546875,-3.3518218994140625
1663861883651758300,8.83775830078125,1.4600982666015625,-0.1297149658203125,-3.2964324951171875
1663861883661646000,8.84764599609375,1.4600982666015625,-0.0849761962890625,-3.218658447265625
1663861883671533600,8.857533447265626,1.4142913818359375,-0.035980224609375,-3.1600799560546875
1663861883681421300,8.86742138671875,1.336517333984375,0.1781463623046875,-3.1600799560546875
1663861883691309000,8.87730908203125,1.249176025390625,0.4604339599609375,-3.22186279296875
1663861883701196800,8.88719677734375,1.200164794921875,0.5989227294921875,-3.3486328125
1663861883711084500,8.89708447265625,1.1820526123046875,0.592529296875,-3.3965606689453125
1663861883720972300,8.90697216796875,1.1937713623046875,0.6884002685546875,-3.324127197265625
1663861883730859800,8.91685986328125,1.2417144775390625,0.891876220703125,-3.1600799560546875
1663861883740747500,8.92674755859375,1.2672882080078125,0.969635009765625,-2.9619293212890625
1663861883750635300,8.93663525390625,1.27154541015625,1.0207672119140625,-2.864990234375
1663861883760523000,8.94652294921875,1.2992401123046875,0.9525909423828125,-2.8138580322265625
1663861883770380000,8.956380126953125,1.338653564453125,0.74273681640625,-2.7691192626953125
1663861883780237300,8.9662373046875,1.3567657470703125,0.501983642578125,-2.776580810546875
1663861883790125000,8.976125,1.3461151123046875,0.2239532470703125,-2.7957611083984375
1663861883800012800,8.9860126953125,1.28326416015625,0.0535125732421875,-2.7478179931640625
1663861883809900300,8.995900390625,1.1064300537109375,0.1131591796875,-2.6242523193359375
1663861883819788000,9.0057880859375,0.8869781494140625,0.250579833984375,-2.4974822998046875
1663861883829645300,9.015645263671875,0.814544677734375,0.377349853515625,-2.37603759765625
1663861883839533000,9.025532958984375,0.9008331298828125,0.4700164794921875,-2.23968505859375
1663861883849420500,9.035420654296875,1.0201416015625,0.4742889404296875,-2.1225128173828125
1663861883859308300,9.045308349609375,1.0371856689453125,0.4444580078125,-2.0617828369140625
1663861883869196000,9.055196044921875,0.939178466796875,0.363494873046875,-2.001068115234375
1663861883879053300,9.06505322265625,0.7634124755859375,0.1781463623046875,-1.8988037109375
1663861883888971500,9.074971435546875,0.5833740234375,0.0630950927734375,-1.8050537109375
1663861883898859000,9.08485888671875,0.44915771484375,0.024749755859375,-1.6846771240234375
1663861883908716300,9.09471630859375,0.3990936279296875,0.0258026123046875,-1.5525970458984375
1663861883918573600,9.104573486328125,0.4086761474609375,0.0407257080078125,-1.4343414306640625
1663861883928491800,9.11449169921875,0.424652099609375,0.0982513427734375,-1.3246307373046875
1663861883938379300,9.124379150390626,0.4044189453125,0.1280670166015625,-1.1957244873046875
1663861883948267000,9.13426708984375,0.3575439453125,0.1312713623046875,-1.0700225830078125
1663861883958154800,9.14415478515625,0.3202667236328125,0.114227294921875,-0.908111572265625
1663861883968042500,9.15404248046875,0.2701873779296875,0.070556640625,-0.755767822265625
1663861883977930200,9.16393017578125,0.208404541015625,0.0258026123046875,-0.62261962890625
1663861883987787300,9.173787353515625,0.14129638671875,0.0162200927734375,-0.472412109375
1663861883997675000,9.183675048828125,0.083770751953125,0.0077056884765625,-0.3094329833984375
1663861884007532300,9.1935322265625,0.0550079345703125,-0.02105712890625,-0.1453704833984375
1663861884017450500,9.203450439453125,0.0326385498046875,-0.035980224609375,0.02081298828125
1663861884027307500,9.2133076171875,-0.0089111328125,-0.04449462890625,0.1944427490234375
1663861884037195300,9.2231953125,-0.0600433349609375,-0.071136474609375,0.34783935546875
1663861884047083000,9.2330830078125,-0.1260833740234375,-0.0977630615234375,0.4905853271484375
1663861884056970800,9.242970703125,-0.21343994140625,-0.1307830810546875,0.62481689453125
1663861884066858500,9.2528583984375,-0.306121826171875,-0.1776580810546875,0.7398529052734375
1663861884076746000,9.26274609375,-0.3913421630859375,-0.20855712890625,0.852783203125
1663861884086633700,9.2726337890625,-0.473358154296875,-0.2415771484375,0.9795379638671875
1663861884096521500,9.282521484375,-0.5660400390625,-0.2809906005859375,1.100982666015625
1663861884106409200,9.2924091796875,-0.654449462890625,-0.3012237548828125,1.2085723876953125
1663861884116266200,9.302266357421875,-0.7311553955078125,-0.3001556396484375,1.30657958984375
1663861884126154000,9.312154052734375,-0.7971954345703125,-0.29803466796875,1.4035186767578125
1663861884136041700,9.322041748046875,-0.851531982421875,-0.296966552734375,1.514312744140625
1663861884145929500,9.331929443359375,-0.907989501953125,-0.308685302734375,1.6165771484375
1663861884155817200,9.341817138671875,-0.962310791015625,-0.320404052734375,1.726287841796875
1663861884165704700,9.35170458984375,-1.001739501953125,-0.320404052734375,1.843475341796875
1663861884175592400,9.361592529296875,-1.020904541015625,-0.3022918701171875,1.931884765625
1663861884185480200,9.371480224609375,-1.0294342041015625,-0.2895050048828125,2.002197265625
1663861884195368000,9.381367919921875,-1.044342041015625,-0.2682037353515625,2.083160400390625
1663861884205255700,9.391255615234375,-1.0645751953125,-0.2479705810546875,2.18328857421875
1663861884215112700,9.40111279296875,-1.067779541015625,-0.226654052734375,2.287689208984375
1663861884225000400,9.41100048828125,-1.053924560546875,-0.20428466796875,2.37823486328125
1663861884234888200,9.42088818359375,-1.046478271484375,-0.14996337890625,2.4517364501953125
1663861884244776000,9.43077587890625,-1.0400848388671875,-0.0892333984375,2.5167236328125
1663861884254663700,9.44066357421875,-1.0262298583984375,-0.0295867919921875,2.581695556640625
1663861884264551200,9.45055126953125,-1.0049285888671875,0.023681640625,2.653076171875
1663861884274439000,9.46043896484375,-0.97509765625,0.065216064453125,2.7287139892578125
1663861884284296200,9.470296142578125,-0.952728271484375,0.112091064453125,2.79156494140625
1663861884294184000,9.480183837890625,-0.9484710693359375,0.135528564453125,2.8544158935546875
1663861884304041000,9.490041015625,-0.9378204345703125,0.1397857666015625,2.9204559326171875
1663861884313928700,9.4999287109375,-0.9250335693359375,0.147247314453125,2.984375
1663861884323786000,9.509785888671875,-0.9250335693359375,0.1525726318359375,3.0237884521484375
1663861884333704200,9.5197041015625,-0.93035888671875,0.1983795166015625,3.018463134765625
1663861884343561200,9.529561279296875,-0.9324951171875,0.260162353515625,3.0216522216796875
1663861884353449000,9.539448974609375,-0.9474029541015625,0.23779296875,3.0248565673828125
1663861884363336700,9.549336669921875,-0.9463348388671875,0.1877288818359375,3.0216522216796875
1663861884373224400,9.559224365234375,-0.9207763671875,0.13446044921875,3.0344390869140625
1663861884383112000,9.56911181640625,-0.9026641845703125,0.069488525390625,3.037628173828125
1663861884392969200,9.57896923828125,-0.9133148193359375,0.057769775390625,3.039764404296875
1663861884402887400,9.588887451171875,-0.9452667236328125,0.08013916015625,3.11859130859375
1663861884412775200,9.598775146484375,-0.952728271484375,0.0279388427734375,3.221923828125
1663861884422663000,9.608662841796875,-0.9239654541015625,-0.0391693115234375,3.2954254150390625
1663861884432550700,9.618550537109375,-0.8770904541015625,-0.03277587890625,3.3646697998046875
1663861884442438100,9.628438232421875,-0.818511962890625,-0.0061492919921875,3.415802001953125
1663861884452326000,9.638325927734375,-0.7418060302734375,0.00982666015625,3.4339141845703125
1663861884462213600,9.648213623046875,-0.6619110107421875,0.0268707275390625,3.4126129150390625
1663861884472101400,9.658101318359375,-0.6043853759765625,0.03326416015625,3.3508148193359375
1663861884481958400,9.66795849609375,-0.56817626953125,0.020477294921875,3.300750732421875
1663861884491846100,9.67784619140625,-0.5617828369140625,-0.012542724609375,3.2869110107421875
1663861884501734000,9.68773388671875,-0.5607147216796875,-0.0295867919921875,3.269866943359375
1663861884511591200,9.697591064453125,-0.543670654296875,-0.0061492919921875,3.24322509765625
1663861884521478700,9.707478759765625,-0.5255584716796875,0.043914794921875,3.2080841064453125
1663861884531366400,9.717366455078125,-0.5276947021484375,0.09185791015625,3.1718597412109375
1663861884541223700,9.7272236328125,-0.5543212890625,0.102508544921875,3.1473541259765625
1663861884551111400,9.737111328125,-0.5937347412109375,0.0950469970703125,3.140960693359375
1663861884560999000,9.7469990234375,-0.633148193359375,0.08013916015625,3.1484222412109375
1663861884570886700,9.75688671875,-0.6746978759765625,0.0876007080078125,3.1558837890625
1663861884580774400,9.7667744140625,-0.7215728759765625,0.1600341796875,3.140960693359375
1663861884590662100,9.776662109375,-0.7407379150390625,0.2580413818359375,3.0941009521484375
1663861884600550000,9.7865498046875,-0.7055816650390625,0.3272857666015625,3.0227203369140625
1663861884610437400,9.796437255859376,-0.643798828125,0.3901214599609375,2.92578125
1663861884620325000,9.8063251953125,-0.5926666259765625,0.466827392578125,2.81072998046875
1663861884630212900,9.816212890625,-0.5607147216796875,0.4955902099609375,2.6914215087890625
1663861884640100600,9.8261005859375,-0.562835693359375,0.4593658447265625,2.5880889892578125
1663861884649988400,9.83598828125,-0.609710693359375,0.389068603515625,2.4890289306640625
1663861884659845400,9.845845458984375,-0.6363525390625,0.3560333251953125,2.39208984375
1663861884669733000,9.855733154296875,-0.6619110107421875,0.42315673828125,2.311126708984375
1663861884679620900,9.865620849609375,-0.713043212890625,0.510498046875,2.198211669921875
1663861884689508600,9.875508544921875,-0.771636962890625,0.54779052734375,2.0405426025390625
1663861884699396400,9.885396240234375,-0.7854766845703125,0.522216796875,1.855194091796875
1663861884709283800,9.895283935546875,-0.7194366455078125,0.4391326904296875,1.6868743896484375
1663861884719171600,9.905171630859375,-0.6278228759765625,0.375213623046875,1.5388031005859375
1663861884729059300,9.915059326171875,-0.510650634765625,0.3155670166015625,1.363037109375
1663861884738916600,9.92491650390625,-0.3455352783203125,0.20263671875,1.126556396484375
1663861884748804000,9.93480419921875,-0.153778076171875,0.047119140625,0.790985107421875
1663861884758691800,9.94469189453125,0.0017547607421875,-0.1212005615234375,0.419219970703125
1663861884768579600,9.95457958984375,0.109344482421875,-0.283111572265625,0.109222412109375
1663861884778467300,9.96446728515625,0.1721954345703125,-0.4077606201171875,-0.0654754638671875
1663861884788324400,9.974324462890625,0.18603515625,-0.4631500244140625,-0.116607666015625
1663861884798212000,9.984212158203125,0.18603515625,-0.4791259765625,-0.1144866943359375
1663861884808069400,9.9940693359375,0.1945648193359375,-0.433319091796875,-0.109161376953125
1663861884817957000,10.00395703125,0.20947265625,-0.3235931396484375,-0.12939453125
1663861884827814100,10.013814208984375,0.220123291015625,-0.2096099853515625,-0.1826629638671875
1663861884837732400,10.023732421875,0.2169342041015625,-0.113739013671875,-0.23272705078125
1663861884847620000,10.0336201171875,0.1913604736328125,-0.0413055419921875,-0.2401885986328125
1663861884857507800,10.0435078125,0.1487579345703125,0.0140838623046875,-0.1922454833984375
1663861884867364900,10.05336474609375,0.097625732421875,0.0598907470703125,-0.0985107421875
1663861884877252600,10.063252685546875,0.039031982421875,0.057769775390625,-0.005828857421875
1663861884887140400,10.073140380859375,-0.0131683349609375,-0.03277587890625,0.043182373046875
1663861884897028000,10.083028076171875,-0.0440521240234375,-0.17340087890625,0.041046142578125
1663861884906885400,10.092885498046876,-0.06536865234375,-0.318267822265625,0.0144195556640625
1663861884916803600,10.102803466796875,-0.0909271240234375,-0.435455322265625,-0.003692626953125
1663861884926660600,10.11266064453125,-0.1165008544921875,-0.4791259765625,-0.0005035400390625
1663861884936548400,10.12254833984375,-0.1473846435546875,-0.456756591796875,0.02825927734375
1663861884946436000,10.13243603515625,-0.1644287109375,-0.4152069091796875,0.0559539794921875
1663861884956293000,10.142293212890625,-0.1601715087890625,-0.3896484375,0.0453033447265625
1663861884966211300,10.15221142578125,-0.144195556640625,-0.3843231201171875,-0.0015716552734375
1663861884976099000,10.16209912109375,-0.1271514892578125,-0.3800506591796875,-0.0537567138671875
1663861884985986800,10.17198681640625,-0.109039306640625,-0.3694000244140625,-0.0985107421875
1663861884995874600,10.18187451171875,-0.08880615234375,-0.353424072265625,-0.13897705078125
1663861885005731600,10.191731689453125,-0.07281494140625,-0.34063720703125,-0.177337646484375
1663861885015588900,10.2015888671875,-0.0589752197265625,-0.322540283203125,-0.21142578125
1663861885025507000,10.211507080078125,-0.0440521240234375,-0.294830322265625,-0.2476348876953125
1663861885035364400,10.2213642578125,-0.0206298828125,-0.261810302734375,-0.290252685546875
1663861885045251800,10.231251953125,0.0081329345703125,-0.2373046875,-0.3477783203125
1663861885055170000,10.241170166015625,0.04010009765625,-0.2213287353515625,-0.4223480224609375
1663861885065027300,10.25102734375,0.0784454345703125,-0.20855712890625,-0.5150299072265625
1663861885074915000,10.2609150390625,0.12957763671875,-0.20428466796875,-0.63006591796875
1663861885084802800,10.270802734375,0.1924285888671875,-0.2117462158203125,-0.755767822265625
1663861885094690300,10.280690185546876,0.2616729736328125,-0.242645263671875,-0.8814697265625
1663861885104578000,10.290578125,0.3298492431640625,-0.2820587158203125,-1.0029144287109375
1663861885114465800,10.3004658203125,0.393768310546875,-0.3257293701171875,-1.123291015625
1663861885124323000,10.310322998046875,0.4630126953125,-0.3811187744140625,-1.25006103515625
1663861885134210800,10.3202109375,0.5258636474609375,-0.4279937744140625,-1.3928070068359375
1663861885144098300,10.330098388671875,0.5812530517578125,-0.46527099609375,-1.5611114501953125
1663861885153986000,10.339986083984375,0.622802734375,-0.50042724609375,-1.770965576171875
1663861885163873800,10.349873779296875,0.6504974365234375,-0.5760650634765625,-1.9946746826171875
1663861885173761500,10.359761474609375,0.6835174560546875,-0.6815338134765625,-2.2109222412109375
1663861885183649300,10.369649169921875,0.734649658203125,-0.7678070068359375,-2.4506072998046875
1663861885193506300,10.37950634765625,0.7985687255859375,-0.7869873046875,-2.7520751953125
1663861885203394000,10.38939404296875,0.861419677734375,-0.7273406982421875,-3.10894775390625
1663861885213251300,10.399251220703125,0.8955078125,-0.7262725830078125,-3.40081787109375
1663861885223138800,10.409138916015625,0.962615966796875,-0.821075439453125,-3.5137481689453125
1663861885233057000,10.41905712890625,1.07659912109375,-0.8050994873046875,-3.4732666015625
1663861885242944800,10.42894482421875,1.136260986328125,-0.5632781982421875,-3.3262481689453125
1663861885252832500,10.43883251953125,1.0947113037109375,-0.21600341796875,-3.1014862060546875
1663861885262689800,10.448689697265625,1.01055908203125,0.05670166015625,-2.8170623779296875
1663861885272577300,10.458577392578125,0.9785919189453125,0.2111663818359375,-2.55712890625
1663861885282465000,10.468465087890625,1.01800537109375,0.2814788818359375,-2.4165191650390625
1663861885292322300,10.478322265625,1.096832275390625,0.4061126708984375,-2.44635009765625
1663861885302240500,10.488240478515625,1.1618194580078125,0.6702880859375,-2.581634521484375
1663861885312128300,10.498128173828125,1.18951416015625,0.9163665771484375,-2.7691192626953125
1663861885321985300,10.5079853515625,1.1756744384765625,0.9547119140625,-2.9619293212890625
1663861885331873000,10.517873046875,1.1138763427734375,0.7565765380859375,-3.070587158203125
1663861885341760800,10.5277607421875,1.0201416015625,0.47747802734375,-3.0183868408203125
1663861885351648500,10.5376484375,0.9210662841796875,0.2931976318359375,-2.8585968017578125
1663861885361536300,10.547536376953126,0.804962158203125,0.1216888427734375,-2.7872314453125
1663861885371393300,10.557393310546875,0.6803131103515625,-0.04449462890625,-2.844757080078125
1663861885381311500,10.5673115234375,0.6142730712890625,-0.2341156005859375,-2.9981536865234375
1663861885391199200,10.57719921875,0.63238525390625,-0.4322509765625,-3.1835174560546875
1663861885401056500,10.587056396484375,0.6504974365234375,-0.5536956787109375,-3.277252197265625
1663861885410944000,10.596944091796875,0.7165374755859375,-0.4833831787109375,-3.2474212646484375
1663861885420801300,10.60680126953125,0.8795318603515625,-0.4173431396484375,-3.12066650390625
1663861885430719500,10.616719482421875,1.0840606689453125,-0.57073974609375,-2.9757843017578125
1663861885440576800,10.62657666015625,1.226806640625,-0.4983062744140625,-2.910797119140625
1663861885450464300,10.63646435546875,1.28326416015625,-0.1073455810546875,-2.8724517822265625
1663861885460352000,10.64635205078125,1.3045654296875,0.271881103515625,-2.8692626953125
1663861885470239700,10.65623974609375,1.31842041015625,0.4625701904296875,-2.9086761474609375
1663861885480097000,10.666096923828125,1.3556976318359375,0.545654296875,-2.922515869140625
1663861885490015200,10.67601513671875,1.4568939208984375,0.6468505859375,-2.9384918212890625
1663861885499872300,10.685872314453125,1.51123046875,0.6074371337890625,-2.934234619140625
1663861885509760000,10.695760009765625,1.4824676513671875,0.5168914794921875,-2.911865234375
1663861885519647700,10.705647705078125,1.362091064453125,0.50091552734375,-2.90228271484375
1663861885529535500,10.715535400390625,1.131988525390625,0.4018402099609375,-2.888427734375
1663861885539423000,10.725423095703125,0.882720947265625,0.2356719970703125,-2.8692626953125
1663861885549310700,10.735310791015625,0.699493408203125,0.1216888427734375,-2.7957611083984375
1663861885559198500,10.745198486328125,0.6377105712890625,0.205841064453125,-2.73077392578125
1663861885569086200,10.755086181640625,0.748504638671875,0.2761383056640625,-2.649810791015625
1663861885578974000,10.764973876953125,0.9849853515625,0.2122344970703125,-2.478302001953125
1663861885588861700,10.77486181640625,1.2395782470703125,0.2665557861328125,-2.3856201171875
1663861885598749200,10.784749267578125,1.42919921875,0.3720245361328125,-2.4143829345703125
1663861885608637000,10.794636962890625,1.430267333984375,0.4071807861328125,-2.3973388671875
1663861885618494200,10.804494140625,1.215087890625,0.37841796875,-2.318511962890625
1663861885628382000,10.8143818359375,0.8997650146484375,0.238861083984375,-2.231170654296875
1663861885638269400,10.82426953125,0.6771240234375,0.1557769775390625,-2.1288909912109375
1663861885648157200,10.8341572265625,0.6036224365234375,0.147247314453125,-1.9936065673828125
1663861885658045000,10.844044921875,0.6504974365234375,0.217559814453125,-1.8593902587890625
1663861885667932700,10.8539326171875,0.7431640625,0.37628173828125,-1.7581787109375
1663861885677789700,10.863789794921875,0.8134765625,0.490264892578125,-1.67083740234375
1663861885687647000,10.87364697265625,0.8294525146484375,0.535003662109375,-1.60052490234375
1663861885697565200,10.883565185546875,0.7783203125,0.5307464599609375,-1.52276611328125
1663861885707453000,10.893452880859375,0.6600799560546875,0.513702392578125,-1.430084228515625
1663861885717310000,10.90331005859375,0.518402099609375,0.457244873046875,-1.3565826416015625
1663861885727167200,10.913167236328125,0.39056396484375,0.377349853515625,-1.272430419921875
1663861885737085400,10.92308544921875,0.2968292236328125,0.29638671875,-1.202117919921875
1663861885746942700,10.932942626953125,0.222259521484375,0.2431182861328125,-1.1381988525390625
1663861885756861000,10.94286083984375,0.175384521484375,0.248443603515625,-1.0370025634765625
1663861885766718000,10.952718017578125,0.1562042236328125,0.252716064453125,-0.9400634765625
1663861885776605700,10.962605712890625,0.11785888671875,0.191986083984375,-0.8090362548828125
1663861885786493400,10.972493408203125,0.07098388671875,0.1898651123046875,-0.6737518310546875
1663861885796381200,10.982381103515625,0.0379638671875,0.194122314453125,-0.531005859375
1663861885806238200,10.99223828125,0.0198516845703125,0.161102294921875,-0.403167724609375
1663861885816126000,11.0021259765625,0.006011962890625,0.1291351318359375,-0.276397705078125
1663861885826013700,11.012013671875,-0.0153045654296875,0.1089019775390625,-0.1272735595703125
1663861885835901400,11.0219013671875,-0.05364990234375,0.058837890625,0.0112152099609375
1663861885845789200,11.0317890625,-0.0941314697265625,-0.0082855224609375,0.1369171142578125
1663861885855646200,11.041646240234375,-0.1271514892578125,-0.058349609375,0.25836181640625
1663861885865564400,11.051564453125,-0.1612396240234375,-0.0732574462890625,0.384063720703125
1663861885875452200,11.0614521484375,-0.200653076171875,-0.0977630615234375,0.5257415771484375
1663861885885309400,11.071309326171875,-0.2464599609375,-0.146759033203125,0.654632568359375
1663861885895227600,11.0812275390625,-0.2954559326171875,-0.1947021484375,0.7643585205078125
1663861885905115100,11.091115234375,-0.359375,-0.2213287353515625,0.8794097900390625
1663861885914972400,11.100972412109375,-0.4339447021484375,-0.250091552734375,0.9923248291015625
1663861885924860200,11.110860107421875,-0.496795654296875,-0.2841796875,1.09991455078125
1663861885934748000,11.120747802734375,-0.5585784912109375,-0.3001556396484375,1.2192230224609375
1663861885944635400,11.130635498046875,-0.62249755859375,-0.33319091796875,1.35345458984375
1663861885954523100,11.140523193359375,-0.680023193359375,-0.3470306396484375,1.486602783203125
1663861885964411000,11.150410888671875,-0.7300872802734375,-0.3385162353515625,1.605926513671875
1663861885974298600,11.160298583984375,-0.7769622802734375,-0.3363800048828125,1.693267822265625
1663861885984155600,11.17015576171875,-0.818511962890625,-0.3353118896484375,1.7710418701171875
1663861885994013000,11.180012939453125,-0.849395751953125,-0.3118743896484375,1.86798095703125
1663861886003900700,11.189900634765625,-0.8685760498046875,-0.2692718505859375,1.9734344482421875
1663861886013788400,11.199788330078125,-0.882415771484375,-0.226654052734375,2.069305419921875
1663861886023706600,11.20970654296875,-0.9015960693359375,-0.184051513671875,2.151336669921875
1663861886033563600,11.219563720703125,-0.9271697998046875,-0.13824462890625,2.2237701416015625
1663861886043421000,11.2294208984375,-0.93994140625,-0.078582763671875,2.2951507568359375
1663861886053339100,11.239339111328125,-0.9463348388671875,-0.0200042724609375,2.355865478515625
1663861886063227000,11.249226806640625,-0.950592041015625,0.0300750732421875,2.412322998046875
1663861886073114600,11.259114501953125,-0.9452667236328125,0.0748138427734375,2.4815673828125
1663861886083002000,11.269002197265625,-0.931427001953125,0.1014404296875,2.559326171875
1663861886092889900,11.278889892578125,-0.9250335693359375,0.1216888427734375,2.63177490234375
1663861886102747100,11.2887470703125,-0.917572021484375,0.137664794921875,2.6946258544921875
1663861886112604200,11.298604248046875,-0.90692138671875,0.145111083984375,2.7500152587890625
1663861886122522400,11.3085224609375,-0.8888092041015625,0.1397857666015625,2.7926177978515625
1663861886132410000,11.31841015625,-0.8557891845703125,0.1365966796875,2.8160552978515625
1663861886142297900,11.3282978515625,-0.8312835693359375,0.125946044921875,2.8181915283203125
1663861886152185600,11.338185546875,-0.814239501953125,0.0726776123046875,2.8245849609375
1663861886162073300,11.3480732421875,-0.7993316650390625,-0.0157318115234375,2.8416290283203125
1663861886171960800,11.3579609375,-0.7918701171875,-0.0977630615234375,2.8618621826171875
1663861886181848600,11.3678486328125,-0.771636962890625,-0.10308837890625,2.86932373046875
1663861886191736300,11.377736328125,-0.736480712890625,-0.0423736572265625,2.8426971435546875
1663861886201624000,11.3876240234375,-0.7194366455078125,-0.000823974609375,2.8128662109375
1663861886211511800,11.39751171875,-0.6970672607421875,-0.0061492919921875,2.8160552978515625
1663861886221399300,11.4073994140625,-0.6736297607421875,0.00238037109375,2.8533477783203125
1663861886231256600,11.417256591796875,-0.6640472412109375,0.057769775390625,2.9066009521484375
1663861886241113900,11.42711376953125,-0.658721923828125,0.1078338623046875,2.984375
1663861886251001300,11.43700146484375,-0.6608428955078125,0.0982513427734375,3.0589447021484375
1663861886260889000,11.44688916015625,-0.656585693359375,0.0854644775390625,3.107940673828125
1663861886270776800,11.45677685546875,-0.635284423828125,0.0971832275390625,3.117523193359375
1663861886280634000,11.466634033203125,-0.59906005859375,0.1302032470703125,3.0781097412109375
1663861886290521600,11.476521484375,-0.5607147216796875,0.149383544921875,3.0152587890625
1663861886300409300,11.486409423828125,-0.5394134521484375,0.125946044921875,2.9875640869140625
1663861886310297000,11.496297119140625,-0.52874755859375,0.08013916015625,2.9801177978515625
1663861886320184800,11.506184814453125,-0.5383453369140625,0.070556640625,3.0024871826171875
1663861886330072600,11.516072509765625,-0.5713653564453125,0.079071044921875,3.065338134765625
1663861886339960300,11.525960205078125,-0.6246337890625,0.0780029296875,3.11859130859375
1663861886349847800,11.535847900390625,-0.6864166259765625,0.036468505859375,3.1676025390625
1663861886359735600,11.545735595703125,-0.7567138671875,-0.045562744140625,3.233642578125
1663861886369623300,11.555623291015625,-0.8557891845703125,-0.1126708984375,3.302886962890625
1663861886379511000,11.565510986328125,-0.9591217041015625,-0.151031494140625,3.3625335693359375
1663861886389398800,11.575398681640625,-1.053924560546875,-0.14996337890625,3.404083251953125
1663861886399255800,11.585255859375,-1.1327667236328125,-0.1073455810546875,3.425384521484375
1663861886409143600,11.5951435546875,-1.1306304931640625,-0.071136474609375,3.39556884765625
1663861886419031300,11.60503125,-1.0762939453125,-0.0189361572265625,3.2996826171875
1663861886428919000,11.6149189453125,-1.056060791015625,0.081207275390625,3.1729278564453125
1663861886438776000,11.624776123046875,-1.0965423583984375,0.1898651123046875,3.0355072021484375
1663861886448633300,11.63463330078125,-1.1508636474609375,0.2814788818359375,2.8831787109375
1663861886458551600,11.644551513671875,-1.171112060546875,0.330474853515625,2.7244415283203125
1663861886468439300,11.654439208984375,-1.1412811279296875,0.3507080078125,2.5774383544921875
1663861886478326800,11.664326904296875,-1.079498291015625,0.3922576904296875,2.4432220458984375
1663861886488184000,11.67418408203125,-1.00811767578125,0.4476470947265625,2.31964111328125
1663861886498071800,11.68407177734375,-0.9048004150390625,0.4412689208984375,2.2109832763671875
1663861886507959600,11.69395947265625,-0.772705078125,0.3741455078125,2.0650482177734375
1663861886517847000,11.703846923828126,-0.6491241455078125,0.318756103515625,1.88714599609375
1663861886527704300,11.713704345703125,-0.5457916259765625,0.3251495361328125,1.7230987548828125
1663861886537622500,11.72362255859375,-0.4605712890625,0.3603057861328125,1.5888824462890625
1663861886547510300,11.73351025390625,-0.3647003173828125,0.330474853515625,1.4482574462890625
1663861886557367600,11.743367431640625,-0.2347412109375,0.1717529296875,1.2384033203125
1663861886567255000,11.753255126953125,-0.097320556640625,-0.0753936767578125,0.966766357421875
1663861886577142800,11.763142822265625,0.0081329345703125,-0.3033599853515625,0.7185516357421875
1663861886587000000,11.773,0.05181884765625,-0.4290618896484375,0.5491790771484375
1663861886596887800,11.7828876953125,0.05181884765625,-0.435455322265625,0.4597015380859375
1663861886606775300,11.792775390625,0.0337066650390625,-0.374725341796875,0.37127685546875
1663861886616663000,11.8026630859375,0.0209197998046875,-0.2799224853515625,0.237060546875
1663861886626520300,11.812520263671875,0.04010009765625,-0.1307830810546875,0.0943145751953125
1663861886636438500,11.8224384765625,0.0912322998046875,0.055633544921875,-0.027130126953125
1663861886646326300,11.832326171875,0.1349029541015625,0.2239532470703125,-0.1144866943359375
1663861886656213800,11.8422138671875,0.1551513671875,0.332611083984375,-0.1453704833984375
1663861886666071000,11.852071044921875,0.1679229736328125,0.3975830078125,-0.10809326171875
1663861886675958800,11.861958740234375,0.1700592041015625,0.4061126708984375,-0.0558929443359375
1663861886685846500,11.871846435546875,0.1594085693359375,0.304901123046875,-0.0313873291015625
1663861886695734000,11.881734130859375,0.140228271484375,0.135528564453125,-0.036712646484375
1663861886705591300,11.89159130859375,0.1125335693359375,-0.0317230224609375,-0.0431060791015625
1663861886715509500,11.901509521484375,0.0731201171875,-0.1765899658203125,-0.0313873291015625
1663861886725397200,11.911397216796875,0.0230560302734375,-0.322540283203125,-0.0239410400390625
1663861886735254300,11.921254150390626,-0.029144287109375,-0.431182861328125,-0.0196685791015625
1663861886745142000,11.93114208984375,-0.0696258544921875,-0.4482269287109375,0.0133514404296875
1663861886754999300,11.940999267578125,-0.10052490234375,-0.4045562744140625,0.062347412109375
1663861886764917500,11.95091748046875,-0.1282196044921875,-0.355560302734375,0.0911102294921875
1663861886774805200,11.96080517578125,-0.14312744140625,-0.3246612548828125,0.084716796875
1663861886784693000,11.97069287109375,-0.1409912109375,-0.3044281005859375,0.0580902099609375
1663861886794580500,11.98058056640625,-0.1260833740234375,-0.287384033203125,0.02825927734375
1663861886804468200,11.99046826171875,-0.1026458740234375,-0.2777862548828125,-0.0005035400390625
1663861886814356000,12.00035595703125,-0.0696258544921875,-0.2937774658203125,-0.0399169921875
1663861886824243700,12.01024365234375,-0.0238189697265625,-0.3480987548828125,-0.0910491943359375
1663861886834100700,12.020100830078125,0.0209197998046875,-0.41094970703125,-0.1602935791015625
1663861886843988500,12.029988525390625,0.0571441650390625,-0.4599456787109375,-0.2497711181640625
1663861886853876200,12.039876220703125,0.0901641845703125,-0.4940338134765625,-0.346710205078125
1663861886863764000,12.049763916015625,0.1253204345703125,-0.4908447265625,-0.452178955078125
1663861886873651700,12.059651611328125,0.1785736083984375,-0.4610137939453125,-0.560821533203125
1663861886883539200,12.069539306640625,0.245697021484375,-0.42266845703125,-0.6598968505859375
1663861886893427000,12.079427001953125,0.3202667236328125,-0.4045562744140625,-0.7451171875
1663861886903284200,12.0892841796875,0.3958892822265625,-0.409881591796875,-0.8207550048828125
1663861886913172000,12.099171875,0.4630126953125,-0.4279937744140625,-0.905975341796875
1663861886923059500,12.1090595703125,0.516265869140625,-0.458892822265625,-1.0252838134765625
1663861886932947200,12.118947265625,0.565277099609375,-0.4844512939453125,-1.181884765625
1663861886942804500,12.128804443359375,0.6153411865234375,-0.5068206787109375,-1.373626708984375
1663861886952692200,12.138692138671875,0.66754150390625,-0.524932861328125,-1.5962677001953125
1663861886962549200,12.14854931640625,0.7282562255859375,-0.550506591796875,-1.8284912109375
1663861886972467500,12.158467529296875,0.7868499755859375,-0.5664825439453125,-2.055389404296875
1663861886982355200,12.168355224609375,0.8411712646484375,-0.527069091796875,-2.2801666259765625
1663861886992212500,12.17821240234375,0.884857177734375,-0.3970947265625,-2.503875732421875
1663861887002100000,12.188099853515626,0.9423828125,-0.217071533203125,-2.70733642578125
1663861887011987700,12.19798779296875,1.00628662109375,-0.0839080810546875,-2.8458251953125
1663861887021875500,12.20787548828125,1.052093505859375,-0.023193359375,-2.911865234375
1663861887031732700,12.217732666015625,1.0787353515625,0.0151519775390625,-2.8958892822265625
1663861887041620500,12.227620361328125,1.0584869384765625,0.081207275390625,-2.774444580078125
1663861887051538700,12.23753857421875,0.972198486328125,0.227142333984375,-2.5528717041015625
1663861887061395700,12.247395751953125,0.8422393798828125,0.386932373046875,-2.271636962890625
1663861887071283500,12.257283447265625,0.725067138671875,0.4497833251953125,-2.0489959716796875
1663861887081140700,12.267140625,0.643035888671875,0.3485870361328125,-1.99786376953125
1663861887091059000,12.277058837890625,0.63238525390625,0.20477294921875,-2.17364501953125
1663861887100916000,12.286916015625,0.6771240234375,0.156829833984375,-2.4857635498046875
1663861887110803700,12.2968037109375,0.69097900390625,0.147247314453125,-2.69775390625
1663861887120691500,12.30669140625,0.640899658203125,0.0609588623046875,-2.6679229736328125
1663861887130579200,12.3165791015625,0.553558349609375,-0.0604705810546875,-2.4878997802734375
1663861887140466700,12.326466796875,0.4789886474609375,-0.1403656005859375,-2.36431884765625
1663861887150354400,12.3363544921875,0.44915771484375,-0.1765899658203125,-2.38775634765625
1663861887160242200,12.3462421875,0.4683380126953125,-0.1648712158203125,-2.513458251953125
1663861887170130000,12.3561298828125,0.5109405517578125,-0.1446380615234375,-2.647674560546875
1663861887179987000,12.365987060546875,0.540771484375,-0.2543487548828125,-2.7158660888671875
1663861887189874700,12.375874755859375,0.5567474365234375,-0.4855194091796875,-2.727569580078125
1663861887199762400,12.385762451171875,0.600433349609375,-0.5867156982421875,-2.6934814453125
1663861887209650200,12.395650146484375,0.758087158203125,-0.580322265625,-2.7041473388671875
1663861887219538000,12.405537841796875,1.0052337646484375,-0.5078887939453125,-2.7606048583984375
1663861887229425400,12.41542529296875,1.249176025390625,-0.3544921875,-2.73077392578125
1663861887239313200,12.425313232421875,1.4568939208984375,-0.2298583984375,-2.6924285888671875
1663861887249201000,12.435200927734375,1.6241455078125,-0.1425018310546875,-2.6785736083984375
1663861887259088600,12.445088623046875,1.705108642578125,-0.0530242919921875,-2.649810791015625
1663861887268976400,12.454976318359375,1.701904296875,0.034332275390625,-2.6316986083984375
1663861887278864100,12.464864013671875,1.6656951904296875,0.180267333984375,-2.5901641845703125
1663861887288751600,12.474751708984375,1.613494873046875,0.398651123046875,-2.525177001953125
1663861887298639400,12.484639404296875,1.557037353515625,0.501983642578125,-2.4857635498046875
1663861887308527000,12.494527099609375,1.5517120361328125,0.4284820556640625,-2.4868316650390625
1663861887318384400,12.50438427734375,1.5506439208984375,0.4156951904296875,-2.5763092041015625
1663861887328272000,12.51427197265625,1.46649169921875,0.4955902099609375,-2.7233123779296875
1663861887338159600,12.52415966796875,1.3098907470703125,0.4593658447265625,-2.830902099609375
1663861887348047400,12.53404736328125,1.1192169189453125,0.3475189208984375,-2.819183349609375
1663861887357935000,12.54393505859375,0.9232025146484375,0.344329833984375,-2.7499542236328125
1663861887367822800,12.55382275390625,0.769805908203125,0.4263458251953125,-2.68603515625
1663861887377680000,12.563679931640625,0.6856536865234375,0.5509796142578125,-2.6018829345703125
1663861887387567600,12.573567626953125,0.7293243408203125,0.624481201171875,-2.499603271484375
1663861887397455400,12.583455322265625,0.89337158203125,0.647918701171875,-2.443145751953125
1663861887407343000,12.593343017578125,1.1255950927734375,0.7363433837890625,-2.4836273193359375
1663861887417230600,12.603230712890625,1.2928466796875,0.5776214599609375,-2.48895263671875
1663861887427118300,12.613118408203125,1.305633544921875,0.32940673828125,-2.4207763671875
1663861887437006000,12.623006103515625,1.14263916015625,0.28680419921875,-2.3856201171875
1663861887446863400,12.63286328125,0.8528900146484375,0.271881103515625,-2.31744384765625
1663861887456750800,12.642750732421876,0.5673980712890625,0.1557769775390625,-2.180023193359375
1663861887466638600,12.652638671875,0.4576873779296875,0.0833282470703125,-2.031951904296875
1663861887476526300,12.6625263671875,0.4992218017578125,0.1014404296875,-1.9371490478515625
1663861887486414000,12.6724140625,0.5897674560546875,0.1099700927734375,-1.8806915283203125
1663861887496301800,12.6823017578125,0.6707305908203125,0.0833282470703125,-1.819976806640625
1663861887506189600,12.692189453125,0.6963043212890625,0.0034332275390625,-1.7432708740234375
1663861887516046600,12.702046630859375,0.6707305908203125,0.00982666015625,-1.6644439697265625
1663861887525934300,12.711934326171875,0.596160888671875,0.1056976318359375,-1.519561767578125
1663861887535791600,12.72179150390625,0.5322418212890625,0.123809814453125,-1.3470001220703125
1663861887545679000,12.73167919921875,0.527984619140625,0.09185791015625,-1.1861419677734375
1663861887555566800,12.74156689453125,0.553558349609375,0.09185791015625,-1.0476531982421875
1663861887565454600,12.75145458984375,0.57379150390625,0.081207275390625,-0.9166259765625
1663861887575312000,12.761311767578125,0.572723388671875,0.0748138427734375,-0.7919921875
1663861887585199400,12.771199462890625,0.5365142822265625,0.067352294921875,-0.644989013671875
1663861887595087000,12.781087158203125,0.4683380126953125,0.0620269775390625,-0.507568359375
1663861887604944400,12.7909443359375,0.3958892822265625,0.067352294921875,-0.38079833984375
1663861887614862600,12.800862548828125,0.3287811279296875,0.100372314453125,-0.255096435546875
1663861887624719600,12.8107197265625,0.2478179931640625,0.1056976318359375,-0.1368560791015625
1663861887634637800,12.820637939453125,0.1381072998046875,0.070556640625,-0.0399169921875
1663861887644525600,12.830525634765625,-0.0035858154296875,0.0417938232421875,0.0357208251953125
1663861887654413300,12.840413330078125,-0.1601715087890625,0.0172882080078125,0.111358642578125
1663861887664301000,12.850301025390625,-0.2954559326171875,-0.000823974609375,0.202972412109375
1663861887674188800,12.860188720703125,-0.4115753173828125,-0.0072174072265625,0.2977752685546875
1663861887684085000,12.8700849609375,-0.5266265869140625,-0.02105712890625,0.3883209228515625
1663861887693972700,12.87997265625,-0.635284423828125,-0.058349609375,0.486328125
1663861887703860200,12.889860107421875,-0.7322235107421875,-0.1094818115234375,0.5875244140625
1663861887713687000,12.89968701171875,-0.8206329345703125,-0.1425018310546875,0.6865997314453125
1663861887723544000,12.9095439453125,-0.8973388671875,-0.162750244140625,0.8005828857421875
1663861887733462300,12.919462158203125,-0.9719085693359375,-0.1861724853515625,0.917755126953125
1663861887743350000,12.92935009765625,-1.032623291015625,-0.203216552734375,1.0178985595703125
1663861887753237800,12.93923779296875,-1.0603179931640625,-0.2106781005859375,1.1180267333984375
1663861887763125500,12.94912548828125,-1.08056640625,-0.219207763671875,1.2309417724609375
1663861887772982500,12.958982421875,-1.09228515625,-0.2245330810546875,1.3491973876953125
1663861887782870300,12.968870361328126,-1.0954742431640625,-0.2298583984375,1.4759521484375
1663861887792758000,12.978758056640626,-1.10186767578125,-0.214935302734375,1.5878143310546875
1663861887802615300,12.988615234375,-1.100799560546875,-0.1861724853515625,1.6783599853515625
1663861887812502800,12.998502685546875,-1.100799560546875,-0.1638031005859375,1.7667694091796875
1663861887822390500,13.008390625,-1.110382080078125,-0.1094818115234375,1.8541259765625
1663861887832308700,13.018308837890626,-1.1199798583984375,-0.069000244140625,1.9308319091796875
