time,seconds_elapsed,z,y,x
1663861875073297200,0.259297119140625,-0.3006591796875,-0.2503814697265625,-0.06219482421875
1663861875083184600,0.2691845703125,-0.405059814453125,-0.5017852783203125,0.1497955322265625
1663861875093102800,0.279102783203125,-0.5350189208984375,-0.64239501953125,0.2872161865234375
1663861875102990600,0.288990478515625,-0.62237548828125,-0.5571746826171875,0.3724365234375
1663861875112878300,0.29887841796875,-0.68096923828125,-0.2706146240234375,0.4001312255859375
1663861875122766000,0.30876611328125,-0.7288970947265625,-0.0074920654296875,0.3532562255859375
1663861875132623000,0.318623046875,-0.7427520751953125,0.1405792236328125,0.2552490234375
1663861875142480400,0.32848046875,-0.7139892578125,0.167205810546875,0.1497955322265625
1663861875152368000,0.3383681640625,-0.55206298828125,0.0052947998046875,0.0571136474609375
1663861875162225200,0.34822509765625,-0.346466064453125,-0.2482452392578125,0.0091705322265625
1663861875172113000,0.35811279296875,-0.1973419189453125,-0.4218902587890625,0.004913330078125
1663861875182031000,0.368031005859375,-0.118499755859375,-0.5688934326171875,0.0177001953125
1663861875191888400,0.377888427734375,-0.1014556884765625,-0.6242828369140625,0.082672119140625
1663861875201776000,0.387776123046875,-0.14300537109375,-0.54864501953125,0.188140869140625
1663861875211664000,0.397663818359375,-0.234619140625,-0.4197540283203125,0.2850799560546875
1663861875221521000,0.40752099609375,-0.3592529296875,-0.3377227783203125,0.3489990234375
1663861875231408600,0.41740869140625,-0.4796295166015625,-0.2940521240234375,0.347930908203125
1663861875241326800,0.427326904296875,-0.5233001708984375,-0.458099365234375,0.28082275390625
1663861875251214600,0.437214599609375,-0.438079833984375,-0.7734222412109375,0.2435302734375
1663861875261071600,0.447071533203125,-0.266571044921875,-0.9225616455078125,0.30426025390625
1663861875270959400,0.45695947265625,-0.08441162109375,-0.92681884765625,0.4192962646484375
1663861875280847000,0.46684716796875,0.0615234375,-0.7712860107421875,0.5013275146484375
1663861875290734800,0.47673486328125,0.1488800048828125,-0.5358734130859375,0.4970703125
1663861875300622600,0.48662255859375,0.1627197265625,-0.3845977783203125,0.429962158203125
1663861875310510000,0.496510009765625,0.1201171875,-0.3611602783203125,0.359649658203125
1663861875320397800,0.506397705078125,0.0700531005859375,-0.378204345703125,0.3607177734375
1663861875330285600,0.51628564453125,0.029571533203125,-0.436798095703125,0.474700927734375
1663861875340173300,0.52617333984375,-0.0258331298828125,-0.6349334716796875,0.6568603515625
1663861875350061000,0.53606103515625,-0.1280975341796875,-0.8852691650390625,0.8645782470703125
1663861875359918000,0.54591796875,-0.270843505859375,-1.038665771484375,1.0605926513671875
1663861875369805800,0.555805908203125,-0.4061279296875,-1.1015167236328125,1.1532745361328125
1663861875379693600,0.565693603515625,-0.43914794921875,-1.0365447998046875,1.10321044921875
1663861875389581300,0.575581298828125,-0.3549957275390625,-0.8639678955078125,0.930633544921875
1663861875399469000,0.585468994140625,-0.1728363037109375,-0.5550384521484375,0.7314300537109375
1663861875409356500,0.5953564453125,-0.0162353515625,-0.31109619140625,0.509857177734375
1663861875419244300,0.605244384765625,0.0231781005859375,-0.2056427001953125,0.2967987060546875
1663861875429132000,0.615132080078125,0.0146484375,-0.16302490234375,0.1966705322265625
1663861875439019800,0.625019775390625,-0.0119781494140625,-0.185394287109375,0.2041168212890625
1663861875448907500,0.634907470703125,-0.0716400146484375,-0.219482421875,0.242462158203125
1663861875458764500,0.6447646484375,-0.132354736328125,-0.2237396240234375,0.1934661865234375
1663861875468652300,0.65465234375,-0.1174468994140625,-0.1928558349609375,0.060302734375
1663861875478540000,0.6645400390625,-0.0364837646484375,-0.183258056640625,-0.1016082763671875
1663861875488427800,0.674427734375,0.0647125244140625,-0.222686767578125,-0.18896484375
1663861875498315300,0.684315185546875,0.154205322265625,-0.2599639892578125,-0.094146728515625
1663861875508203000,0.694203125,0.1808319091796875,-0.3377227783203125,0.1125030517578125
1663861875518060300,0.704060302734375,0.1584625244140625,-0.4847412109375,0.30426025390625
1663861875527948000,0.713947998046875,0.1435546875,-0.551849365234375,0.3745574951171875
1663861875537835500,0.72383544921875,0.1499481201171875,-0.5007171630859375,0.2967987060546875
1663861875547723300,0.73372314453125,0.1744384765625,-0.38885498046875,0.12847900390625
1663861875557611000,0.743611083984375,0.196807861328125,-0.333465576171875,-0.0440826416015625
1663861875567498800,0.753498779296875,0.2245025634765625,-0.36541748046875,-0.131439208984375
1663861875577386500,0.763386474609375,0.26605224609375,-0.4410552978515625,-0.119720458984375
1663861875587243500,0.773243408203125,0.2980194091796875,-0.549713134765625,-0.0217132568359375
1663861875597131300,0.78313134765625,0.325714111328125,-0.64453125,0.1604461669921875
1663861875607019000,0.79301904296875,0.3097381591796875,-0.6381378173828125,0.324493408203125
1663861875616906800,0.80290673828125,0.2372894287109375,-0.6349334716796875,0.3873443603515625
1663861875626794500,0.81279443359375,0.1786956787109375,-0.6818084716796875,0.35858154296875
1663861875636682000,0.822681884765625,0.1605987548828125,-0.6924591064453125,0.2872161865234375
1663861875646539300,0.832539306640625,0.220245361328125,-0.74359130859375,0.2637786865234375
1663861875656427000,0.842427001953125,0.3619232177734375,-0.9246826171875,0.3521881103515625
1663861875666314800,0.852314697265625,0.5259857177734375,-1.167572021484375,0.5567169189453125
1663861875676202200,0.8622021484375,0.7081451416015625,-1.405120849609375,0.81451416015625
1663861875686090000,0.872090087890625,0.8839111328125,-1.553192138671875,1.0052032470703125
1663861875695977700,0.881977783203125,0.995758056640625,-1.6597137451171875,1.03076171875
1663861875705865500,0.891865478515625,1.1054840087890625,-1.929229736328125,0.885894775390625
1663861875715722500,0.901722412109375,1.30255126953125,-2.4639892578125,0.6834869384765625
1663861875725610200,0.9116103515625,1.45489501953125,-3.0978240966796875,0.5023956298828125
1663861875735514000,0.92151416015625,1.3994903564453125,-3.3833160400390625,0.3777618408203125
1663861875745371400,0.931371337890625,1.1960296630859375,-3.125518798828125,0.3287506103515625
1663861875755228400,0.941228515625,1.112945556640625,-2.765472412109375,0.413970947265625
1663861875765146600,0.951146728515625,1.4452972412109375,-2.72711181640625,0.6941375732421875
1663861875775034400,0.961034423828125,2.1632843017578125,-2.909271240234375,1.170318603515625
1663861875784922000,0.970922119140625,2.86956787109375,-3.1446990966796875,1.8137359619140625
1663861875794809900,0.980809814453125,3.2381439208984375,-3.3289947509765625,2.4997711181640625
1663861875804697600,0.990697509765625,3.3159027099609375,-3.7167510986328125,3.1261444091796875
1663861875814585000,1.000585205078125,3.188079833984375,-4.7159576416015625,3.6236114501953125
1663861875824472800,1.010472900390625,2.7694244384765625,-6.1306304931640625,3.824951171875
1663861875834360600,1.020360595703125,2.2708892822265625,-7.1959075927734375,3.7077789306640625
1663861875844217900,1.0302177734375,2.287933349609375,-7.541046142578125,3.4808807373046875
1663861875854105300,1.040105224609375,2.9728851318359375,-7.176727294921875,3.3093719482421875
1663861875863993000,1.0499931640625,3.9817047119140625,-6.175384521484375,3.1240081787109375
1663861875873880800,1.059880859375,4.951080322265625,-4.760711669921875,2.7916412353515625
1663861875883768600,1.0697685546875,5.707427978515625,-3.494110107421875,2.354888916015625
1663861875893625600,1.07962548828125,6.093048095703125,-2.68023681640625,1.9511566162109375
1663861875903483000,1.08948291015625,6.1175537109375,-2.4490814208984375,1.68377685546875
1663861875913370600,1.09937060546875,5.9620208740234375,-2.5737152099609375,1.5484771728515625
1663861875923258400,1.10925830078125,5.818206787109375,-2.796356201171875,1.4824371337890625
1663861875933145900,1.119145751953125,5.6988983154296875,-2.991302490234375,1.4803009033203125
1663861875943033600,1.12903369140625,5.61474609375,-2.9518890380859375,1.53143310546875
1663861875952921300,1.13892138671875,5.5391082763671875,-2.47998046875,1.604949951171875
1663861875962809000,1.14880908203125,5.3793182373046875,-1.7353515625,1.6432952880859375
1663861875972696800,1.15869677734375,5.1513519287109375,-1.062103271484375,1.647552490234375
1663861875982584300,1.168584228515625,4.9500274658203125,-0.666900634765625,1.67950439453125
1663861875992441600,1.178441650390625,4.72845458984375,-0.5933837890625,1.7551422119140625
1663861876002299000,1.188298828125,4.4365692138671875,-0.6136322021484375,1.83929443359375
1663861876012186400,1.198186279296875,4.0722503662109375,-0.5348052978515625,1.898956298828125
1663861876022074000,1.20807421875,3.62164306640625,-0.4144287109375,1.87872314453125
1663861876031961900,1.2179619140625,3.150787353515625,-0.335601806640625,1.725311279296875
1663861876041849600,1.227849609375,2.6905975341796875,-0.3302764892578125,1.48883056640625
1663861876051737300,1.2377373046875,2.2101593017578125,-0.23333740234375,1.3130645751953125
1663861876061625000,1.247625,1.7765960693359375,0.0031585693359375,1.2534027099609375
1663861876071482000,1.257482177734375,1.350494384765625,0.372802734375,1.2672576904296875
1663861876081400300,1.267400390625,0.8721923828125,0.804229736328125,1.245941162109375
1663861876091257600,1.277257568359375,0.40240478515625,1.116363525390625,1.113861083984375
1663861876101145300,1.287145263671875,-0.0141143798828125,1.196258544921875,0.8869476318359375
1663861876111032800,1.29703271484375,-0.3560638427734375,1.182403564453125,0.6025238037109375
1663861876120920600,1.306920654296875,-0.613861083984375,1.1674957275390625,0.3372802734375
1663861876130808300,1.316808349609375,-0.8343658447265625,1.048187255859375,0.1923980712890625
1663861876140696000,1.326696044921875,-1.0143890380859375,0.71368408203125,0.200927734375
1663861876150583800,1.336583740234375,-1.114532470703125,0.216217041015625,0.314910888671875
1663861876160471300,1.34647119140625,-1.0857696533203125,-0.242919921875,0.3372802734375
1663861876170359000,1.356359130859375,-0.8695220947265625,-0.4559783935546875,0.129547119140625
1663861876180246800,1.366246826171875,-0.4934844970703125,-0.3643646240234375,-0.2305145263671875
1663861876190134500,1.376134521484375,-0.087615966796875,-0.1566314697265625,-0.505340576171875
1663861876200022300,1.386022216796875,0.2170562744140625,-0.197113037109375,-0.507476806640625
1663861876209879300,1.39587939453125,0.3512725830078125,-0.7105712890625,-0.31573486328125
1663861876219767000,1.40576708984375,0.3970794677734375,-1.40618896484375,-0.0334320068359375
1663861876229624300,1.415624267578125,0.506805419921875,-1.6874237060546875,-0.1921539306640625
1663861876239511800,1.42551171875,0.8135986328125,-1.7044677734375,-0.79296875
1663861876249369000,1.435369140625,1.2642059326171875,-1.757720947265625,-1.3554229736328125
1663861876259256800,1.4452568359375,1.818145751953125,-1.414703369140625,-1.40655517578125
1663861876269175000,1.455175048828125,2.03546142578125,-0.4900665283203125,-0.9325103759765625
1663861876279032000,1.465031982421875,2.2368011474609375,-0.2834014892578125,-0.963409423828125
1663861876288919800,1.474919921875,2.1217498779296875,-0.559295654296875,-0.0323638916015625
1663861876298807600,1.4848076171875,0.87005615234375,-1.430694580078125,0.9593963623046875
1663861876308695300,1.4946953125,0.5355682373046875,-2.08795166015625,1.5516815185546875
1663861876318583000,1.5045830078125,0.6250457763671875,-1.4786224365234375,1.635833740234375
1663861876328470800,1.514470703125,0.85089111328125,-0.561431884765625,0.2669677734375
1663861876338358300,1.524358154296875,1.055419921875,0.1512298583984375,-0.6448974609375
1663861876348246000,1.53424609375,0.9105377197265625,0.477203369140625,-0.6704559326171875
1663861876358133800,1.5441337890625,0.7784423828125,0.4335174560546875,-0.6875
1663861876368021500,1.554021484375,0.7731170654296875,0.22259521484375,-0.5032196044921875
1663861876377909200,1.5639091796875,0.8881683349609375,0.08837890625,-0.2177276611328125
1663861876387796700,1.573796630859375,1.348358154296875,-0.0948486328125,-0.166595458984375
1663861876397654000,1.583654052734375,1.6157379150390625,-0.324951171875,-0.0685882568359375
1663861876407511300,1.59351123046875,1.3227996826171875,-0.7180328369140625,0.028350830078125
1663861876417398800,1.603398681640625,1.324920654296875,-1.63201904296875,0.197723388671875
1663861876427286500,1.61328662109375,1.8937835693359375,-1.7896881103515625,0.3798828125
1663861876437174300,1.62317431640625,2.6128387451171875,-0.87994384765625,0.4800262451171875
1663861876447062000,1.63306201171875,3.2296142578125,-0.0991058349609375,0.653656005859375
1663861876456949800,1.64294970703125,3.5001983642578125,-0.3515777587890625,0.977508544921875
1663861876466837200,1.652837158203125,3.127349853515625,-1.031219482421875,1.2097320556640625
1663861876476725000,1.66272509765625,2.21441650390625,-2.1209869384765625,1.0510101318359375
1663861876486612700,1.67261279296875,1.3515625,-2.874114990234375,0.78363037109375
1663861876496500500,1.68250048828125,1.1076202392578125,-2.9380340576171875,0.863525390625
1663861876506388200,1.69238818359375,1.2620697021484375,-2.33935546875,1.1767120361328125
1663861876516276000,1.70227587890625,1.660491943359375,-1.2740936279296875,0.987091064453125
1663861876526163500,1.71216357421875,1.740386962890625,-1.212310791015625,0.9370269775390625
1663861876536051200,1.72205126953125,1.6903076171875,-1.3220367431640625,1.13409423828125
1663861876545908500,1.731908447265625,2.2431793212890625,-1.0344085693359375,1.3823089599609375
1663861876555796200,1.741796142578125,2.8983306884765625,-1.2154998779296875,1.614532470703125
1663861876565683700,1.75168359375,2.2943115234375,-2.079437255859375,1.2672576904296875
1663861876575571500,1.761571533203125,0.7081451416015625,-1.658660888671875,0.9029388427734375
1663861876585459200,1.771459228515625,-0.40826416015625,-0.50604248046875,0.371368408203125
1663861876595347000,1.781346923828125,-0.2964019775390625,0.8468475341796875,-0.5000152587890625
1663861876605234700,1.791234619140625,-0.1493988037109375,2.0868072509765625,-1.068878173828125
1663861876615091700,1.801091796875,-0.202667236328125,2.676971435546875,-1.3106842041015625
1663861876624979500,1.8109794921875,-0.22076416015625,2.698272705078125,-1.4140167236328125
1663861876634867200,1.8208671875,-0.186676025390625,2.3094482421875,-1.4811248779296875
1663861876644755000,1.8307548828125,0.0199737548828125,1.64898681640625,-1.3011016845703125
1663861876654642400,1.840642333984375,0.310791015625,0.9842681884765625,-0.6821746826171875
1663861876664530200,1.8505302734375,0.5131988525390625,0.38665771484375,-0.06005859375
1663861876674418000,1.86041796875,0.699615478515625,-0.4091033935546875,0.289337158203125
1663861876684275200,1.870275146484375,0.9094696044921875,-1.202728271484375,0.5631103515625
1663861876694162700,1.88016259765625,1.0255889892578125,-1.7300262451171875,0.8645782470703125
1663861876704050400,1.890050537109375,1.11187744140625,-2.1635894775390625,1.031829833984375
1663861876713938200,1.899938232421875,1.25994873046875,-2.636566162109375,0.8240966796875
1663861876723826000,1.909825927734375,1.5358428955078125,-2.3340301513671875,0.5727081298828125
1663861876733713700,1.919713623046875,1.91082763671875,-1.9388275146484375,0.3287506103515625
1663861876743570700,1.92957080078125,2.147308349609375,-1.5702362060546875,0.3287506103515625
1663861876753458400,1.93945849609375,2.2112274169921875,-1.0344085693359375,0.7431488037109375
1663861876763346200,1.94934619140625,2.3529052734375,-0.9875335693359375,1.1788330078125
1663861876773234000,1.95923388671875,2.492462158203125,-1.8557281494140625,1.8137359619140625
1663861876783121700,1.96912158203125,2.5393218994140625,-3.731658935546875,2.63824462890625
1663861876793009200,1.979009033203125,2.3944549560546875,-5.146331787109375,3.076080322265625
1663861876802866400,1.988866455078125,2.1153564453125,-4.2504425048828125,2.535980224609375
1663861876812754200,1.998754150390625,1.9619598388671875,-2.102874755859375,1.85528564453125
1663861876822642000,2.008641845703125,1.8032379150390625,-0.869293212890625,1.497344970703125
1663861876832529400,2.018529296875,1.7648773193359375,-0.8991241455078125,1.3918914794921875
1663861876842417200,2.028417236328125,1.7542266845703125,-1.3891448974609375,1.3886871337890625
1663861876852305000,2.038304931640625,1.694580078125,-1.7769012451171875,1.2544708251953125
1663861876862192600,2.048192626953125,1.404815673828125,-1.7971343994140625,0.68988037109375
1663861876872049700,2.058049560546875,0.9329071044921875,-1.9952850341796875,0.0411376953125
1663861876881937400,2.0679375,0.6719207763671875,-2.490631103515625,-0.03875732421875
1663861876891794700,2.077794677734375,0.7081451416015625,-2.919921875,0.3191680908203125
1663861876901682400,2.087682373046875,0.7060089111328125,-2.73883056640625,0.6834869384765625
1663861876911570000,2.09756982421875,0.6964263916015625,-2.227508544921875,0.9583282470703125
1663861876921457700,2.107457763671875,0.7539520263671875,-1.4775543212890625,0.828369140625
1663861876931345400,2.117345458984375,0.6495513916015625,-0.8394622802734375,0.4075927734375
1663861876941233200,2.127233154296875,0.4109344482421875,-0.7063140869140625,0.0432586669921875
1663861876951090200,2.137090087890625,0.2916259765625,-1.0226898193359375,-0.1367645263671875
1663861876960978000,2.14697802734375,0.290557861328125,-1.24639892578125,-0.2784423828125
1663861876970835200,2.156835205078125,0.210662841796875,-1.2208251953125,-0.4456939697265625
1663861876980753400,2.16675341796875,0.189361572265625,-1.44134521484375,-0.4446258544921875
1663861876990610400,2.1766103515625,0.474853515625,-1.9153900146484375,-0.2166595458984375
1663861877000498200,2.186498291015625,0.868988037109375,-1.734283447265625,-0.01959228515625
1663861877010386000,2.196385986328125,0.941436767578125,-0.5582427978515625,-0.00360107421875
1663861877020243200,2.2062431640625,0.8562164306640625,0.759490966796875,-0.0408935546875
1663861877030161400,2.216161376953125,0.75714111328125,2.05059814453125,-0.2635345458984375
1663861877040049200,2.226049072265625,0.5579376220703125,2.5022735595703125,-0.51812744140625
1663861877049936600,2.2359365234375,0.2479400634765625,1.995208740234375,-0.6683349609375
1663861877059824400,2.245824462890625,0.1020050048828125,0.7275390625,-0.6278533935546875
1663861877069681700,2.255681640625,0.5377044677734375,-1.03973388671875,-0.2826995849609375
1663861877079569400,2.2655693359375,1.6061553955078125,-2.019775390625,0.2435302734375
1663861877089457000,2.275456787109375,2.821624755859375,-1.37103271484375,0.6376800537109375
1663861877099344600,2.2853447265625,3.76971435546875,-0.1363983154296875,0.8475341796875
1663861877109232400,2.295232421875,4.236297607421875,1.2686920166015625,0.7644500732421875
1663861877119120100,2.3051201171875,4.2299041748046875,2.1070556640625,0.589752197265625
1663861877129007900,2.3150078125,3.7366790771484375,1.739532470703125,0.6046600341796875
1663861877138895400,2.324895263671875,2.786468505859375,0.660430908203125,0.6408843994140625
1663861877148783000,2.334783203125,1.9395904541015625,-0.302581787109375,0.5727081298828125
1663861877158670800,2.3446708984375,1.27911376953125,-0.8543853759765625,0.369232177734375
1663861877168558600,2.35455859375,0.793365478515625,-1.4253692626953125,0.2041168212890625
1663861877178446300,2.3644462890625,0.3512725830078125,-2.133758544921875,0.141265869140625
1663861877188333800,2.374333740234375,-0.15472412109375,-2.5843658447265625,0.117828369140625
1663861877198191000,2.384191162109375,-0.4412841796875,-2.2008819580078125,-0.0121307373046875
1663861877208078800,2.394078857421875,-0.4806976318359375,-1.290069580078125,-0.2667236328125
1663861877217936000,2.403935791015625,-0.4934844970703125,-0.2386627197265625,-0.57672119140625
1663861877227823600,2.41382373046875,-0.522247314453125,0.853240966796875,-0.883514404296875
1663861877237711400,2.42371142578125,-0.6053314208984375,1.6905364990234375,-1.1391754150390625
1663861877247568600,2.433568603515625,-0.6969451904296875,2.1709747314453125,-1.2542266845703125
1663861877257456400,2.443456298828125,-0.759796142578125,2.3989410400390625,-1.26275634765625
1663861877267344000,2.45334375,-0.5691070556640625,1.568023681640625,-0.4424896240234375
1663861877277231600,2.463231689453125,-0.4231719970703125,0.7190093994140625,0.58441162109375
1663861877287119400,2.473119384765625,-0.7640533447265625,0.6955718994140625,0.5439453125
1663861877296976600,2.4829765625,-0.6522064208984375,0.06707763671875,0.392669677734375
1663861877306894800,2.492894775390625,0.06365966796875,-0.7808837890625,0.133819580078125
1663861877316782300,2.5027822265625,0.812530517578125,-1.19952392578125,-0.540496826171875
1663861877326670000,2.512670166015625,1.0383758544921875,-1.7119140625,-1.099761962890625
1663861877336527400,2.52252734375,0.8775177001953125,-1.6394805908203125,-1.1881866455078125
1663861877346384400,2.53238427734375,0.6953582763671875,-0.70098876953125,-0.972991943359375
1663861877356272000,2.542272216796875,0.4886932373046875,0.3759918212890625,-0.7727203369140625
1663861877366190300,2.5521904296875,0.436492919921875,1.0503082275390625,-0.723724365234375
1663861877376078000,2.562078125,0.539825439453125,1.7821502685546875,-0.8707275390625
1663861877385965800,2.5719658203125,0.1840362548828125,3.392822265625,-1.3437042236328125
1663861877395822800,2.58182275390625,0.0029296875,1.1983795166015625,-1.536529541015625
1663861877405680000,2.59168017578125,0.438629150390625,0.0713348388671875,-1.9285430908203125
1663861877415598300,2.601598388671875,0.82318115234375,0.2534942626953125,-2.1330718994140625
1663861877425455600,2.61145556640625,1.06500244140625,0.07452392578125,-1.922149658203125
1663861877435373800,2.621373779296875,1.45489501953125,-0.643463134765625,-1.4150848388671875
1663861877445261300,2.63126123046875,1.3462371826171875,-1.82696533203125,-0.700286865234375
1663861877455149000,2.641149169921875,0.9659271240234375,-2.9007568359375,-0.0590057373046875
1663861877465036800,2.651036865234375,0.67510986328125,-1.78009033203125,0.1359405517578125
1663861877474924500,2.660924560546875,0.5526123046875,0.4931793212890625,0.028350830078125
1663861877484781800,2.67078173828125,0.426910400390625,0.4505615234375,-0.0238494873046875
1663861877494669300,2.68066943359375,0.2830963134765625,0.03192138671875,-0.0472869873046875
1663861877504526600,2.690526611328125,0.140350341796875,0.0265960693359375,-0.1719207763671875
1663861877514414300,2.700414306640625,-0.0492706298828125,0.06280517578125,-0.2496795654296875
1663861877524302000,2.710302001953125,-0.278289794921875,-0.004302978515625,-0.16339111328125
1663861877534189600,2.720189453125,-0.4700469970703125,-0.051177978515625,-0.0462188720703125
1663861877544077300,2.730077392578125,-0.6042633056640625,-0.03839111328125,-0.0206451416015625
1663861877553965000,2.739965087890625,-0.757659912109375,-0.0756683349609375,-0.0472869873046875
1663861877563822300,2.749822265625,-0.952606201171875,-0.1065673828125,-0.09521484375
1663861877573740500,2.759740478515625,-1.135833740234375,0.0468292236328125,-0.2060089111328125
1663861877583628000,2.7696279296875,-1.2221221923828125,0.2673492431640625,-0.3530120849609375
1663861877593515800,2.779515869140625,-1.2231903076171875,0.397308349609375,-0.4904327392578125
1663861877603403500,2.789403564453125,-1.1731109619140625,0.451629638671875,-0.6172027587890625
1663861877613291300,2.799291259765625,-1.0506134033203125,0.3557586669921875,-0.681121826171875
1663861877623179000,2.809178955078125,-0.7747039794921875,0.0606842041015625,-0.7769927978515625
1663861877633066500,2.81906640625,-0.177093505859375,-0.2727508544921875,-1.030517578125
1663861877642923800,2.828923828125,0.3395538330078125,-0.4996490478515625,-1.181793212890625
1663861877652811500,2.8388115234375,0.4780426025390625,-0.559295654296875,-0.939971923828125
1663861877662699300,2.84869921875,0.2095947265625,-0.4058990478515625,-0.33917236328125
1663861877672586800,2.858586669921875,-0.2399444580078125,0.0265960693359375,0.3862762451171875
1663861877682474500,2.868474609375,-0.566986083984375,0.5634918212890625,0.9711151123046875
1663861877692346600,2.8783466796875,-0.6170501708984375,0.8148956298828125,1.318389892578125
1663861877702234400,2.888234375,-0.5169219970703125,0.7190093994140625,1.4622039794921875
1663861877712091600,2.898091552734375,-0.4370269775390625,0.500640869140625,1.445159912109375
1663861877721979100,2.907979248046875,-0.3997344970703125,0.2758636474609375,1.27044677734375
1663861877731867000,2.917866943359375,-0.360321044921875,-0.093780517578125,1.031829833984375
1663861877741754600,2.927754638671875,-0.29107666015625,-0.3537139892578125,0.8006744384765625
1663861877751612000,2.93761181640625,-0.2175750732421875,-0.4069671630859375,0.5482025146484375
1663861877761499400,2.94749951171875,-0.130218505859375,-0.366485595703125,0.281890869140625
1663861877771356700,2.957356689453125,-0.031158447265625,-0.368621826171875,0.0219573974609375
1663861877781214000,2.9672138671875,0.0881500244140625,-0.436798095703125,-0.21026611328125
1663861877791101400,2.977101318359375,0.1723175048828125,-0.6157684326171875,-0.4680633544921875
1663861877800989200,2.9869892578125,0.1105194091796875,-0.99713134765625,-0.7535552978515625
1663861877810877000,2.996876953125,0.006134033203125,-1.3316192626953125,-0.977264404296875
1663861877820764700,3.0067646484375,-0.0375518798828125,-1.3561248779296875,-1.010284423828125
1663861877830652400,3.01665234375,-0.0162353515625,-1.064239501953125,-0.80255126953125
1663861877840540200,3.0265400390625,0.0551300048828125,-0.68927001953125,-0.48724365234375
1663861877850427600,3.036427734375,0.1488800048828125,-0.573150634765625,-0.26885986328125
1663861877860285000,3.046284912109375,0.23089599609375,-0.7297515869140625,-0.2720489501953125
1663861877870203100,3.056203125,0.23516845703125,-0.86822509765625,-0.4776458740234375
1663861877880091000,3.0660908203125,0.1552734375,-0.758514404296875,-0.7269287109375
1663861877889978600,3.075978515625,0.0572662353515625,-0.55291748046875,-0.7993621826171875
1663861877899866000,3.0858662109375,0.0306243896484375,-0.491119384765625,-0.68963623046875
1663861877909753900,3.09575390625,0.1691131591796875,-0.6839447021484375,-0.5820465087890625
1663861877919611100,3.105611083984375,0.321441650390625,-1.02056884765625,-0.6374359130859375
1663861877929499000,3.115498779296875,0.33636474609375,-1.306060791015625,-0.920806884765625
1663861877939386400,3.125386474609375,0.3171844482421875,-1.5127105712890625,-1.353302001953125
1663861877949274000,3.135274169921875,0.347015380859375,-1.5851593017578125,-1.785797119140625
1663861877959161900,3.145161865234375,0.405609130859375,-1.487152099609375,-2.1320037841796875
1663861877969019100,3.15501904296875,0.4876251220703125,-1.278350830078125,-2.37701416015625
1663861877978906600,3.16490673828125,0.577117919921875,-1.038665771484375,-2.524017333984375
1663861877988794400,3.17479443359375,0.6378326416015625,-0.71270751953125,-2.54852294921875
1663861877998682000,3.18468212890625,0.6857757568359375,-0.2354583740234375,-2.44732666015625
1663861878008539400,3.194539306640625,0.699615478515625,0.2524261474609375,-2.2012481689453125
1663861878018427000,3.204427001953125,0.6708526611328125,0.531524658203125,-1.9051055908203125
1663861878028314600,3.214314697265625,0.5994873046875,0.634857177734375,-1.7559661865234375
1663861878038202400,3.224202392578125,0.4982757568359375,0.656158447265625,-1.797515869140625
1663861878048090000,3.234090087890625,0.3661956787109375,0.6391143798828125,-1.9487762451171875
1663861878057977900,3.243977783203125,0.241546630859375,0.587982177734375,-2.1064453125
1663861878067835000,3.2538349609375,0.1840362548828125,0.4260711669921875,-2.2097625732421875
1663861878077722600,3.26372265625,0.2149200439453125,0.099029541015625,-2.2896575927734375
1663861878087610400,3.2736103515625,0.299072265625,-0.2354583740234375,-2.312042236328125
1663861878097498000,3.283498046875,0.35552978515625,-0.41656494140625,-2.2896575927734375
1663861878107385900,3.2933857421875,0.392822265625,-0.3515777587890625,-2.288604736328125
1663861878117243000,3.303242919921875,0.4194488525390625,-0.1459808349609375,-2.4174957275390625
1663861878127130600,3.313130615234375,0.450347900390625,0.12139892578125,-2.648651123046875
1663861878137018400,3.323018310546875,0.553680419921875,0.2513580322265625,-2.834014892578125
1663861878146906000,3.332906005859375,0.72412109375,0.2204742431640625,-2.94586181640625
1663861878156793600,3.342793701171875,0.89349365234375,0.1160736083984375,-3.052398681640625
1663861878166651000,3.35265087890625,1.0713958740234375,-0.0682220458984375,-3.1940765380859375
1663861878176538600,3.36253857421875,1.2514190673828125,-0.1694183349609375,-3.2494659423828125
1663861878186426400,3.37242626953125,1.383514404296875,-0.1182861328125,-3.24200439453125
1663861878196313900,3.38231396484375,1.3909759521484375,0.06494140625,-3.2366790771484375
1663861878206201600,3.39220166015625,1.317474365234375,0.1597442626953125,-3.1578521728515625
1663861878216089300,3.40208935546875,1.33026123046875,0.05108642578125,-3.12908935546875
1663861878225977000,3.41197705078125,1.41973876953125,-0.1342620849609375,-3.1141815185546875
1663861878235864800,3.42186474609375,1.555023193359375,-0.1790008544921875,-3.1386871337890625
1663861878245721900,3.431721923828125,1.6743316650390625,-0.1225433349609375,-3.177032470703125
1663861878255640000,3.44164013671875,1.7680816650390625,-0.126800537109375,-3.1578521728515625
1663861878265497300,3.451497314453125,1.84051513671875,-0.0746002197265625,-3.2143096923828125
1663861878275385000,3.461385009765625,1.8149566650390625,0.1075592041015625,-3.3101806640625
1663861878285272600,3.4712724609375,1.647705078125,0.1831817626953125,-3.371978759765625
1663861878295160300,3.481160400390625,1.4410400390625,0.1182098388671875,-3.3389434814453125
1663861878305048000,3.491048095703125,1.3014984130859375,0.0010223388671875,-3.2366790771484375
1663861878314905300,3.5009052734375,1.294036865234375,0.2194061279296875,-3.30059814453125
1663861878324823600,3.510823486328125,1.3781890869140625,0.524078369140625,-3.3804931640625
1663861878334711300,3.520711181640625,1.3792572021484375,0.2311248779296875,-3.130157470703125
1663861878344598800,3.530598876953125,1.3046875,0.19171142578125,-2.949066162109375
1663861878354486500,3.540486572265625,1.2439727783203125,0.420745849609375,-2.991668701171875
1663861878364343800,3.55034375,1.22265625,0.5166168212890625,-2.9895477294921875
1663861878374200800,3.560200927734375,1.2205352783203125,0.4899749755859375,-2.968231201171875
1663861878384119000,3.570119140625,1.204559326171875,0.4718780517578125,-3.007659912109375
1663861878393976300,3.579976318359375,1.143829345703125,0.466552734375,-2.9767608642578125
1663861878403894500,3.58989453125,1.0628662109375,0.3802642822265625,-2.876617431640625
1663861878413782300,3.5997822265625,1.0032196044921875,0.3131561279296875,-2.7700958251953125
1663861878423670000,3.609669921875,0.9339752197265625,0.293975830078125,-2.70831298828125
1663861878433557500,3.6195576171875,0.892425537109375,0.2854461669921875,-2.67315673828125
1663861878443445200,3.6294453125,0.8743133544921875,0.2779998779296875,-2.58367919921875
1663861878453333000,3.6393330078125,0.8721923828125,0.28118896484375,-2.44732666015625
1663861878463220700,3.649220703125,0.9233245849609375,0.340850830078125,-2.2939300537109375
1663861878473108500,3.6591083984375,0.951019287109375,0.3898468017578125,-2.124542236328125
1663861878482965500,3.668965576171875,0.951019287109375,0.395172119140625,-1.978607177734375
1663861878492853200,3.678853271484375,0.9201202392578125,0.3355255126953125,-1.8379974365234375
1663861878502741000,3.688740966796875,0.8455657958984375,0.282257080078125,-1.67181396484375
1663861878512628700,3.698628662109375,0.8018798828125,0.2279205322265625,-1.510955810546875
1663861878522485800,3.70848583984375,0.7305145263671875,0.1618804931640625,-1.339447021484375
1663861878532373500,3.71837353515625,0.6495513916015625,0.1309814453125,-1.16900634765625
1663861878542261200,3.72826123046875,0.58563232421875,0.12353515625,-1.029449462890625
1663861878552149000,3.73814892578125,0.5057373046875,0.0958404541015625,-0.8643341064453125
1663861878562036700,3.74803662109375,0.415191650390625,0.06280517578125,-0.6832427978515625
1663861878571924200,3.75792431640625,0.3310394287109375,0.0489654541015625,-0.530914306640625
1663861878581781500,3.767781494140625,0.243682861328125,0.0478973388671875,-0.3657989501953125
1663861878591669200,3.777669189453125,0.1478118896484375,0.0148773193359375,-0.1825714111328125
1663861878601557000,3.787556884765625,0.0423431396484375,0.0052947998046875,-0.0099945068359375
1663861878611444500,3.797444580078125,-0.0695037841796875,0.0010223388671875,0.1721649169921875
1663861878621301800,3.8073017578125,-0.179229736328125,-0.0309295654296875,0.347930908203125
1663861878631189500,3.817189453125,-0.2772369384765625,-0.0799407958984375,0.5322265625
1663861878641077200,3.8270771484375,-0.3667144775390625,-0.1363983154296875,0.699462890625
1663861878650934300,3.836934326171875,-0.4466094970703125,-0.1907196044921875,0.8475341796875
1663861878660852500,3.8468525390625,-0.51904296875,-0.2269439697265625,0.996673583984375
1663861878670709800,3.856709716796875,-0.586151123046875,-0.2727508544921875,1.1522064208984375
1663861878680566800,3.86656689453125,-0.6372833251953125,-0.3206787109375,1.30560302734375
1663861878690454500,3.87645458984375,-0.6745758056640625,-0.335601806640625,1.4579315185546875
1663861878700372700,3.886372802734375,-0.726776123046875,-0.35797119140625,1.6070709228515625
1663861878710230000,3.89622998046875,-0.781097412109375,-0.3739471435546875,1.762603759765625
1663861878720117800,3.90611767578125,-0.8322296142578125,-0.40057373046875,1.9149322509765625
1663861878730005200,3.916005126953125,-0.8918914794921875,-0.4091033935546875,2.0512847900390625
1663861878739893000,3.92589306640625,-0.9579315185546875,-0.392059326171875,2.18231201171875
1663861878749750300,3.935750244140625,-1.0218505859375,-0.3760833740234375,2.2931060791015625
1663861878759668500,3.94566845703125,-1.0687255859375,-0.3387908935546875,2.399627685546875
1663861878769556200,3.95555615234375,-1.100677490234375,-0.289794921875,2.5114898681640625
1663861878779444000,3.96544384765625,-1.123046875,-0.2503814697265625,2.6094818115234375
1663861878789331500,3.97533154296875,-1.135833740234375,-0.183258056640625,2.7042999267578125
1663861878799219200,3.98521923828125,-1.145416259765625,-0.1300048828125,2.796966552734375
1663861878809107000,3.99510693359375,-1.147552490234375,-0.0554351806640625,2.8747406005859375
1663861878818964200,4.004964111328125,-1.1400909423828125,0.042572021484375,2.947174072265625
1663861878828821200,4.0148212890625,-1.121978759765625,0.101165771484375,3.0121612548828125
1663861878838739500,4.024739501953125,-1.0932159423828125,0.1395111083984375,3.071807861328125
1663861878848627200,4.034627197265625,-1.05487060546875,0.1895751953125,3.14105224609375
1663861878858515000,4.044514892578125,-1.0271759033203125,0.204498291015625,3.21881103515625
1663861878868372000,4.0543720703125,-0.9952239990234375,0.1831817626953125,3.2827301025390625
1663861878878259700,4.064259765625,-0.954742431640625,0.165069580078125,3.3413238525390625
1663861878888117000,4.074116943359375,-0.9249114990234375,0.1640167236328125,3.39031982421875
1663861878898035200,4.08403515625,-0.9014739990234375,0.165069580078125,3.414825439453125
1663861878907923000,4.0939228515625,-0.87591552734375,0.1043548583984375,3.4158935546875
1663861878917810400,4.103810546875,-0.8460845947265625,-0.0245361328125,3.39459228515625
1663861878927698200,4.1136982421875,-0.814117431640625,-0.131072998046875,3.4009857177734375
1663861878937586000,4.1235859375,-0.8002777099609375,-0.220550537109375,3.4553070068359375
1663861878947473700,4.1334736328125,-0.7981414794921875,-0.3036346435546875,3.5149688720703125
1663861878957361400,4.143361328125,-0.7992095947265625,-0.3153533935546875,3.5810089111328125
1663861878967218400,4.153218505859375,-0.8109283447265625,-0.230133056640625,3.6481170654296875
1663861878977075700,4.16307568359375,-0.814117431640625,-0.1342620849609375,3.6971282958984375
1663861878986994000,4.172993896484375,-0.8109283447265625,-0.093780517578125,3.7375946044921875
1663861878996851000,4.182850830078125,-0.8013458251953125,-0.1001739501953125,3.7514495849609375
1663861879006738700,4.19273876953125,-0.790679931640625,-0.126800537109375,3.7375946044921875
1663861879016626400,4.20262646484375,-0.7853546142578125,-0.138519287109375,3.732269287109375
1663861879026514200,4.21251416015625,-0.7970733642578125,-0.142791748046875,3.72589111328125
1663861879036402000,4.22240185546875,-0.8077392578125,-0.138519287109375,3.691802978515625
1663861879046259000,4.232259033203125,-0.8077392578125,-0.1363983154296875,3.680084228515625
1663861879056146700,4.242146728515625,-0.825836181640625,-0.1438446044921875,3.720550537109375
1663861879066034400,4.252034423828125,-0.872711181640625,-0.140655517578125,3.7727508544921875
1663861879075922200,4.261922119140625,-0.9259796142578125,-0.1481170654296875,3.7972564697265625
1663861879085810000,4.271809814453125,-0.978179931640625,-0.17474365234375,3.7887420654296875
1663861879095697400,4.281697509765625,-1.032501220703125,-0.222686767578125,3.7653045654296875
1663861879105585200,4.291585205078125,-1.1273040771484375,-0.26422119140625,3.779144287109375
1663861879115473000,4.301472900390625,-1.2444915771484375,-0.3206787109375,3.8217620849609375
1663861879125360600,4.311360595703125,-1.3606109619140625,-0.3622283935546875,3.836669921875
1663861879135248400,4.321248291015625,-1.4745941162109375,-0.3750152587890625,3.74505615234375
1663861879145105400,4.33110546875,-1.5406341552734375,-0.3632965087890625,3.5437164306640625
1663861879154993200,4.3409931640625,-1.5544891357421875,-0.2940521240234375,3.2720794677734375
1663861879164881000,4.350880859375,-1.556610107421875,-0.1555633544921875,3.024932861328125
1663861879174768600,4.3607685546875,-1.566192626953125,0.0489654541015625,2.855560302734375
1663861879184656100,4.37065625,-1.5757904052734375,0.280120849609375,2.752227783203125
1663861879194543900,4.3805439453125,-1.5544891357421875,0.5144805908203125,2.698974609375
1663861879204431600,4.390431640625,-1.4713897705078125,0.6998443603515625,2.6563568115234375
1663861879214319400,4.4003193359375,-1.3456878662109375,0.808502197265625,2.581787109375
1663861879224176400,4.41017626953125,-1.16778564453125,0.7701416015625,2.4614105224609375
1663861879234064100,4.420064208984375,-0.9270477294921875,0.5325927734375,2.2909698486328125
1663861879243951900,4.429951904296875,-0.6522064208984375,0.167205810546875,2.04595947265625
1663861879253839600,4.439839599609375,-0.339019775390625,-0.183258056640625,1.694427490234375
1663861879263727400,4.449727294921875,-0.0354156494140625,-0.4527740478515625,1.2555389404296875
1663861879273615000,4.459614990234375,0.220245361328125,-0.56036376953125,0.794281005859375
1663861879283502600,4.469502685546875,0.3960113525390625,-0.491119384765625,0.418243408203125
1663861879293390300,4.479390380859375,0.4641876220703125,-0.310028076171875,0.143402099609375
1663861879303247600,4.48924755859375,0.4183807373046875,-0.0756683349609375,-0.05047607421875
1663861879313104600,4.499104736328125,0.3278350830078125,0.1373748779296875,-0.185760498046875
1663861879322992400,4.508992431640625,0.275634765625,0.2311248779296875,-0.291229248046875
1663861879332880100,4.518880126953125,0.2596588134765625,0.202362060546875,-0.3657989501953125
1663861879342767900,4.528767822265625,0.23516845703125,0.10223388671875,-0.404144287109375
1663861879352655600,4.538655517578125,0.196807861328125,-0.0064239501953125,-0.4126739501953125
1663861879362512600,4.5485126953125,0.140350341796875,-0.0778045654296875,-0.3849639892578125
1663861879372430800,4.558430908203125,0.07110595703125,-0.107635498046875,-0.3317108154296875
1663861879382318600,4.568318603515625,-0.0034637451171875,-0.15130615234375,-0.2635345458984375
1663861879392206300,4.578206298828125,-0.0684356689453125,-0.23333740234375,-0.2273101806640625
1663861879402063400,4.5880634765625,-0.106781005859375,-0.278076171875,-0.223052978515625
1663861879411951000,4.597951171875,-0.1376800537109375,-0.251434326171875,-0.185760498046875
1663861879421838800,4.6078388671875,-0.1717681884765625,-0.2269439697265625,-0.1016082763671875
1663861879431726600,4.6177265625,-0.1920013427734375,-0.23333740234375,-0.025970458984375
1663861879441583600,4.62758349609375,-0.1845550537109375,-0.241851806640625,0.0006561279296875
1663861879451471400,4.637471435546875,-0.1579132080078125,-0.24505615234375,-0.0004119873046875
1663861879461359000,4.647359130859375,-0.130218505859375,-0.25250244140625,0.0059814453125
1663861879471246800,4.657246826171875,-0.1025238037109375,-0.2844696044921875,0.0177001953125
1663861879481104000,4.667103759765625,-0.0716400146484375,-0.3302764892578125,0.018768310546875
1663861879490991600,4.67699169921875,-0.04180908203125,-0.34625244140625,-0.0099945068359375
1663861879500909800,4.686909912109375,-0.0119781494140625,-0.2929840087890625,-0.0472869873046875
1663861879510797600,4.696797607421875,0.015716552734375,-0.21734619140625,-0.0675201416015625
1663861879520654800,4.70665478515625,0.0316925048828125,-0.18646240234375,-0.0888214111328125
1663861879530512000,4.716511962890625,0.04022216796875,-0.2056427001953125,-0.1122589111328125
1663861879540430000,4.72643017578125,0.050872802734375,-0.263153076171875,-0.1378326416015625
1663861879550287400,4.736287353515625,0.060455322265625,-0.3558349609375,-0.1729888916015625
1663861879560205600,4.74620556640625,0.05194091796875,-0.436798095703125,-0.22198486328125
1663861879570093300,4.75609326171875,0.0306243896484375,-0.446380615234375,-0.2667236328125
1663861879579950300,4.765950439453125,0.00506591796875,-0.4091033935546875,-0.2986907958984375
1663861879589838000,4.775838134765625,-0.0236968994140625,-0.343048095703125,-0.3167877197265625
1663861879599725800,4.785725830078125,-0.042877197265625,-0.2354583740234375,-0.2986907958984375
1663861879609583000,4.7955830078125,-0.0375518798828125,-0.131072998046875,-0.24542236328125
1663861879619470600,4.805470703125,-0.0109100341796875,-0.115081787109375,-0.223052978515625
1663861879629358300,4.8153583984375,0.0348968505859375,-0.1896514892578125,-0.25714111328125
1663861879639276500,4.825276611328125,0.0807037353515625,-0.286590576171875,-0.3104095458984375
1663861879649164300,4.835164306640625,0.1083984375,-0.345184326171875,-0.3444976806640625
1663861879659052000,4.845052001953125,0.121185302734375,-0.333465576171875,-0.3540802001953125
1663861879668909000,4.854908935546875,0.128631591796875,-0.263153076171875,-0.357269287109375
1663861879678796800,4.864796875,0.1382293701171875,-0.1790008544921875,-0.357269287109375
1663861879688684500,4.8746845703125,0.1488800048828125,-0.1246795654296875,-0.368988037109375
1663861879698572300,4.884572265625,0.1669921875,-0.119354248046875,-0.4094696044921875
1663861879708429300,4.89442919921875,0.196807861328125,-0.161956787109375,-0.485107421875
1663861879718317000,4.904317138671875,0.231964111328125,-0.218414306640625,-0.5809783935546875
1663861879728174300,4.91417431640625,0.278839111328125,-0.3057708740234375,-0.6875
1663861879738092500,4.924092529296875,0.34808349609375,-0.4421234130859375,-0.8089447021484375
1663861879747980300,4.933980224609375,0.4194488525390625,-0.56036376953125,-0.94317626953125
1663861879757868000,4.943867919921875,0.474853515625,-0.598724365234375,-1.089111328125
1663861879767755500,4.953755615234375,0.5259857177734375,-0.594451904296875,-1.2329254150390625
1663861879777612800,4.96361279296875,0.5824432373046875,-0.5550384521484375,-1.365020751953125
1663861879787500500,4.97350048828125,0.645294189453125,-0.4399871826171875,-1.4928436279296875
1663861879797388300,4.98338818359375,0.71026611328125,-0.331329345703125,-1.646240234375
1663861879807275800,4.99327587890625,0.7752532958984375,-0.3409271240234375,-1.8358612060546875
1663861879817133000,5.003133056640625,0.8562164306640625,-0.38140869140625,-2.02227783203125
1663861879827020800,5.013020751953125,0.9318389892578125,-0.321746826171875,-2.185272216796875
1663861879836908500,5.022908447265625,0.961669921875,-0.160888671875,-2.3248138427734375
1663861879846796000,5.032796142578125,0.9318389892578125,0.04364013671875,-2.43560791015625
1663861879856683800,5.042683837890625,0.859405517578125,0.21087646484375,-2.524017333984375
1663861879866541000,5.052541015625,0.8018798828125,0.2279205322265625,-2.60711669921875
1663861879876459300,5.062459228515625,0.78271484375,0.0383148193359375,-2.6667633056640625
1663861879886347000,5.072346923828125,0.78271484375,-0.277008056640625,-2.6667633056640625
1663861879896234500,5.082234375,0.7848358154296875,-0.4996490478515625,-2.6135101318359375
1663861879906122200,5.092122314453125,0.7720489501953125,-0.44744873046875,-2.5666351318359375
1663861879916010000,5.102010009765625,0.73583984375,-0.2397308349609375,-2.603912353515625
1663861879925897700,5.111897705078125,0.6974945068359375,-0.1257476806640625,-2.7360076904296875
1663861879935785500,5.121785400390625,0.6815032958984375,-0.1939239501953125,-2.890472412109375
1663861879945673200,5.131673095703125,0.6740570068359375,-0.3057708740234375,-2.9075164794921875
1663861879955560700,5.141560791015625,0.6836395263671875,-0.302581787109375,-2.7466583251953125
1663861879965418000,5.15141796875,0.746490478515625,-0.2024383544921875,-2.5975189208984375
1663861879975305700,5.1613056640625,0.8647308349609375,-0.0746002197265625,-2.6326751708984375
1663861879985193500,5.171193359375,0.986175537109375,0.030853271484375,-2.812713623046875
1663861879995081000,5.1810810546875,1.1033477783203125,0.054290771484375,-2.956512451171875
1663861880004938200,5.190938232421875,1.223724365234375,-0.051177978515625,-2.958648681640625
1663861880014826000,5.200825927734375,1.362213134765625,-0.2237396240234375,-2.9203033447265625
1663861880024713700,5.210713623046875,1.484710693359375,-0.25677490234375,-2.9756927490234375
1663861880034601200,5.220601318359375,1.5475616455078125,-0.0447845458984375,-3.085418701171875
1663861880044489000,5.230489013671875,1.588043212890625,0.1895751953125,-3.1908721923828125
1663861880054376700,5.240376708984375,1.588043212890625,0.1032867431640625,-3.266510009765625
1663861880064264400,5.250264404296875,1.565673828125,-0.2130889892578125,-3.3080596923828125
1663861880074152200,5.260152099609375,1.5251922607421875,-0.427215576171875,-3.2867584228515625
1663861880084039700,5.270039794921875,1.4452972412109375,-0.3494415283203125,-3.2132415771484375
1663861880093897000,5.27989697265625,1.324920654296875,-0.196044921875,-3.130157470703125
1663861880103784700,5.28978466796875,1.1725921630859375,-0.093780517578125,-2.991668701171875
1663861880113672400,5.29967236328125,1.0607452392578125,-0.093780517578125,-2.880889892578125
1663861880123560000,5.309559814453125,1.0916290283203125,-0.1598358154296875,-2.8819580078125
1663861880133447700,5.31944775390625,1.2514190673828125,-0.1704864501953125,-2.877685546875
1663861880143305000,5.329304931640625,1.4229278564453125,-0.103363037109375,-2.81378173828125
1663861880153192700,5.339192626953125,1.530517578125,0.10223388671875,-2.7157745361328125
1663861880163080200,5.349080078125,1.5358428955078125,0.442047119140625,-2.6699676513671875
1663861880172968000,5.358968017578125,1.472991943359375,0.7190093994140625,-2.6678314208984375
1663861880182855700,5.368855712890625,1.4761962890625,0.9107666015625,-2.6316070556640625
1663861880192743400,5.378743408203125,1.55609130859375,0.918212890625,-2.63800048828125
1663861880202631200,5.388631103515625,1.62640380859375,0.7797393798828125,-2.674224853515625
1663861880212519000,5.398518798828125,1.658355712890625,0.62420654296875,-2.641204833984375
1663861880222376000,5.4083759765625,1.592315673828125,0.4271392822265625,-2.5772857666015625
1663861880232263700,5.418263671875,1.404815673828125,0.2758636474609375,-2.5762176513671875
1663861880242151400,5.4281513671875,1.1875152587890625,0.2183380126953125,-2.5527801513671875
1663861880252039200,5.4380390625,1.008544921875,0.2098236083984375,-2.4387969970703125
1663861880261926700,5.4479267578125,0.926513671875,0.2364501953125,-2.352508544921875
1663861880271814400,5.457814453125,0.949951171875,0.3674774169921875,-2.31842041015625
1663861880281702100,5.4677021484375,1.030914306640625,0.5475006103515625,-2.2672882080078125
1663861880291559400,5.477559326171875,1.08843994140625,0.6998443603515625,-2.2225494384765625
1663861880301447000,5.487447021484375,1.0926971435546875,0.6774749755859375,-2.1352081298828125
1663861880311334700,5.497334716796875,1.0149383544921875,0.55389404296875,-2.056365966796875
1663861880321192000,5.50719189453125,0.84661865234375,0.4037017822265625,-2.0052337646484375
1663861880331079700,5.51707958984375,0.65594482421875,0.315277099609375,-1.9029693603515625
1663861880340936700,5.526936767578125,0.5345001220703125,0.2897186279296875,-1.7761993408203125
1663861880350824400,5.536824462890625,0.516387939453125,0.3440399169921875,-1.670745849609375
1663861880360712200,5.546712158203125,0.5462188720703125,0.384521484375,-1.579132080078125
1663861880370600000,5.556599853515625,0.5685882568359375,0.371734619140625,-1.475799560546875
1663861880380457000,5.56645703125,0.553680419921875,0.326995849609375,-1.3777923583984375
1663861880390344700,5.5763447265625,0.4822998046875,0.2545623779296875,-1.27020263671875
1663861880400263000,5.586262939453125,0.3853607177734375,0.167205810546875,-1.132781982421875
1663861880410150700,5.596150634765625,0.3182525634765625,0.101165771484375,-0.9559478759765625
1663861880420038400,5.606038330078125,0.2681884765625,0.09796142578125,-0.780181884765625
1663861880429895400,5.6158955078125,0.231964111328125,0.099029541015625,-0.6172027587890625
1663861880439783200,5.625783203125,0.2159881591796875,0.1054229736328125,-0.448883056640625
1663861880449640400,5.635640380859375,0.1946868896484375,0.1171417236328125,-0.2752532958984375
1663861880459558700,5.64555859375,0.1435546875,0.11181640625,-0.096282958984375
1663861880469446400,5.6554462890625,0.0647125244140625,0.07452392578125,0.060302734375
1663861880479303400,5.665303466796875,-0.0279541015625,0.019134521484375,0.2041168212890625
1663861880489191200,5.675191162109375,-0.1174468994140625,-0.037322998046875,0.3628387451171875
1663861880499079000,5.685078857421875,-0.200531005859375,-0.08526611328125,0.5205078125
1663861880508936000,5.69493603515625,-0.290008544921875,-0.117218017578125,0.6707000732421875
1663861880518854100,5.704854248046875,-0.3858795166015625,-0.1246795654296875,0.815582275390625
1663861880528742000,5.714741943359375,-0.475372314453125,-0.1470489501953125,0.9466094970703125
1663861880538599200,5.72459912109375,-0.55633544921875,-0.1683502197265625,1.088287353515625
1663861880548487000,5.73448681640625,-0.6383514404296875,-0.2024383544921875,1.22357177734375
1663861880558344000,5.744343994140625,-0.7288970947265625,-0.2386627197265625,1.3428802490234375
1663861880568231700,5.754231689453125,-0.8205108642578125,-0.2716827392578125,1.4707183837890625
1663861880578119400,5.764119384765625,-0.9153289794921875,-0.3174896240234375,1.59002685546875
1663861880588007200,5.774007080078125,-1.0048065185546875,-0.3419952392578125,1.69549560546875
1663861880597925400,5.78392529296875,-1.0825653076171875,-0.343048095703125,1.807342529296875
1663861880607812900,5.793812744140625,-1.1305084228515625,-0.3494415283203125,1.92132568359375
1663861880617670100,5.803670166015625,-1.14862060546875,-0.3387908935546875,2.0321197509765625
1663861880627558000,5.813557861328125,-1.1539459228515625,-0.3047027587890625,2.1439666748046875
1663861880637445600,5.823445556640625,-1.1550140380859375,-0.2823333740234375,2.251556396484375
1663861880647333400,5.83333349609375,-1.1539459228515625,-0.2727508544921875,2.34210205078125
1663861880657220900,5.843220947265625,-1.16033935546875,-0.25677490234375,2.420928955078125
1663861880667108600,5.853108642578125,-1.1667327880859375,-0.219482421875,2.5082855224609375
1663861880676996400,5.862996337890625,-1.1645965576171875,-0.172607421875,2.6009674072265625
1663861880686884000,5.872884033203125,-1.145416259765625,-0.1246795654296875,2.6797943115234375
1663861880696771800,5.882771728515625,-1.1305084228515625,-0.0778045654296875,2.7458343505859375
1663861880706659300,5.892659423828125,-1.13690185546875,-0.0330657958984375,2.7916412353515625
1663861880716547000,5.902547119140625,-1.1539459228515625,0.016998291015625,2.843841552734375
1663861880726434800,5.912434814453125,-1.1752471923828125,0.0724029541015625,2.9098968505859375
1663861880736292000,5.9222919921875,-1.1965484619140625,0.1395111083984375,2.961029052734375
1663861880746149000,5.932149169921875,-1.204010009765625,0.20343017578125,2.9865875244140625
1663861880756036900,5.942036865234375,-1.192291259765625,0.258819580078125,3.0110931396484375
1663861880765924600,5.951924560546875,-1.17205810546875,0.2875823974609375,3.0334625244140625
1663861880775812400,5.961812255859375,-1.158203125,0.30462646484375,3.0441131591796875
1663861880785669400,5.97166943359375,-1.14434814453125,0.2971649169921875,3.048370361328125
1663861880795557000,5.98155712890625,-1.112396240234375,0.2513580322265625,3.062225341796875
1663861880805444900,5.99144482421875,-1.0719146728515625,0.1725311279296875,3.0931243896484375
1663861880815332600,6.00133251953125,-1.0335693359375,0.1054229736328125,3.1016387939453125
1663861880825220000,6.01122021484375,-1.00799560546875,0.08624267578125,3.1005706787109375
1663861880835107800,6.02110791015625,-1.00054931640625,0.089447021484375,3.10589599609375
1663861880844995600,6.03099560546875,-1.0133209228515625,0.10968017578125,3.1218719482421875
1663861880854883300,6.04088330078125,-1.02398681640625,0.1427001953125,3.1921844482421875
1663861880864771000,6.05077099609375,-1.01226806640625,0.132049560546875,3.2955169677734375
1663861880874658800,6.060658935546875,-0.9909515380859375,0.1064910888671875,3.3881988525390625
1663861880884546300,6.07054638671875,-0.954742431640625,0.0958404541015625,3.459564208984375
1663861880894434000,6.08043408203125,-0.8918914794921875,0.089447021484375,3.4979248046875
1663861880904321800,6.09032177734375,-0.804534912109375,0.07666015625,3.4755401611328125
1663861880914179000,6.100178955078125,-0.7203826904296875,0.07666015625,3.4329376220703125
1663861880924066600,6.110066650390625,-0.6617889404296875,0.089447021484375,3.4212188720703125
1663861880933954300,6.119954345703125,-0.6266326904296875,0.0915679931640625,3.4073638916015625
1663861880943842000,6.129842041015625,-0.6170501708984375,0.07879638671875,3.3775482177734375
1663861880953729800,6.139729736328125,-0.6436767578125,0.0478973388671875,3.3455810546875
1663861880963617500,6.149617431640625,-0.68841552734375,0.00634765625,3.3317413330078125
1663861880973505000,6.159505126953125,-0.7416839599609375,-0.0064239501953125,3.3690185546875
1663861880983362300,6.1693623046875,-0.8332977294921875,0.06280517578125,3.47021484375
1663861880993219600,6.179219482421875,-0.955810546875,0.1757354736328125,3.5895233154296875
1663861881003107000,6.189107177734375,-1.07830810546875,0.291839599609375,3.67901611328125
1663861881012964400,6.19896435546875,-1.158203125,0.3333892822265625,3.6854095458984375
1663861881022882600,6.208882568359375,-1.13690185546875,0.3014373779296875,3.5671539306640625
1663861881032770300,6.218770263671875,-1.042083740234375,0.2662811279296875,3.346649169921875
1663861881042658000,6.228657958984375,-0.9589996337890625,0.2630767822265625,3.0782012939453125
1663861881052545500,6.238545654296875,-0.897216796875,0.280120849609375,2.7959136962890625
1663861881062433300,6.248433349609375,-0.8535308837890625,0.350433349609375,2.5530242919921875
1663861881072321000,6.258321044921875,-0.8247833251953125,0.4708099365234375,2.3751220703125
1663861881082208800,6.268208740234375,-0.8002777099609375,0.587982177734375,2.2142791748046875
1663861881092096500,6.278096435546875,-0.771514892578125,0.6433868408203125,2.02252197265625
1663861881101984000,6.28798388671875,-0.736358642578125,0.6380615234375,1.807342529296875
1663861881111871700,6.297871826171875,-0.658599853515625,0.552825927734375,1.5740509033203125
1663861881121729000,6.30772900390625,-0.510528564453125,0.4250030517578125,1.362060546875
1663861881131616800,6.31761669921875,-0.3326263427734375,0.3120880126953125,1.1724395751953125
1663861881141504500,6.32750439453125,-0.1802978515625,0.1831817626953125,0.9711151123046875
1663861881151392000,6.33739208984375,-0.075897216796875,0.0596160888671875,0.746337890625
1663861881161279700,6.34727978515625,-0.0002593994140625,-0.02880859375,0.5226287841796875
1663861881171167500,6.35716748046875,0.06365966796875,-0.0756683349609375,0.3180999755859375
1663861881181055200,6.36705517578125,0.1137237548828125,-0.1012420654296875,0.1455230712890625
1663861881190912300,6.376912353515625,0.165924072265625,-0.09698486328125,-0.0025482177734375
1663861881200800000,6.386800048828125,0.2170562744140625,-0.060760498046875,-0.121856689453125
1663861881210687700,6.396687744140625,0.2522125244140625,-0.0096282958984375,-0.2060089111328125
1663861881220545000,6.406544921875,0.2703094482421875,0.0830535888671875,-0.244354248046875
1663861881230432500,6.4164326171875,0.2745819091796875,0.176788330078125,-0.2315673828125
1663861881240320300,6.4263203125,0.2724456787109375,0.190643310546875,-0.17938232421875
1663861881250208000,6.4362080078125,0.24688720703125,0.09796142578125,-0.119720458984375
1663861881260065300,6.446065185546875,0.198944091796875,-0.0330657958984375,-0.065399169921875
1663861881269952800,6.455952880859375,0.142486572265625,-0.1331939697265625,-0.0025482177734375
1663861881279840500,6.465840576171875,0.0647125244140625,-0.1811370849609375,0.0688323974609375
1663861881289728300,6.475728271484375,-0.0364837646484375,-0.1779327392578125,0.122100830078125
1663861881299616000,6.485615966796875,-0.130218505859375,-0.1576995849609375,0.1583099365234375
1663861881309473000,6.49547314453125,-0.200531005859375,-0.21734619140625,0.1913299560546875
1663861881319360800,6.50536083984375,-0.2505950927734375,-0.324951171875,0.2073211669921875
1663861881329248500,6.51524853515625,-0.266571044921875,-0.3792724609375,0.2041168212890625
1663861881339136300,6.52513623046875,-0.2420806884765625,-0.3856658935546875,0.1966705322265625
1663861881348993300,6.5349931640625,-0.198394775390625,-0.3760833740234375,0.1849517822265625
1663861881358911700,6.544911865234375,-0.1472625732421875,-0.324951171875,0.16790771484375
1663861881368768800,6.554768798828125,-0.095062255859375,-0.2397308349609375,0.1487274169921875
1663861881378687000,6.56468701171875,-0.0449981689453125,-0.2003021240234375,0.131683349609375
1663861881388544300,6.574544189453125,0.0008087158203125,-0.2365264892578125,0.108245849609375
1663861881398401300,6.5844013671875,0.037017822265625,-0.286590576171875,0.073089599609375
1663861881408319500,6.594319580078125,0.05938720703125,-0.3068389892578125,0.0315399169921875
1663861881418207200,6.604207275390625,0.0700531005859375,-0.2951202392578125,-0.00360107421875
1663861881428095000,6.614094970703125,0.062591552734375,-0.2461090087890625,-0.030242919921875
1663861881437982700,6.623982666015625,0.041290283203125,-0.1939239501953125,-0.051544189453125
1663861881447870500,6.633870361328125,0.0189208984375,-0.1790008544921875,-0.0781707763671875
1663861881457758000,6.643758056640625,-0.0002593994140625,-0.20989990234375,-0.09521484375
1663861881467615200,6.653615234375,-0.017303466796875,-0.2621002197265625,-0.0920257568359375
1663861881477503000,6.6635029296875,-0.0236968994140625,-0.301513671875,-0.0930938720703125
1663861881487360000,6.673360107421875,-0.005584716796875,-0.3185577392578125,-0.1367645263671875
1663861881497247700,6.683247802734375,0.0316925048828125,-0.3206787109375,-0.2305145263671875
1663861881507166000,6.693166015625,0.0732421875,-0.335601806640625,-0.3423614501953125
1663861881517053700,6.7030537109375,0.1105194091796875,-0.3632965087890625,-0.4925689697265625
1663861881526911000,6.712910888671875,0.142486572265625,-0.3835296630859375,-0.6608734130859375
1663861881536798500,6.722798583984375,0.1819000244140625,-0.3792724609375,-0.78338623046875
1663861881546686200,6.732686279296875,0.222381591796875,-0.3281402587890625,-0.8771209716796875
1663861881556574000,6.742573974609375,0.2596588134765625,-0.243988037109375,-0.9879150390625
1663861881566461700,6.752461669921875,0.3171844482421875,-0.199249267578125,-1.1263885498046875
1663861881576349400,6.762349365234375,0.4002838134765625,-0.231201171875,-1.285125732421875
1663861881586237200,6.7722373046875,0.5014801025390625,-0.3302764892578125,-1.489654541015625
1663861881596124700,6.782124755859375,0.608001708984375,-0.44744873046875,-1.716552734375
1663861881606012400,6.792012451171875,0.7198638916015625,-0.5454559326171875,-1.8923187255859375
1663861881615900200,6.801900146484375,0.81573486328125,-0.5912628173828125,-2.0180206298828125
1663861881625788000,6.811787841796875,0.882843017578125,-0.5230865478515625,-2.117095947265625
1663861881635645000,6.82164501953125,0.91693115234375,-0.2972412109375,-2.185272216796875
1663861881645502200,6.831502197265625,0.917999267578125,0.0138092041015625,-2.2214813232421875
1663861881655390000,6.841389892578125,0.8913726806640625,0.2630767822265625,-2.2694244384765625
1663861881665247000,6.8512470703125,0.8647308349609375,0.3536224365234375,-2.367431640625
1663861881675165200,6.861165283203125,0.8412933349609375,0.314208984375,-2.4878082275390625
1663861881685053000,6.871052978515625,0.79443359375,0.1640167236328125,-2.56024169921875
1663861881694940700,6.880940673828125,0.769927978515625,-0.0831298828125,-2.5623779296875
1663861881704828400,6.890828369140625,0.8061370849609375,-0.2471771240234375,-2.5442657470703125
1663861881714685400,6.900685546875,0.8604736328125,-0.2610321044921875,-2.53680419921875
1663861881724542700,6.910542724609375,0.868988037109375,-0.184326171875,-2.5762176513671875
1663861881734461000,6.9204609375,0.835968017578125,-0.0873870849609375,-2.67529296875
1663861881744348700,6.9303486328125,0.8178558349609375,-0.051177978515625,-2.7711639404296875
1663861881754236400,6.940236328125,0.8540802001953125,-0.0746002197265625,-2.777557373046875
1663861881764124000,6.9501240234375,0.908416748046875,-0.0980377197265625,-2.6358795166015625
1663861881774011600,6.96001171875,0.9094696044921875,-0.0788726806640625,-2.4079132080078125
1663861881783899400,6.9698994140625,0.8679351806640625,-0.08526611328125,-2.2811431884765625
1663861881793787100,6.979787109375,0.8753814697265625,-0.072479248046875,-2.3855438232421875
1663861881803675000,6.9896748046875,0.9669952392578125,0.08624267578125,-2.6017913818359375
1663861881813532000,6.999531982421875,1.0959014892578125,0.23858642578125,-2.7796783447265625
1663861881823419600,7.009419677734375,1.2098846435546875,0.1150054931640625,-2.854248046875
1663861881833307400,7.019307373046875,1.26953125,-0.206695556640625,-2.836151123046875
1663861881843195100,7.029195068359375,1.2748565673828125,-0.3941802978515625,-2.8169708251953125
1663861881853083000,7.039082763671875,1.216278076171875,-0.3323974609375,-2.7999267578125
1663861881862970400,7.048970458984375,1.1044158935546875,-0.1694183349609375,-2.7935333251953125
1663861881872858000,7.058858154296875,1.033050537109375,0.0351104736328125,-2.79779052734375
1663861881882745900,7.068745849609375,1.017059326171875,0.1981048583984375,-2.8286895751953125
1663861881892633600,7.078633544921875,1.087371826171875,0.165069580078125,-2.935211181640625
1663861881902490600,7.08849072265625,1.2397003173828125,-0.084197998046875,-3.05133056640625
1663861881912378400,7.09837841796875,1.352630615234375,-0.2610321044921875,-3.0790252685546875
1663861881922266000,7.10826611328125,1.3536834716796875,-0.1822052001953125,-3.0566558837890625
1663861881932153900,7.11815380859375,1.258880615234375,-0.00323486328125,-3.059844970703125
1663861881942041600,7.12804150390625,1.14276123046875,0.16827392578125,-3.059844970703125
1663861881951929000,7.13792919921875,1.067138671875,0.2950439453125,-3.0119171142578125
1663861881961786400,7.147786376953125,1.0628662109375,0.3887786865234375,-2.89154052734375
1663861881971674000,7.157674072265625,1.1608734130859375,0.4388427734375,-2.7573089599609375
1663861881981561900,7.167561767578125,1.29296875,0.465484619140625,-2.7413330078125
1663861881991419000,7.1774189453125,1.3334503173828125,0.4132843017578125,-2.810577392578125
1663861882001276200,7.187276123046875,1.2514190673828125,0.282257080078125,-2.8468017578125
1663861882011164000,7.197163818359375,1.1076202392578125,0.190643310546875,-2.7882080078125
1663861882021051400,7.207051513671875,0.9680633544921875,0.2620086669921875,-2.660369873046875
1663861882030939100,7.216939208984375,0.8636627197265625,0.420745849609375,-2.5229644775390625
1663861882040827000,7.226826904296875,0.87005615234375,0.552825927734375,-2.4068450927734375
1663861882050714600,7.236714599609375,0.97552490234375,0.56561279296875,-2.3290863037109375
1663861882060602400,7.246602294921875,1.108673095703125,0.5283355712890625,-2.3141632080078125
1663861882070490000,7.256489990234375,1.17791748046875,0.4942474365234375,-2.333343505859375
1663861882080377600,7.266377685546875,1.1757965087890625,0.4037017822265625,-2.2949981689453125
1663861882090265300,7.276265380859375,1.1193389892578125,0.2982330322265625,-2.2151031494140625
1663861882100153000,7.286153076171875,1.02984619140625,0.2513580322265625,-2.0968475341796875
1663861882110040800,7.296040771484375,0.9595489501953125,0.2556304931640625,-1.955169677734375
1663861882119897900,7.30589794921875,0.9446258544921875,0.2630767822265625,-1.8582305908203125
1663861882129785600,7.31578564453125,0.9456939697265625,0.247100830078125,-1.786865234375
1663861882139643000,7.325642822265625,0.96380615234375,0.2087554931640625,-1.7346649169921875
1663861882149561000,7.33556103515625,0.9361114501953125,0.13525390625,-1.705902099609375
1663861882159418000,7.345418212890625,0.816802978515625,0.028717041015625,-1.6750030517578125
1663861882169275400,7.355275390625,0.6346435546875,-0.0884552001953125,-1.56634521484375
1663861882179193600,7.365193603515625,0.49615478515625,-0.115081787109375,-1.4821929931640625
1663861882189051000,7.37505078125,0.4322357177734375,-0.0639495849609375,-1.374603271484375
1663861882198938400,7.3849384765625,0.4343719482421875,0.0574798583984375,-1.25103759765625
1663861882208826000,7.394826171875,0.4439544677734375,0.1480255126953125,-1.1295928955078125
1663861882218713900,7.4047138671875,0.427978515625,0.192779541015625,-0.9825897216796875
1663861882228601600,7.4146015625,0.3842926025390625,0.178924560546875,-0.8355712890625
1663861882238489300,7.4244892578125,0.3171844482421875,0.143768310546875,-0.681121826171875
1663861882248376800,7.434376953125,0.234100341796875,0.10009765625,-0.521331787109375
1663861882258264600,7.4442646484375,0.1552734375,0.066009521484375,-0.3785858154296875
1663861882268121900,7.454121826171875,0.0849609375,0.0681304931640625,-0.2315673828125
1663861882278040000,7.4640400390625,0.0199737548828125,0.054290771484375,-0.08349609375
1663861882287897000,7.47389697265625,-0.04180908203125,0.0478973388671875,0.0571136474609375
1663861882297784800,7.483784912109375,-0.120635986328125,0.04364013671875,0.2083740234375
1663861882307672600,7.493672607421875,-0.2154388427734375,-0.0085601806640625,0.345794677734375
1663861882317529900,7.50352978515625,-0.3123779296875,-0.070343017578125,0.472564697265625
1663861882327417600,7.51341748046875,-0.414642333984375,-0.0948486328125,0.608917236328125
1663861882337305000,7.52330517578125,-0.5158538818359375,-0.1214752197265625,0.733551025390625
1663861882347192800,7.53319287109375,-0.6074676513671875,-0.1566314697265625,0.840087890625
1663861882357080600,7.54308056640625,-0.70013427734375,-0.172607421875,0.9444732666015625
1663861882366968300,7.55296826171875,-0.7874908447265625,-0.1651611328125,1.043548583984375
1663861882376856000,7.56285595703125,-0.8652496337890625,-0.1534423828125,1.1532745361328125
1663861882386743600,7.57274365234375,-0.9259796142578125,-0.1598358154296875,1.2757720947265625
1663861882396600800,7.582600830078125,-0.976043701171875,-0.1672821044921875,1.396148681640625
1663861882406488600,7.592488525390625,-1.0143890380859375,-0.1651611328125,1.5303802490234375
1663861882416376300,7.602376220703125,-1.04315185546875,-0.1598358154296875,1.669921875
1663861882426263800,7.612263916015625,-1.0729827880859375,-0.1651611328125,1.7892303466796875
1663861882436151600,7.622151611328125,-1.1049346923828125,-0.171539306640625,1.898956298828125
1663861882446008800,7.6320087890625,-1.133697509765625,-0.1672821044921875,2.014007568359375
1663861882455927000,7.641927001953125,-1.1528778076171875,-0.1651611328125,2.1109466552734375
1663861882465814800,7.651814697265625,-1.159271240234375,-0.1363983154296875,2.197235107421875
1663861882475702300,7.661702392578125,-1.1528778076171875,-0.0767364501953125,2.300567626953125
1663861882485590000,7.671590087890625,-1.1273040771484375,-0.016021728515625,2.4102783203125
1663861882495477800,7.681477783203125,-1.0825653076171875,0.0478973388671875,2.5114898681640625
1663861882505365500,7.691365478515625,-1.03143310546875,0.110748291015625,2.6020355224609375
1663861882515222500,7.701222412109375,-0.98883056640625,0.1522979736328125,2.6915130615234375
1663861882525110300,7.7111103515625,-0.9707183837890625,0.1661376953125,2.7916412353515625
1663861882534967600,7.720967529296875,-0.966461181640625,0.176788330078125,2.8949737548828125
1663861882544855300,7.730855224609375,-0.962188720703125,0.1618804931640625,2.9897918701171875
1663861882554743000,7.740742919921875,-0.9494171142578125,0.165069580078125,3.0611572265625
1663861882564630500,7.750630615234375,-0.9366302490234375,0.2279205322265625,3.0920562744140625
1663861882574518300,7.760518310546875,-0.93023681640625,0.2662811279296875,3.0931243896484375
1663861882584406000,7.770406005859375,-0.921722412109375,0.2332611083984375,3.085662841796875
1663861882594263300,7.78026318359375,-0.898284912109375,0.17041015625,3.064361572265625
1663861882604181500,7.790181396484375,-0.8545989990234375,0.10009765625,3.05157470703125
1663861882614038500,7.80003857421875,-0.8311614990234375,0.02020263671875,3.0845947265625
1663861882623926300,7.80992626953125,-0.826904296875,-0.039459228515625,3.1495819091796875
1663861882633814000,7.81981396484375,-0.8109283447265625,-0.0650177001953125,3.22308349609375
1663861882643701800,7.82970166015625,-0.8077392578125,-0.0319976806640625,3.291259765625
1663861882653589200,7.83958935546875,-0.8332977294921875,0.056427001953125,3.337066650390625
1663861882663477000,7.84947705078125,-0.8673858642578125,0.1544189453125,3.3551788330078125
1663861882673364700,7.85936474609375,-0.8886871337890625,0.2087554931640625,3.356231689453125
1663861882683252500,7.86925244140625,-0.8780364990234375,0.2055511474609375,3.3530426025390625
1663861882693140200,7.87914013671875,-0.838623046875,0.192779541015625,3.3572998046875
1663861882703027700,7.88902783203125,-0.7896270751953125,0.165069580078125,3.3519744873046875
1663861882712915500,7.89891552734375,-0.7555389404296875,0.1256561279296875,3.3200225830078125
1663861882722803200,7.90880322265625,-0.7395477294921875,0.099029541015625,3.3178863525390625
1663861882732660500,7.918660400390625,-0.750213623046875,0.0819854736328125,3.358367919921875
1663861882742517500,7.928517578125,-0.7853546142578125,0.06280517578125,3.3988494873046875
1663861882752374800,7.938374755859375,-0.8237152099609375,0.0340423583984375,3.436126708984375
1663861882762293000,7.94829296875,-0.8673858642578125,-0.0064239501953125,3.49578857421875
1663861882772180700,7.9581806640625,-0.9355621337890625,0.0010223388671875,3.5820770263671875
1663861882782037800,7.968037841796875,-1.030364990234375,0.0489654541015625,3.6736907958984375
1663861882791956000,7.9779560546875,-1.1422271728515625,0.09796142578125,3.7077789306640625
1663861882801843700,7.98784375,-1.228515625,0.1054229736328125,3.664093017578125
1663861882811701000,7.997700927734375,-1.225311279296875,0.04364013671875,3.5479888916015625
1663861882821558000,8.00755810546875,-1.159271240234375,-0.0767364501953125,3.3658294677734375
1663861882831476200,8.017476318359375,-1.0868377685546875,-0.1779327392578125,3.1580963134765625
1663861882841364000,8.027364013671875,-1.0367584228515625,-0.1555633544921875,2.972747802734375
1663861882851251700,8.037251708984375,-1.0261077880859375,-0.0085601806640625,2.8001708984375
1663861882861139500,8.047139404296875,-1.0335693359375,0.1746673583984375,2.6329193115234375
1663861882871027200,8.057027099609375,-1.022918701171875,0.3887786865234375,2.5093536376953125
1663861882880884200,8.06688427734375,-1.0058746337890625,0.5965118408203125,2.420928955078125
1663861882890772000,8.07677197265625,-0.9803009033203125,0.7083587646484375,2.3144073486328125
1663861882900659700,8.08665966796875,-0.919586181640625,0.69451904296875,2.1876373291015625
1663861882910547500,8.09654736328125,-0.8098602294921875,0.5911865234375,2.0523529052734375
1663861882920435000,8.10643505859375,-0.6522064208984375,0.46441650390625,1.9138641357421875
1663861882930322700,8.11632275390625,-0.5009307861328125,0.3355255126953125,1.762603759765625
1663861882940210400,8.12621044921875,-0.393341064453125,0.26947021484375,1.555938720703125
1663861882950098200,8.13609814453125,-0.2836151123046875,0.2012939453125,1.22784423828125
1663861882959986000,8.14598583984375,-0.14300537109375,0.056427001953125,0.872039794921875
1663861882969873400,8.155873291015626,-0.0141143798828125,-0.1204071044921875,0.575897216796875
1663861882979730700,8.165730712890625,0.0540618896484375,-0.2801971435546875,0.3372802734375
1663861882989588000,8.175587890625,0.07110595703125,-0.3622283935546875,0.1476593017578125
1663861882999445000,8.185445068359375,0.0785675048828125,-0.36968994140625,0.0091705322265625
1663861883009363200,8.19536328125,0.0785675048828125,-0.2951202392578125,-0.0813751220703125
1663861883019220500,8.205220458984375,0.09454345703125,-0.0905914306640625,-0.1346282958984375
1663861883029138700,8.215138671875,0.1222381591796875,0.1661376953125,-0.145294189453125
1663861883039026400,8.2250263671875,0.1488800048828125,0.3813323974609375,-0.1250457763671875
1663861883048914200,8.2349140625,0.173370361328125,0.4899749755859375,-0.10693359375
1663861883058771200,8.244771240234375,0.1861572265625,0.4473724365234375,-0.1112060546875
1663861883068628500,8.25462841796875,0.1904144287109375,0.2865142822265625,-0.1271820068359375
1663861883078516200,8.26451611328125,0.1904144287109375,0.1139373779296875,-0.1037445068359375
1663861883088403700,8.27440380859375,0.177642822265625,-0.0106964111328125,-0.0227813720703125
1663861883098322000,8.284322021484375,0.132904052734375,-0.0639495849609375,0.0922698974609375
1663861883108179200,8.29417919921875,0.0700531005859375,-0.0447845458984375,0.19879150390625
1663861883118097400,8.304097412109375,0.017852783203125,0.0052947998046875,0.277618408203125
1663861883127954700,8.31395458984375,-0.0332794189453125,-0.0096282958984375,0.314910888671875
1663861883137842200,8.32384228515625,-0.1035919189453125,-0.150238037109375,0.3138427734375
1663861883147730000,8.33372998046875,-0.176025390625,-0.3153533935546875,0.312774658203125
1663861883157617700,8.34361767578125,-0.223968505859375,-0.3867340087890625,0.32342529296875
1663861883167475000,8.353474853515625,-0.24847412109375,-0.3675537109375,0.326629638671875
1663861883177393200,8.36339306640625,-0.2537994384765625,-0.3089599609375,0.32342529296875
1663861883187280600,8.37328076171875,-0.23675537109375,-0.2621002197265625,0.3298187255859375
1663861883197168400,8.38316845703125,-0.2037200927734375,-0.263153076171875,0.3404693603515625
1663861883207056100,8.39305615234375,-0.164306640625,-0.3196258544921875,0.32769775390625
1663861883216913400,8.402913330078125,-0.1142425537109375,-0.39312744140625,0.2712249755859375
1663861883226801000,8.41280078125,-0.05352783203125,-0.4495849609375,0.178558349609375
1663861883236688600,8.422688720703125,-0.0023956298828125,-0.46875,0.0816192626953125
1663861883246576400,8.432576416015625,0.0348968505859375,-0.44744873046875,-0.00360107421875
1663861883256464100,8.442464111328125,0.0689849853515625,-0.3878021240234375,-0.094146728515625
1663861883266351900,8.452351806640625,0.097747802734375,-0.3068389892578125,-0.19854736328125
1663861883276239600,8.462239501953125,0.1275634765625,-0.2386627197265625,-0.312530517578125
1663861883286127000,8.472127197265625,0.1595306396484375,-0.207763671875,-0.4329071044921875
1663861883296014800,8.482014892578125,0.2042694091796875,-0.2365264892578125,-0.5575408935546875
1663861883305902600,8.491902587890625,0.2735137939453125,-0.3270721435546875,-0.6875
1663861883315790300,8.501790283203125,0.35980224609375,-0.4634246826171875,-0.8430328369140625
1663861883325617000,8.511616943359375,0.4418182373046875,-0.59552001953125,-1.029449462890625
1663861883335504600,8.521504638671875,0.5057373046875,-0.68927001953125,-1.2318572998046875
1663861883345392400,8.531392333984375,0.5579376220703125,-0.721221923828125,-1.4459686279296875
1663861883355249400,8.54124951171875,0.608001708984375,-0.6796722412109375,-1.669677734375
1663861883365167600,8.551167724609375,0.6495513916015625,-0.6136322021484375,-1.896575927734375
1663861883375055400,8.561055419921875,0.687896728515625,-0.56463623046875,-2.1309356689453125
1663861883384943000,8.570943115234375,0.73370361328125,-0.5763397216796875,-2.3493194580078125
1663861883394800400,8.58080029296875,0.793365478515625,-0.61895751953125,-2.5186920166015625
1663861883404688000,8.59068798828125,0.87005615234375,-0.6029815673828125,-2.6443939208984375
1663861883414545200,8.600545166015625,0.9669952392578125,-0.4868621826171875,-2.73388671875
1663861883424433000,8.610432861328125,1.06500244140625,-0.2940521240234375,-2.8191070556640625
1663861883434351000,8.62035107421875,1.1417083740234375,-0.08526611328125,-2.9671783447265625
1663861883444208000,8.6302080078125,1.190704345703125,0.052154541015625,-3.165313720703125
1663861883454096000,8.640095947265625,1.2056121826171875,0.1064910888671875,-3.346405029296875
1663861883463983600,8.649983642578125,1.15875244140625,0.0926361083984375,-3.42950439453125
1663861883473871400,8.659871337890625,1.0394439697265625,-0.027740478515625,-3.322967529296875
1663861883483728400,8.669728271484376,0.8903045654296875,-0.1917877197265625,-3.0460052490234375
1663861883493646800,8.679646728515625,0.7965545654296875,-0.2503814697265625,-2.751983642578125
1663861883503534300,8.689534423828125,0.8018798828125,-0.16302490234375,-2.596466064453125
1663861883513422000,8.699422119140625,0.8604736328125,-0.0181427001953125,-2.63800048828125
1663861883523309800,8.709309814453125,0.914794921875,0.108612060546875,-2.822296142578125
1663861883533197600,8.719197509765625,0.960601806640625,0.132049560546875,-3.03961181640625
1663861883543085300,8.729085205078125,1.0032196044921875,0.07879638671875,-3.1940765380859375
1663861883552972800,8.738972900390625,1.0383758544921875,0.1054229736328125,-3.1951446533203125
1663861883562860500,8.748860595703125,1.0468902587890625,0.2194061279296875,-3.083282470703125
1663861883572748300,8.758748291015625,1.0245208740234375,0.296112060546875,-3.0470733642578125
1663861883582605600,8.76860546875,0.996826171875,0.268402099609375,-3.151458740234375
1663861883592493000,8.7784931640625,1.02984619140625,0.1299285888671875,-3.23455810546875
1663861883602350300,8.788350341796875,1.1097412109375,-0.0128173828125,-3.2270965576171875
1663861883612238000,8.798238037109375,1.192840576171875,-0.0181427001953125,-3.231353759765625
1663861883622095000,8.80809521484375,1.305755615234375,-0.0192108154296875,-3.276092529296875
1663861883632013300,8.818013427734375,1.3803253173828125,-0.105499267578125,-3.337890625
1663861883641901000,8.827901123046875,1.4229278564453125,-0.16302490234375,-3.3527984619140625
1663861883651758300,8.83775830078125,1.4602203369140625,-0.126800537109375,-3.2974090576171875
1663861883661646000,8.84764599609375,1.4602203369140625,-0.082061767578125,-3.219635009765625
1663861883671533600,8.857533447265626,1.4144134521484375,-0.0330657958984375,-3.1610565185546875
1663861883681421300,8.86742138671875,1.336639404296875,0.181060791015625,-3.1610565185546875
1663861883691309000,8.87730908203125,1.249298095703125,0.463348388671875,-3.22283935546875
1663861883701196800,8.88719677734375,1.200286865234375,0.601837158203125,-3.349609375
1663861883711084500,8.89708447265625,1.1821746826171875,0.5954437255859375,-3.3975372314453125
1663861883720972300,8.90697216796875,1.1938934326171875,0.691314697265625,-3.325103759765625
1663861883730859800,8.91685986328125,1.2418365478515625,0.8947906494140625,-3.1610565185546875
1663861883740747500,8.92674755859375,1.2674102783203125,0.9725494384765625,-2.9629058837890625
1663861883750635300,8.93663525390625,1.27166748046875,1.023681640625,-2.865966796875
1663861883760523000,8.94652294921875,1.2993621826171875,0.95550537109375,-2.8148345947265625
1663861883770380000,8.956380126953125,1.338775634765625,0.7456512451171875,-2.7700958251953125
1663861883780237300,8.9662373046875,1.3568878173828125,0.5048980712890625,-2.777557373046875
1663861883790125000,8.976125,1.3462371826171875,0.22686767578125,-2.7967376708984375
1663861883800012800,8.9860126953125,1.28338623046875,0.056427001953125,-2.7487945556640625
1663861883809900300,8.995900390625,1.1065521240234375,0.1160736083984375,-2.6252288818359375
1663861883819788000,9.0057880859375,0.8871002197265625,0.2534942626953125,-2.4984588623046875
1663861883829645300,9.015645263671875,0.814666748046875,0.3802642822265625,-2.37701416015625
1663861883839533000,9.025532958984375,0.9009552001953125,0.472930908203125,-2.24066162109375
1663861883849420500,9.035420654296875,1.020263671875,0.477203369140625,-2.1234893798828125
1663861883859308300,9.045308349609375,1.0373077392578125,0.4473724365234375,-2.0627593994140625
1663861883869196000,9.055196044921875,0.939300537109375,0.3664093017578125,-2.002044677734375
1663861883879053300,9.06505322265625,0.7635345458984375,0.181060791015625,-1.8997802734375
1663861883888971500,9.074971435546875,0.58349609375,0.066009521484375,-1.8060302734375
1663861883898859000,9.08485888671875,0.44927978515625,0.0276641845703125,-1.6856536865234375
1663861883908716300,9.09471630859375,0.3992156982421875,0.028717041015625,-1.5535736083984375
1663861883918573600,9.104573486328125,0.4087982177734375,0.04364013671875,-1.4353179931640625
1663861883928491800,9.11449169921875,0.424774169921875,0.101165771484375,-1.3256072998046875
1663861883938379300,9.124379150390626,0.404541015625,0.1309814453125,-1.1967010498046875
1663861883948267000,9.13426708984375,0.357666015625,0.134185791015625,-1.0709991455078125
1663861883958154800,9.14415478515625,0.3203887939453125,0.1171417236328125,-0.909088134765625
1663861883968042500,9.15404248046875,0.2703094482421875,0.0734710693359375,-0.756744384765625
1663861883977930200,9.16393017578125,0.208526611328125,0.028717041015625,-0.62359619140625
1663861883987787300,9.173787353515625,0.14141845703125,0.019134521484375,-0.473388671875
1663861883997675000,9.183675048828125,0.083892822265625,0.0106201171875,-0.3104095458984375
1663861884007532300,9.1935322265625,0.0551300048828125,-0.0181427001953125,-0.1463470458984375
1663861884017450500,9.203450439453125,0.0327606201171875,-0.0330657958984375,0.01983642578125
1663861884027307500,9.2133076171875,-0.0087890625,-0.0415802001953125,0.1934661865234375
1663861884037195300,9.2231953125,-0.0599212646484375,-0.0682220458984375,0.34686279296875
1663861884047083000,9.2330830078125,-0.1259613037109375,-0.0948486328125,0.4896087646484375
1663861884056970800,9.242970703125,-0.21331787109375,-0.12786865234375,0.62384033203125
1663861884066858500,9.2528583984375,-0.305999755859375,-0.17474365234375,0.7388763427734375
1663861884076746000,9.26274609375,-0.3912200927734375,-0.2056427001953125,0.851806640625
1663861884086633700,9.2726337890625,-0.473236083984375,-0.2386627197265625,0.9785614013671875
1663861884096521500,9.282521484375,-0.56591796875,-0.278076171875,1.100006103515625
1663861884106409200,9.2924091796875,-0.654327392578125,-0.298309326171875,1.2075958251953125
1663861884116266200,9.302266357421875,-0.7310333251953125,-0.2972412109375,1.30560302734375
1663861884126154000,9.312154052734375,-0.7970733642578125,-0.2951202392578125,1.4025421142578125
1663861884136041700,9.322041748046875,-0.851409912109375,-0.2940521240234375,1.513336181640625
1663861884145929500,9.331929443359375,-0.907867431640625,-0.3057708740234375,1.6156005859375
1663861884155817200,9.341817138671875,-0.962188720703125,-0.3174896240234375,1.725311279296875
1663861884165704700,9.35170458984375,-1.001617431640625,-0.3174896240234375,1.842498779296875
1663861884175592400,9.361592529296875,-1.020782470703125,-0.29937744140625,1.930908203125
1663861884185480200,9.371480224609375,-1.0293121337890625,-0.286590576171875,2.001220703125
1663861884195368000,9.381367919921875,-1.044219970703125,-0.265289306640625,2.082183837890625
1663861884205255700,9.391255615234375,-1.064453125,-0.24505615234375,2.18231201171875
1663861884215112700,9.40111279296875,-1.067657470703125,-0.2237396240234375,2.286712646484375
1663861884225000400,9.41100048828125,-1.053802490234375,-0.2013702392578125,2.37725830078125
1663861884234888200,9.42088818359375,-1.046356201171875,-0.1470489501953125,2.4507598876953125
1663861884244776000,9.43077587890625,-1.0399627685546875,-0.0863189697265625,2.5157470703125
1663861884254663700,9.44066357421875,-1.0261077880859375,-0.02667236328125,2.580718994140625
1663861884264551200,9.45055126953125,-1.0048065185546875,0.0265960693359375,2.652099609375
1663861884274439000,9.46043896484375,-0.9749755859375,0.0681304931640625,2.7277374267578125
1663861884284296200,9.470296142578125,-0.952606201171875,0.1150054931640625,2.79058837890625
1663861884294184000,9.480183837890625,-0.9483489990234375,0.1384429931640625,2.8534393310546875
1663861884304041000,9.490041015625,-0.9376983642578125,0.1427001953125,2.9194793701171875
1663861884313928700,9.4999287109375,-0.9249114990234375,0.1501617431640625,2.9833984375
1663861884323786000,9.509785888671875,-0.9249114990234375,0.155487060546875,3.0228118896484375
1663861884333704200,9.5197041015625,-0.93023681640625,0.2012939453125,3.017486572265625
1663861884343561200,9.529561279296875,-0.932373046875,0.2630767822265625,3.0206756591796875
1663861884353449000,9.539448974609375,-0.9472808837890625,0.2407073974609375,3.0238800048828125
1663861884363336700,9.549336669921875,-0.9462127685546875,0.190643310546875,3.0206756591796875
1663861884373224400,9.559224365234375,-0.920654296875,0.1373748779296875,3.0334625244140625
1663861884383112000,9.56911181640625,-0.9025421142578125,0.0724029541015625,3.036651611328125
1663861884392969200,9.57896923828125,-0.9131927490234375,0.0606842041015625,3.038787841796875
1663861884402887400,9.588887451171875,-0.9451446533203125,0.0830535888671875,3.11761474609375
1663861884412775200,9.598775146484375,-0.952606201171875,0.030853271484375,3.220947265625
1663861884422663000,9.608662841796875,-0.9238433837890625,-0.0362548828125,3.2944488525390625
1663861884432550700,9.618550537109375,-0.8769683837890625,-0.0298614501953125,3.3636932373046875
1663861884442438100,9.628438232421875,-0.818389892578125,-0.00323486328125,3.414825439453125
1663861884452326000,9.638325927734375,-0.7416839599609375,0.0127410888671875,3.4329376220703125
1663861884462213600,9.648213623046875,-0.6617889404296875,0.02978515625,3.4116363525390625
1663861884472101400,9.658101318359375,-0.6042633056640625,0.0361785888671875,3.3498382568359375
1663861884481958400,9.66795849609375,-0.56805419921875,0.0233917236328125,3.299774169921875
1663861884491846100,9.67784619140625,-0.5616607666015625,-0.0096282958984375,3.2859344482421875
1663861884501734000,9.68773388671875,-0.5605926513671875,-0.02667236328125,3.268890380859375
1663861884511591200,9.697591064453125,-0.543548583984375,-0.00323486328125,3.24224853515625
1663861884521478700,9.707478759765625,-0.5254364013671875,0.0468292236328125,3.2071075439453125
1663861884531366400,9.717366455078125,-0.5275726318359375,0.0947723388671875,3.1708831787109375
1663861884541223700,9.7272236328125,-0.55419921875,0.1054229736328125,3.1463775634765625
1663861884551111400,9.737111328125,-0.5936126708984375,0.09796142578125,3.139984130859375
1663861884560999000,9.7469990234375,-0.633026123046875,0.0830535888671875,3.1474456787109375
1663861884570886700,9.75688671875,-0.6745758056640625,0.09051513671875,3.1549072265625
1663861884580774400,9.7667744140625,-0.7214508056640625,0.1629486083984375,3.139984130859375
1663861884590662100,9.776662109375,-0.7406158447265625,0.260955810546875,3.0931243896484375
1663861884600550000,9.7865498046875,-0.7054595947265625,0.3302001953125,3.0217437744140625
1663861884610437400,9.796437255859376,-0.6436767578125,0.393035888671875,2.9248046875
1663861884620325000,9.8063251953125,-0.5925445556640625,0.4697418212890625,2.80975341796875
1663861884630212900,9.816212890625,-0.5605926513671875,0.498504638671875,2.6904449462890625
1663861884640100600,9.8261005859375,-0.562713623046875,0.4622802734375,2.5871124267578125
1663861884649988400,9.83598828125,-0.609588623046875,0.3919830322265625,2.4880523681640625
1663861884659845400,9.845845458984375,-0.63623046875,0.35894775390625,2.39111328125
1663861884669733000,9.855733154296875,-0.6617889404296875,0.4260711669921875,2.310150146484375
1663861884679620900,9.865620849609375,-0.712921142578125,0.5134124755859375,2.197235107421875
1663861884689508600,9.875508544921875,-0.771514892578125,0.5507049560546875,2.0395660400390625
1663861884699396400,9.885396240234375,-0.7853546142578125,0.5251312255859375,1.854217529296875
1663861884709283800,9.895283935546875,-0.7193145751953125,0.442047119140625,1.6858978271484375
1663861884719171600,9.905171630859375,-0.6277008056640625,0.3781280517578125,1.5378265380859375
1663861884729059300,9.915059326171875,-0.510528564453125,0.3184814453125,1.362060546875
1663861884738916600,9.92491650390625,-0.3454132080078125,0.2055511474609375,1.125579833984375
1663861884748804000,9.93480419921875,-0.153656005859375,0.0500335693359375,0.790008544921875
1663861884758691800,9.94469189453125,0.0018768310546875,-0.1182861328125,0.418243408203125
1663861884768579600,9.95457958984375,0.109466552734375,-0.2801971435546875,0.108245849609375
1663861884778467300,9.96446728515625,0.1723175048828125,-0.40484619140625,-0.0664520263671875
1663861884788324400,9.974324462890625,0.1861572265625,-0.460235595703125,-0.117584228515625
1663861884798212000,9.984212158203125,0.1861572265625,-0.4762115478515625,-0.1154632568359375
1663861884808069400,9.9940693359375,0.1946868896484375,-0.4304046630859375,-0.110137939453125
1663861884817957000,10.00395703125,0.2095947265625,-0.3206787109375,-0.13037109375
1663861884827814100,10.013814208984375,0.220245361328125,-0.206695556640625,-0.1836395263671875
1663861884837732400,10.023732421875,0.2170562744140625,-0.1108245849609375,-0.23370361328125
1663861884847620000,10.0336201171875,0.1914825439453125,-0.03839111328125,-0.2411651611328125
1663861884857507800,10.0435078125,0.1488800048828125,0.016998291015625,-0.1932220458984375
1663861884867364900,10.05336474609375,0.097747802734375,0.06280517578125,-0.0994873046875
1663861884877252600,10.063252685546875,0.039154052734375,0.0606842041015625,-0.006805419921875
1663861884887140400,10.073140380859375,-0.0130462646484375,-0.0298614501953125,0.042205810546875
1663861884897028000,10.083028076171875,-0.0439300537109375,-0.1704864501953125,0.040069580078125
1663861884906885400,10.092885498046876,-0.06524658203125,-0.3153533935546875,0.0134429931640625
1663861884916803600,10.102803466796875,-0.0908050537109375,-0.4325408935546875,-0.004669189453125
1663861884926660600,10.11266064453125,-0.1163787841796875,-0.4762115478515625,-0.0014801025390625
1663861884936548400,10.12254833984375,-0.1472625732421875,-0.4538421630859375,0.02728271484375
1663861884946436000,10.13243603515625,-0.164306640625,-0.41229248046875,0.0549774169921875
1663861884956293000,10.142293212890625,-0.1600494384765625,-0.3867340087890625,0.0443267822265625
1663861884966211300,10.15221142578125,-0.144073486328125,-0.38140869140625,-0.0025482177734375
1663861884976099000,10.16209912109375,-0.1270294189453125,-0.37713623046875,-0.0547332763671875
1663861884985986800,10.17198681640625,-0.108917236328125,-0.366485595703125,-0.0994873046875
1663861884995874600,10.18187451171875,-0.08868408203125,-0.3505096435546875,-0.13995361328125
1663861885005731600,10.191731689453125,-0.07269287109375,-0.3377227783203125,-0.178314208984375
1663861885015588900,10.2015888671875,-0.0588531494140625,-0.3196258544921875,-0.21240234375
1663861885025507000,10.211507080078125,-0.0439300537109375,-0.2919158935546875,-0.2486114501953125
1663861885035364400,10.2213642578125,-0.0205078125,-0.2588958740234375,-0.291229248046875
1663861885045251800,10.231251953125,0.0082550048828125,-0.2343902587890625,-0.3487548828125
1663861885055170000,10.241170166015625,0.04022216796875,-0.218414306640625,-0.4233245849609375
1663861885065027300,10.25102734375,0.0785675048828125,-0.2056427001953125,-0.5160064697265625
1663861885074915000,10.2609150390625,0.12969970703125,-0.2013702392578125,-0.63104248046875
1663861885084802800,10.270802734375,0.1925506591796875,-0.208831787109375,-0.756744384765625
1663861885094690300,10.280690185546876,0.2617950439453125,-0.2397308349609375,-0.8824462890625
1663861885104578000,10.290578125,0.3299713134765625,-0.279144287109375,-1.0038909912109375
1663861885114465800,10.3004658203125,0.393890380859375,-0.32281494140625,-1.124267578125
1663861885124323000,10.310322998046875,0.463134765625,-0.378204345703125,-1.25103759765625
1663861885134210800,10.3202109375,0.5259857177734375,-0.425079345703125,-1.3937835693359375
1663861885144098300,10.330098388671875,0.5813751220703125,-0.4623565673828125,-1.5620880126953125
1663861885153986000,10.339986083984375,0.6229248046875,-0.4975128173828125,-1.771942138671875
1663861885163873800,10.349873779296875,0.6506195068359375,-0.573150634765625,-1.9956512451171875
1663861885173761500,10.359761474609375,0.6836395263671875,-0.678619384765625,-2.2118988037109375
1663861885183649300,10.369649169921875,0.734771728515625,-0.764892578125,-2.4515838623046875
1663861885193506300,10.37950634765625,0.7986907958984375,-0.7840728759765625,-2.7530517578125
1663861885203394000,10.38939404296875,0.861541748046875,-0.72442626953125,-3.10992431640625
1663861885213251300,10.399251220703125,0.8956298828125,-0.723358154296875,-3.40179443359375
1663861885223138800,10.409138916015625,0.962738037109375,-0.8181610107421875,-3.5147247314453125
1663861885233057000,10.41905712890625,1.07672119140625,-0.80218505859375,-3.4742431640625
1663861885242944800,10.42894482421875,1.136383056640625,-0.56036376953125,-3.3272247314453125
1663861885252832500,10.43883251953125,1.0948333740234375,-0.2130889892578125,-3.1024627685546875
1663861885262689800,10.448689697265625,1.01068115234375,0.0596160888671875,-2.8180389404296875
1663861885272577300,10.458577392578125,0.9787139892578125,0.214080810546875,-2.55810546875
1663861885282465000,10.468465087890625,1.01812744140625,0.284393310546875,-2.4174957275390625
1663861885292322300,10.478322265625,1.096954345703125,0.409027099609375,-2.44732666015625
1663861885302240500,10.488240478515625,1.1619415283203125,0.6732025146484375,-2.582611083984375
1663861885312128300,10.498128173828125,1.18963623046875,0.919281005859375,-2.7700958251953125
1663861885321985300,10.5079853515625,1.1757965087890625,0.9576263427734375,-2.9629058837890625
1663861885331873000,10.517873046875,1.1139984130859375,0.759490966796875,-3.071563720703125
1663861885341760800,10.5277607421875,1.020263671875,0.4803924560546875,-3.0193634033203125
1663861885351648500,10.5376484375,0.9211883544921875,0.296112060546875,-2.8595733642578125
1663861885361536300,10.547536376953126,0.805084228515625,0.124603271484375,-2.7882080078125
1663861885371393300,10.557393310546875,0.6804351806640625,-0.0415802001953125,-2.845733642578125
1663861885381311500,10.5673115234375,0.6143951416015625,-0.231201171875,-2.9991302490234375
1663861885391199200,10.57719921875,0.63250732421875,-0.4293365478515625,-3.1844940185546875
1663861885401056500,10.587056396484375,0.6506195068359375,-0.55078125,-3.278228759765625
1663861885410944000,10.596944091796875,0.7166595458984375,-0.48046875,-3.2483978271484375
1663861885420801300,10.60680126953125,0.8796539306640625,-0.4144287109375,-3.12164306640625
1663861885430719500,10.616719482421875,1.0841827392578125,-0.5678253173828125,-2.9767608642578125
1663861885440576800,10.62657666015625,1.2269287109375,-0.495391845703125,-2.911773681640625
1663861885450464300,10.63646435546875,1.28338623046875,-0.10443115234375,-2.8734283447265625
1663861885460352000,10.64635205078125,1.3046875,0.2747955322265625,-2.8702392578125
1663861885470239700,10.65623974609375,1.31854248046875,0.465484619140625,-2.9096527099609375
1663861885480097000,10.666096923828125,1.3558197021484375,0.5485687255859375,-2.923492431640625
1663861885490015200,10.67601513671875,1.4570159912109375,0.6497650146484375,-2.9394683837890625
1663861885499872300,10.685872314453125,1.5113525390625,0.6103515625,-2.935211181640625
1663861885509760000,10.695760009765625,1.4825897216796875,0.519805908203125,-2.912841796875
1663861885519647700,10.705647705078125,1.362213134765625,0.5038299560546875,-2.90325927734375
1663861885529535500,10.715535400390625,1.132110595703125,0.404754638671875,-2.889404296875
1663861885539423000,10.725423095703125,0.882843017578125,0.23858642578125,-2.8702392578125
1663861885549310700,10.735310791015625,0.699615478515625,0.124603271484375,-2.7967376708984375
1663861885559198500,10.745198486328125,0.6378326416015625,0.2087554931640625,-2.73175048828125
1663861885569086200,10.755086181640625,0.748626708984375,0.279052734375,-2.650787353515625
1663861885578974000,10.764973876953125,0.985107421875,0.21514892578125,-2.479278564453125
1663861885588861700,10.77486181640625,1.2397003173828125,0.26947021484375,-2.3865966796875
1663861885598749200,10.784749267578125,1.4293212890625,0.37493896484375,-2.4153594970703125
1663861885608637000,10.794636962890625,1.430389404296875,0.41009521484375,-2.3983154296875
1663861885618494200,10.804494140625,1.2152099609375,0.3813323974609375,-2.319488525390625
1663861885628382000,10.8143818359375,0.8998870849609375,0.2417755126953125,-2.232147216796875
1663861885638269400,10.82426953125,0.67724609375,0.15869140625,-2.1298675537109375
1663861885648157200,10.8341572265625,0.6037445068359375,0.1501617431640625,-1.9945831298828125
1663861885658045000,10.844044921875,0.6506195068359375,0.2204742431640625,-1.8603668212890625
1663861885667932700,10.8539326171875,0.7432861328125,0.3791961669921875,-1.7591552734375
1663861885677789700,10.863789794921875,0.8135986328125,0.4931793212890625,-1.67181396484375
1663861885687647000,10.87364697265625,0.8295745849609375,0.5379180908203125,-1.60150146484375
1663861885697565200,10.883565185546875,0.7784423828125,0.533660888671875,-1.52374267578125
1663861885707453000,10.893452880859375,0.6602020263671875,0.5166168212890625,-1.431060791015625
1663861885717310000,10.90331005859375,0.518524169921875,0.4601593017578125,-1.3575592041015625
1663861885727167200,10.913167236328125,0.39068603515625,0.3802642822265625,-1.273406982421875
1663861885737085400,10.92308544921875,0.2969512939453125,0.2993011474609375,-1.203094482421875
1663861885746942700,10.932942626953125,0.222381591796875,0.24603271484375,-1.1391754150390625
1663861885756861000,10.94286083984375,0.175506591796875,0.2513580322265625,-1.0379791259765625
1663861885766718000,10.952718017578125,0.1563262939453125,0.2556304931640625,-0.9410400390625
1663861885776605700,10.962605712890625,0.11798095703125,0.1949005126953125,-0.8100128173828125
1663861885786493400,10.972493408203125,0.07110595703125,0.192779541015625,-0.6747283935546875
1663861885796381200,10.982381103515625,0.0380859375,0.1970367431640625,-0.531982421875
1663861885806238200,10.99223828125,0.0199737548828125,0.1640167236328125,-0.404144287109375
1663861885816126000,11.0021259765625,0.006134033203125,0.132049560546875,-0.277374267578125
1663861885826013700,11.012013671875,-0.0151824951171875,0.11181640625,-0.1282501220703125
1663861885835901400,11.0219013671875,-0.05352783203125,0.0617523193359375,0.0102386474609375
1663861885845789200,11.0317890625,-0.0940093994140625,-0.00537109375,0.1359405517578125
1663861885855646200,11.041646240234375,-0.1270294189453125,-0.0554351806640625,0.25738525390625
1663861885865564400,11.051564453125,-0.1611175537109375,-0.070343017578125,0.383087158203125
1663861885875452200,11.0614521484375,-0.200531005859375,-0.0948486328125,0.5247650146484375
1663861885885309400,11.071309326171875,-0.246337890625,-0.1438446044921875,0.653656005859375
1663861885895227600,11.0812275390625,-0.2953338623046875,-0.1917877197265625,0.7633819580078125
1663861885905115100,11.091115234375,-0.3592529296875,-0.218414306640625,0.8784332275390625
1663861885914972400,11.100972412109375,-0.4338226318359375,-0.2471771240234375,0.9913482666015625
1663861885924860200,11.110860107421875,-0.496673583984375,-0.2812652587890625,1.09893798828125
1663861885934748000,11.120747802734375,-0.5584564208984375,-0.2972412109375,1.2182464599609375
1663861885944635400,11.130635498046875,-0.62237548828125,-0.3302764892578125,1.35247802734375
1663861885954523100,11.140523193359375,-0.679901123046875,-0.3441162109375,1.485626220703125
1663861885964411000,11.150410888671875,-0.7299652099609375,-0.335601806640625,1.604949951171875
1663861885974298600,11.160298583984375,-0.7768402099609375,-0.333465576171875,1.692291259765625
1663861885984155600,11.17015576171875,-0.818389892578125,-0.3323974609375,1.7700653076171875
1663861885994013000,11.180012939453125,-0.849273681640625,-0.3089599609375,1.86700439453125
1663861886003900700,11.189900634765625,-0.8684539794921875,-0.266357421875,1.9724578857421875
1663861886013788400,11.199788330078125,-0.882293701171875,-0.2237396240234375,2.068328857421875
1663861886023706600,11.20970654296875,-0.9014739990234375,-0.1811370849609375,2.150360107421875
1663861886033563600,11.219563720703125,-0.9270477294921875,-0.1353302001953125,2.2227935791015625
1663861886043421000,11.2294208984375,-0.9398193359375,-0.0756683349609375,2.2941741943359375
1663861886053339100,11.239339111328125,-0.9462127685546875,-0.01708984375,2.354888916015625
1663861886063227000,11.249226806640625,-0.950469970703125,0.032989501953125,2.411346435546875
1663861886073114600,11.259114501953125,-0.9451446533203125,0.077728271484375,2.4805908203125
1663861886083002000,11.269002197265625,-0.931304931640625,0.1043548583984375,2.558349609375
1663861886092889900,11.278889892578125,-0.9249114990234375,0.124603271484375,2.63079833984375
1663861886102747100,11.2887470703125,-0.917449951171875,0.1405792236328125,2.6936492919921875
1663861886112604200,11.298604248046875,-0.90679931640625,0.1480255126953125,2.7490386962890625
1663861886122522400,11.3085224609375,-0.8886871337890625,0.1427001953125,2.7916412353515625
1663861886132410000,11.31841015625,-0.8556671142578125,0.1395111083984375,2.8150787353515625
1663861886142297900,11.3282978515625,-0.8311614990234375,0.1288604736328125,2.8172149658203125
1663861886152185600,11.338185546875,-0.814117431640625,0.075592041015625,2.8236083984375
1663861886162073300,11.3480732421875,-0.7992095947265625,-0.0128173828125,2.8406524658203125
1663861886171960800,11.3579609375,-0.791748046875,-0.0948486328125,2.8608856201171875
1663861886181848600,11.3678486328125,-0.771514892578125,-0.1001739501953125,2.86834716796875
1663861886191736300,11.377736328125,-0.736358642578125,-0.039459228515625,2.8417205810546875
1663861886201624000,11.3876240234375,-0.7193145751953125,0.0020904541015625,2.8118896484375
1663861886211511800,11.39751171875,-0.6969451904296875,-0.00323486328125,2.8150787353515625
1663861886221399300,11.4073994140625,-0.6735076904296875,0.0052947998046875,2.8523712158203125
1663861886231256600,11.417256591796875,-0.6639251708984375,0.0606842041015625,2.9056243896484375
1663861886241113900,11.42711376953125,-0.658599853515625,0.110748291015625,2.9833984375
1663861886251001300,11.43700146484375,-0.6607208251953125,0.101165771484375,3.0579681396484375
1663861886260889000,11.44688916015625,-0.656463623046875,0.08837890625,3.106964111328125
1663861886270776800,11.45677685546875,-0.635162353515625,0.10009765625,3.116546630859375
1663861886280634000,11.466634033203125,-0.59893798828125,0.13311767578125,3.0771331787109375
1663861886290521600,11.476521484375,-0.5605926513671875,0.1522979736328125,3.0142822265625
1663861886300409300,11.486409423828125,-0.5392913818359375,0.1288604736328125,2.9865875244140625
1663861886310297000,11.496297119140625,-0.52862548828125,0.0830535888671875,2.9791412353515625
1663861886320184800,11.506184814453125,-0.5382232666015625,0.0734710693359375,3.0015106201171875
1663861886330072600,11.516072509765625,-0.5712432861328125,0.0819854736328125,3.064361572265625
1663861886339960300,11.525960205078125,-0.62451171875,0.0809173583984375,3.11761474609375
1663861886349847800,11.535847900390625,-0.6862945556640625,0.0393829345703125,3.1666259765625
1663861886359735600,11.545735595703125,-0.756591796875,-0.0426483154296875,3.232666015625
1663861886369623300,11.555623291015625,-0.8556671142578125,-0.1097564697265625,3.301910400390625
1663861886379511000,11.565510986328125,-0.9589996337890625,-0.1481170654296875,3.3615570068359375
1663861886389398800,11.575398681640625,-1.053802490234375,-0.1470489501953125,3.403106689453125
1663861886399255800,11.585255859375,-1.1326446533203125,-0.10443115234375,3.424407958984375
1663861886409143600,11.5951435546875,-1.1305084228515625,-0.0682220458984375,3.39459228515625
1663861886419031300,11.60503125,-1.076171875,-0.016021728515625,3.2987060546875
1663861886428919000,11.6149189453125,-1.055938720703125,0.0841217041015625,3.1719512939453125
1663861886438776000,11.624776123046875,-1.0964202880859375,0.192779541015625,3.0345306396484375
1663861886448633300,11.63463330078125,-1.1507415771484375,0.284393310546875,2.8822021484375
1663861886458551600,11.644551513671875,-1.170989990234375,0.3333892822265625,2.7234649658203125
1663861886468439300,11.654439208984375,-1.1411590576171875,0.3536224365234375,2.5764617919921875
1663861886478326800,11.664326904296875,-1.079376220703125,0.395172119140625,2.4422454833984375
1663861886488184000,11.67418408203125,-1.00799560546875,0.4505615234375,2.31866455078125
1663861886498071800,11.68407177734375,-0.9046783447265625,0.444183349609375,2.2100067138671875
1663861886507959600,11.69395947265625,-0.7725830078125,0.3770599365234375,2.0640716552734375
1663861886517847000,11.703846923828126,-0.6490020751953125,0.3216705322265625,1.88616943359375
1663861886527704300,11.713704345703125,-0.5456695556640625,0.32806396484375,1.7221221923828125
1663861886537622500,11.72362255859375,-0.46044921875,0.36322021484375,1.5879058837890625
1663861886547510300,11.73351025390625,-0.3645782470703125,0.3333892822265625,1.4472808837890625
1663861886557367600,11.743367431640625,-0.234619140625,0.1746673583984375,1.2374267578125
1663861886567255000,11.753255126953125,-0.097198486328125,-0.072479248046875,0.965789794921875
1663861886577142800,11.763142822265625,0.0082550048828125,-0.300445556640625,0.7175750732421875
1663861886587000000,11.773,0.05194091796875,-0.4261474609375,0.5482025146484375
1663861886596887800,11.7828876953125,0.05194091796875,-0.4325408935546875,0.4587249755859375
1663861886606775300,11.792775390625,0.0338287353515625,-0.3718109130859375,0.37030029296875
1663861886616663000,11.8026630859375,0.0210418701171875,-0.277008056640625,0.236083984375
1663861886626520300,11.812520263671875,0.04022216796875,-0.12786865234375,0.0933380126953125
1663861886636438500,11.8224384765625,0.0913543701171875,0.0585479736328125,-0.028106689453125
1663861886646326300,11.832326171875,0.1350250244140625,0.22686767578125,-0.1154632568359375
1663861886656213800,11.8422138671875,0.1552734375,0.3355255126953125,-0.1463470458984375
1663861886666071000,11.852071044921875,0.1680450439453125,0.4004974365234375,-0.10906982421875
1663861886675958800,11.861958740234375,0.1701812744140625,0.409027099609375,-0.0568695068359375
1663861886685846500,11.871846435546875,0.1595306396484375,0.3078155517578125,-0.0323638916015625
1663861886695734000,11.881734130859375,0.140350341796875,0.1384429931640625,-0.037689208984375
1663861886705591300,11.89159130859375,0.1126556396484375,-0.02880859375,-0.0440826416015625
1663861886715509500,11.901509521484375,0.0732421875,-0.173675537109375,-0.0323638916015625
1663861886725397200,11.911397216796875,0.0231781005859375,-0.3196258544921875,-0.0249176025390625
1663861886735254300,11.921254150390626,-0.029022216796875,-0.4282684326171875,-0.0206451416015625
1663861886745142000,11.93114208984375,-0.0695037841796875,-0.4453125,0.0123748779296875
1663861886754999300,11.940999267578125,-0.10040283203125,-0.401641845703125,0.061370849609375
1663861886764917500,11.95091748046875,-0.1280975341796875,-0.3526458740234375,0.0901336669921875
1663861886774805200,11.96080517578125,-0.14300537109375,-0.321746826171875,0.083740234375
1663861886784693000,11.97069287109375,-0.140869140625,-0.301513671875,0.0571136474609375
1663861886794580500,11.98058056640625,-0.1259613037109375,-0.2844696044921875,0.02728271484375
1663861886804468200,11.99046826171875,-0.1025238037109375,-0.274871826171875,-0.0014801025390625
1663861886814356000,12.00035595703125,-0.0695037841796875,-0.290863037109375,-0.0408935546875
1663861886824243700,12.01024365234375,-0.0236968994140625,-0.345184326171875,-0.0920257568359375
1663861886834100700,12.020100830078125,0.0210418701171875,-0.4080352783203125,-0.1612701416015625
1663861886843988500,12.029988525390625,0.0572662353515625,-0.45703125,-0.2507476806640625
1663861886853876200,12.039876220703125,0.0902862548828125,-0.491119384765625,-0.347686767578125
1663861886863764000,12.049763916015625,0.1254425048828125,-0.4879302978515625,-0.453155517578125
1663861886873651700,12.059651611328125,0.1786956787109375,-0.458099365234375,-0.561798095703125
1663861886883539200,12.069539306640625,0.245819091796875,-0.4197540283203125,-0.6608734130859375
1663861886893427000,12.079427001953125,0.3203887939453125,-0.401641845703125,-0.74609375
1663861886903284200,12.0892841796875,0.3960113525390625,-0.4069671630859375,-0.8217315673828125
1663861886913172000,12.099171875,0.463134765625,-0.425079345703125,-0.906951904296875
1663861886923059500,12.1090595703125,0.516387939453125,-0.4559783935546875,-1.0262603759765625
1663861886932947200,12.118947265625,0.565399169921875,-0.481536865234375,-1.182861328125
1663861886942804500,12.128804443359375,0.6154632568359375,-0.50390625,-1.374603271484375
1663861886952692200,12.138692138671875,0.66766357421875,-0.5220184326171875,-1.5972442626953125
1663861886962549200,12.14854931640625,0.7283782958984375,-0.5475921630859375,-1.8294677734375
1663861886972467500,12.158467529296875,0.7869720458984375,-0.563568115234375,-2.056365966796875
1663861886982355200,12.168355224609375,0.8412933349609375,-0.5241546630859375,-2.2811431884765625
1663861886992212500,12.17821240234375,0.884979248046875,-0.3941802978515625,-2.504852294921875
1663861887002100000,12.188099853515626,0.9425048828125,-0.2141571044921875,-2.70831298828125
1663861887011987700,12.19798779296875,1.00640869140625,-0.08099365234375,-2.8468017578125
1663861887021875500,12.20787548828125,1.052215576171875,-0.0202789306640625,-2.912841796875
1663861887031732700,12.217732666015625,1.078857421875,0.01806640625,-2.8968658447265625
1663861887041620500,12.227620361328125,1.0586090087890625,0.0841217041015625,-2.775421142578125
1663861887051538700,12.23753857421875,0.972320556640625,0.2300567626953125,-2.5538482666015625
1663861887061395700,12.247395751953125,0.8423614501953125,0.3898468017578125,-2.272613525390625
1663861887071283500,12.257283447265625,0.725189208984375,0.45269775390625,-2.0499725341796875
1663861887081140700,12.267140625,0.643157958984375,0.35150146484375,-1.99884033203125
1663861887091059000,12.277058837890625,0.63250732421875,0.2076873779296875,-2.17462158203125
1663861887100916000,12.286916015625,0.67724609375,0.1597442626953125,-2.4867401123046875
1663861887110803700,12.2968037109375,0.69110107421875,0.1501617431640625,-2.69873046875
1663861887120691500,12.30669140625,0.641021728515625,0.063873291015625,-2.6688995361328125
1663861887130579200,12.3165791015625,0.553680419921875,-0.05755615234375,-2.4888763427734375
1663861887140466700,12.326466796875,0.4791107177734375,-0.137451171875,-2.36529541015625
1663861887150354400,12.3363544921875,0.44927978515625,-0.173675537109375,-2.38873291015625
1663861887160242200,12.3462421875,0.4684600830078125,-0.161956787109375,-2.514434814453125
1663861887170130000,12.3561298828125,0.5110626220703125,-0.1417236328125,-2.648651123046875
1663861887179987000,12.365987060546875,0.5408935546875,-0.251434326171875,-2.7168426513671875
1663861887189874700,12.375874755859375,0.5568695068359375,-0.48260498046875,-2.728546142578125
1663861887199762400,12.385762451171875,0.600555419921875,-0.58380126953125,-2.6944580078125
1663861887209650200,12.395650146484375,0.758209228515625,-0.5774078369140625,-2.7051239013671875
1663861887219538000,12.405537841796875,1.0053558349609375,-0.504974365234375,-2.7615814208984375
1663861887229425400,12.41542529296875,1.249298095703125,-0.3515777587890625,-2.73175048828125
1663861887239313200,12.425313232421875,1.4570159912109375,-0.2269439697265625,-2.6934051513671875
1663861887249201000,12.435200927734375,1.624267578125,-0.13958740234375,-2.6795501708984375
1663861887259088600,12.445088623046875,1.705230712890625,-0.05010986328125,-2.650787353515625
1663861887268976400,12.454976318359375,1.7020263671875,0.0372467041015625,-2.6326751708984375
1663861887278864100,12.464864013671875,1.6658172607421875,0.1831817626953125,-2.5911407470703125
1663861887288751600,12.474751708984375,1.613616943359375,0.4015655517578125,-2.526153564453125
1663861887298639400,12.484639404296875,1.557159423828125,0.5048980712890625,-2.4867401123046875
1663861887308527000,12.494527099609375,1.5518341064453125,0.431396484375,-2.4878082275390625
1663861887318384400,12.50438427734375,1.5507659912109375,0.418609619140625,-2.5772857666015625
1663861887328272000,12.51427197265625,1.46661376953125,0.498504638671875,-2.7242889404296875
1663861887338159600,12.52415966796875,1.3100128173828125,0.4622802734375,-2.831878662109375
1663861887348047400,12.53404736328125,1.1193389892578125,0.350433349609375,-2.820159912109375
1663861887357935000,12.54393505859375,0.9233245849609375,0.3472442626953125,-2.7509307861328125
1663861887367822800,12.55382275390625,0.769927978515625,0.42926025390625,-2.68701171875
1663861887377680000,12.563679931640625,0.6857757568359375,0.55389404296875,-2.6028594970703125
1663861887387567600,12.573567626953125,0.7294464111328125,0.6273956298828125,-2.500579833984375
1663861887397455400,12.583455322265625,0.89349365234375,0.6508331298828125,-2.444122314453125
1663861887407343000,12.593343017578125,1.1257171630859375,0.7392578125,-2.4846038818359375
1663861887417230600,12.603230712890625,1.29296875,0.580535888671875,-2.48992919921875
1663861887427118300,12.613118408203125,1.305755615234375,0.3323211669921875,-2.4217529296875
1663861887437006000,12.623006103515625,1.14276123046875,0.2897186279296875,-2.3865966796875
1663861887446863400,12.63286328125,0.8530120849609375,0.2747955322265625,-2.31842041015625
1663861887456750800,12.642750732421876,0.5675201416015625,0.15869140625,-2.180999755859375
1663861887466638600,12.652638671875,0.4578094482421875,0.08624267578125,-2.032928466796875
1663861887476526300,12.6625263671875,0.4993438720703125,0.1043548583984375,-1.9381256103515625
1663861887486414000,12.6724140625,0.5898895263671875,0.112884521484375,-1.8816680908203125
1663861887496301800,12.6823017578125,0.6708526611328125,0.08624267578125,-1.820953369140625
1663861887506189600,12.692189453125,0.6964263916015625,0.00634765625,-1.7442474365234375
1663861887516046600,12.702046630859375,0.6708526611328125,0.0127410888671875,-1.6654205322265625
1663861887525934300,12.711934326171875,0.596282958984375,0.108612060546875,-1.520538330078125
1663861887535791600,12.72179150390625,0.5323638916015625,0.1267242431640625,-1.3479766845703125
1663861887545679000,12.73167919921875,0.528106689453125,0.0947723388671875,-1.1871185302734375
1663861887555566800,12.74156689453125,0.553680419921875,0.0947723388671875,-1.0486297607421875
1663861887565454600,12.75145458984375,0.57391357421875,0.0841217041015625,-0.9176025390625
1663861887575312000,12.761311767578125,0.572845458984375,0.077728271484375,-0.79296875
1663861887585199400,12.771199462890625,0.5366363525390625,0.0702667236328125,-0.645965576171875
1663861887595087000,12.781087158203125,0.4684600830078125,0.06494140625,-0.508544921875
1663861887604944400,12.7909443359375,0.3960113525390625,0.0702667236328125,-0.38177490234375
1663861887614862600,12.800862548828125,0.3289031982421875,0.1032867431640625,-0.256072998046875
1663861887624719600,12.8107197265625,0.2479400634765625,0.108612060546875,-0.1378326416015625
1663861887634637800,12.820637939453125,0.1382293701171875,0.0734710693359375,-0.0408935546875
1663861887644525600,12.830525634765625,-0.0034637451171875,0.044708251953125,0.0347442626953125
1663861887654413300,12.840413330078125,-0.1600494384765625,0.02020263671875,0.110382080078125
1663861887664301000,12.850301025390625,-0.2953338623046875,0.0020904541015625,0.201995849609375
1663861887674188800,12.860188720703125,-0.4114532470703125,-0.004302978515625,0.2967987060546875
1663861887684085000,12.8700849609375,-0.5265045166015625,-0.0181427001953125,0.3873443603515625
1663861887693972700,12.87997265625,-0.635162353515625,-0.0554351806640625,0.4853515625
1663861887703860200,12.889860107421875,-0.7321014404296875,-0.1065673828125,0.5865478515625
1663861887713687000,12.89968701171875,-0.8205108642578125,-0.13958740234375,0.6856231689453125
1663861887723544000,12.9095439453125,-0.897216796875,-0.1598358154296875,0.7996063232421875
1663861887733462300,12.919462158203125,-0.9717864990234375,-0.183258056640625,0.916778564453125
1663861887743350000,12.92935009765625,-1.032501220703125,-0.2003021240234375,1.0169219970703125
1663861887753237800,12.93923779296875,-1.0601959228515625,-0.207763671875,1.1170501708984375
1663861887763125500,12.94912548828125,-1.0804443359375,-0.2162933349609375,1.2299652099609375
1663861887772982500,12.958982421875,-1.0921630859375,-0.22161865234375,1.3482208251953125
1663861887782870300,12.968870361328126,-1.0953521728515625,-0.2269439697265625,1.4749755859375
1663861887792758000,12.978758056640626,-1.10174560546875,-0.2120208740234375,1.5868377685546875
1663861887802615300,12.988615234375,-1.100677490234375,-0.183258056640625,1.6773834228515625
1663861887812502800,12.998502685546875,-1.100677490234375,-0.160888671875,1.7657928466796875
1663861887822390500,13.008390625,-1.110260009765625,-0.1065673828125,1.8531494140625
1663861887832308700,13.018308837890626,-1.1198577880859375,-0.0660858154296875,1.9298553466796875
1663861887842196500,13.028196533203126,-1.1294403076171875,-0.0405120849609375,2.00335693359375
