time,seconds_elapsed,z,y,x
1663861875036248800,0.222248779296875,-93.61572265625,-35.6842041015625,62.96539306640625
1663861875056207000,0.24220703125,-93.7774658203125,-36.00616455078125,60.8306884765625
1663861875076226800,0.262226806640625,-94.0887451171875,-36.3067626953125,61.285400390625
1663861875096215800,0.2822158203125,-95.44677734375,-35.69488525390625,62.200927734375
1663861875116204800,0.302204833984375,-94.6624755859375,-34.64202880859375,60.68267822265625
1663861875136163300,0.322163330078125,-95.5902099609375,-35.25238037109375,60.52703857421875
1663861875156182800,0.342182861328125,-93.19000244140625,-36.92779541015625,59.60693359375
1663861875176446500,0.362446533203125,-93.5943603515625,-34.63592529296875,61.1419677734375
1663861875196374500,0.38237451171875,-95.1416015625,-35.5682373046875,59.00115966796875
1663861875216180500,0.402180419921875,-94.54193115234375,-36.02294921875,58.9996337890625
1663861875236169500,0.42216943359375,-93.82781982421875,-38.15155029296875,58.685302734375
1663861875256127700,0.442127685546875,-93.79425048828125,-36.63177490234375,58.69293212890625
1663861875276117000,0.462116943359375,-94.7296142578125,-37.5518798828125,58.0780029296875
1663861875296106000,0.48210595703125,-93.65692138671875,-37.255859375,56.70928955078125
1663861875316095000,0.502094970703125,-94.70672607421875,-36.48681640625,58.0841064453125
1663861875336084000,0.522083984375,-94.27337646484375,-37.55950927734375,57.01141357421875
1663861875356073000,0.542072998046875,-93.24188232421875,-39.08538818359375,55.938720703125
1663861875376062000,0.56206201171875,-94.96002197265625,-40.777587890625,53.94744873046875
1663861875396020500,0.5820205078125,-94.18182373046875,-40.03143310546875,52.12249755859375
1663861875416040000,0.6020400390625,-92.6849365234375,-41.23992919921875,52.57568359375
1663861875436029000,0.62202880859375,-94.07196044921875,-41.98760986328125,54.39910888671875
1663861875455987500,0.641987548828125,-95.14007568359375,-42.0013427734375,53.02581787109375
1663861875476007000,0.6620068359375,-95.59326171875,-41.7144775390625,51.1993408203125
1663861875495996000,0.681995849609375,-93.90106201171875,-41.094970703125,52.117919921875
1663861875515985200,0.701985107421875,-93.6187744140625,-42.14630126953125,53.485107421875
1663861875535974100,0.72197412109375,-95.623779296875,-43.072509765625,52.25830078125
1663861875555963100,0.741963134765625,-94.83184814453125,-41.71600341796875,50.7415771484375
1663861875575952100,0.7619521484375,-94.68994140625,-42.18292236328125,49.5208740234375
1663861875595941000,0.781941162109375,-93.3135986328125,-42.0135498046875,51.1993408203125
1663861875615930000,0.80193017578125,-94.09332275390625,-42.78564453125,49.9755859375
1663861875635919000,0.821919189453125,-93.04351806640625,-43.536376953125,50.7354736328125
1663861875655908000,0.841908203125,-94.3817138671875,-42.03033447265625,49.36981201171875
1663861875675897000,0.86189697265625,-92.86346435546875,-42.19970703125,46.93145751953125
1663861875695886000,0.881885986328125,-93.22052001953125,-44.48699951171875,46.1578369140625
1663861875715875000,0.901875,-92.12646484375,-43.27850341796875,45.098876953125
1663861875735849700,0.921849609375,-92.93670654296875,-45.14923095703125,39.6026611328125
1663861875755991300,0.9419912109375,-92.437744140625,-43.31817626953125,40.37322998046875
1663861875775858400,0.9618583984375,-90.16571044921875,-43.9361572265625,38.6962890625
1663861875795817000,0.98181689453125,-87.8692626953125,-43.36090087890625,34.130859375
1663861875815836400,1.00183642578125,-86.66839599609375,-44.134521484375,32.2998046875
1663861875835825400,1.021825439453125,-83.81805419921875,-45.99456787109375,27.11181640625
1663861875855784000,1.041783935546875,-80.3497314453125,-47.54180908203125,23.14605712890625
1663861875875803400,1.061803466796875,-73.14300537109375,-45.58563232421875,18.896484375
1663861875895792400,1.08179248046875,-69.3023681640625,-44.23675537109375,15.70587158203125
1663861875915781400,1.101781494140625,-67.68646240234375,-40.14739990234375,13.74664306640625
1663861875935740000,1.121739990234375,-64.117431640625,-37.40692138671875,13.30718994140625
1663861875955759400,1.14175927734375,-62.31842041015625,-32.0770263671875,14.25018310546875
1663861875975748600,1.16174853515625,-60.2264404296875,-27.21710205078125,13.36212158203125
1663861875995737600,1.181737548828125,-60.71319580078125,-21.87957763671875,15.673828125
1663861876015726600,1.2017265625,-59.1400146484375,-19.7418212890625,16.44744873046875
1663861876035685000,1.22168505859375,-59.991455078125,-16.998291015625,17.68035888671875
1663861876056040200,1.242040283203125,-60.736083984375,-16.2353515625,18.1396484375
1663861876075968300,1.26196826171875,-61.602783203125,-14.2425537109375,20.4345703125
1663861876095743700,1.28174365234375,-64.0045166015625,-12.56866455078125,21.35467529296875
1663861876115702000,1.301701904296875,-64.33258056640625,-13.623046875,22.5677490234375
1663861876135660500,1.32166064453125,-66.9525146484375,-14.84832763671875,22.10235595703125
1663861876156046300,1.34204638671875,-67.44384765625,-16.36962890625,21.942138671875
1663861876175638500,1.361638427734375,-67.6422119140625,-18.3441162109375,22.08404541015625
1663861876195627800,1.381627685546875,-66.717529296875,-17.89398193359375,21.173095703125
1663861876215616800,1.40161669921875,-67.156982421875,-17.1356201171875,21.1761474609375
1663861876235605800,1.421605712890625,-64.691162109375,-15.91796875,20.7275390625
1663861876255564300,1.441564208984375,-62.38250732421875,-15.00091552734375,20.88775634765625
1663861876275583700,1.461583740234375,-61.578369140625,-13.1744384765625,20.89691162109375
1663861876295572700,1.48157275390625,-61.88201904296875,-13.16070556640625,22.72491455078125
1663861876315561700,1.501561767578125,-61.07330322265625,-11.17706298828125,23.345947265625
1663861876335520300,1.521520263671875,-59.417724609375,-12.0880126953125,23.0377197265625
1663861876355539700,1.541539794921875,-60.150146484375,-10.8642578125,24.26300048828125
1663861876375528700,1.56152880859375,-59.8175048828125,-9.6435546875,24.72686767578125
1663861876395517700,1.581517578125,-58.92181396484375,-10.54534912109375,25.6378173828125
1663861876415537400,1.601537353515625,-58.3831787109375,-7.03582763671875,27.33154296875
1663861876435496000,1.621495849609375,-58.27789306640625,-9.02099609375,26.10321044921875
1663861876455485000,1.64148486328125,-58.79669189453125,-5.06134033203125,27.1881103515625
1663861876475474000,1.661473876953125,-60.5926513671875,-3.67279052734375,30.08880615234375
1663861876495463000,1.681462890625,-59.21783447265625,-3.65447998046875,31.91986083984375
1663861876515452000,1.701451904296875,-59.49859619140625,-2.46124267578125,29.33349609375
1663861876535441000,1.72144091796875,-59.20867919921875,-3.20587158203125,31.15997314453125
1663861876555430000,1.741429931640625,-58.7066650390625,-1.361083984375,33.45489501953125
1663861876575419000,1.7614189453125,-60.0555419921875,-0.433349609375,35.74371337890625
1663861876595408000,1.781407958984375,-58.06427001953125,0.02593994140625,35.595703125
1663861876615396900,1.80139697265625,-60.2294921875,-1.3397216796875,36.3494873046875
1663861876635385900,1.8213857421875,-60.20965576171875,-0.5706787109375,37.41912841796875
1663861876655374800,1.841374755859375,-60.53466796875,-1.34735107421875,35.5865478515625
1663861876675364000,1.861364013671875,-58.6517333984375,0.946044921875,36.6668701171875
1663861876695353000,1.88135302734375,-58.36639404296875,0.04425048828125,37.8814697265625
1663861876715342000,1.901342041015625,-61.2579345703125,0.3265380859375,36.05194091796875
1663861876735331000,1.9213310546875,-58.0413818359375,0.946044921875,36.66839599609375
1663861876755320000,1.941320068359375,-58.65631103515625,0.6561279296875,38.494873046875
1663861876775309000,1.96130908203125,-59.539794921875,1.89971923828125,42.00439453125
1663861876795298000,1.981298095703125,-60.1531982421875,1.74560546875,41.85028076171875
1663861876815287000,2.001287109375,-60.284423828125,2.66265869140625,42.4652099609375
1663861876835276000,2.021276123046875,-61.99951171875,0.9979248046875,43.6737060546875
1663861876855265000,2.04126513671875,-63.3758544921875,0.70648193359375,45.50018310546875
1663861876875223600,2.0612236328125,-64.27001953125,1.617431640625,45.65582275390625
1663861876895243000,2.081242919921875,-64.73388671875,1.32293701171875,46.87347412109375
1663861876915232300,2.101232177734375,-62.725830078125,2.52532958984375,44.7479248046875
1663861876935221200,2.12122119140625,-62.73193359375,2.22930908203125,45.81298828125
1663861876955576300,2.141576416015625,-63.65966796875,1.61895751953125,45.65582275390625
1663861876975321300,2.1613212890625,-62.8509521484375,3.73687744140625,44.2962646484375
1663861876995218700,2.18121875,-62.896728515625,1.6326904296875,47.18170166015625
1663861877015177200,2.20117724609375,-62.4420166015625,1.60980224609375,44.28558349609375
1663861877035166200,2.221166259765625,-62.896728515625,1.629638671875,46.87652587890625
1663861877055124700,2.241124755859375,-61.0595703125,1.94091796875,47.18475341796875
1663861877075144200,2.261144287109375,-62.88604736328125,1.959228515625,49.774169921875
1663861877095133200,2.28113330078125,-60.1470947265625,1.79901123046875,48.10028076171875
1663861877115122200,2.3011220703125,-61.21826171875,1.519775390625,51.4495849609375
1663861877135111200,2.321111083984375,-61.1724853515625,3.375244140625,55.11627197265625
1663861877155100400,2.341100341796875,-62.4267578125,1.7242431640625,57.85064697265625
1663861877175089400,2.36108935546875,-64.36920166015625,3.41033935546875,60.14251708984375
1663861877195078400,2.381078369140625,-66.0247802734375,4.32586669921875,61.0595703125
1663861877215067400,2.4010673828125,-65.2984619140625,2.79998779296875,59.9853515625
1663861877235056400,2.421056396484375,-64.239501953125,2.48565673828125,58.61358642578125
1663861877255045400,2.44104541015625,-61.932373046875,3.38897705078125,56.94427490234375
1663861877275034400,2.461034423828125,-62.08038330078125,3.55072021484375,58.16497802734375
1663861877295023400,2.4810234375,-61.31744384765625,3.55224609375,58.16497802734375
1663861877315012400,2.501012451171875,-63.74664306640625,4.1412353515625,56.48956298828125
1663861877335001300,2.52100146484375,-63.72222900390625,5.20477294921875,56.494140625
1663861877354990300,2.540990234375,-60.2264404296875,4.61883544921875,58.172607421875
1663861877374979600,2.5609794921875,-59.31243896484375,4.4891357421875,60.6109619140625
1663861877394968600,2.580968505859375,-58.251953125,4.18701171875,60.6109619140625
1663861877414957600,2.60095751953125,-56.2408447265625,5.4107666015625,61.07635498046875
1663861877434946600,2.620946533203125,-55.00640869140625,6.0272216796875,61.68975830078125
1663861877454905000,2.640905029296875,-55.3863525390625,2.6947021484375,63.19732666015625
1663861877474924500,2.660924560546875,-54.27703857421875,4.52423095703125,63.51165771484375
1663861877494913500,2.68091357421875,-55.4779052734375,5.4229736328125,62.2955322265625
1663861877514902500,2.700902587890625,-54.12750244140625,4.3731689453125,63.66424560546875
1663861877534891500,2.7208916015625,-53.0303955078125,5.7403564453125,63.36669921875
1663861877554880500,2.740880615234375,-53.521728515625,4.2236328125,63.81683349609375
1663861877574869500,2.760869384765625,-54.4189453125,5.108642578125,60.77117919921875
1663861877594858500,2.7808583984375,-54.4281005859375,4.65545654296875,61.0748291015625
1663861877614817000,2.800817138671875,-52.56500244140625,6.16912841796875,60.01739501953125
1663861877634836700,2.820836669921875,-53.16619873046875,6.6162109375,59.1033935546875
1663861877654825700,2.84082568359375,-50.274658203125,6.32476806640625,59.86785888671875
1663861877674814700,2.860814697265625,-51.03759765625,6.3262939453125,60.1715087890625
1663861877694788000,2.8807880859375,-51.37786865234375,4.79736328125,59.0972900390625
1663861877714777000,2.900777099609375,-53.3050537109375,7.2235107421875,58.953857421875
1663861877734766000,2.92076611328125,-54.1015625,5.69915771484375,58.64105224609375
1663861877754755000,2.940755126953125,-54.8858642578125,4.65087890625,60.7696533203125
1663861877774744000,2.960744140625,-56.0699462890625,6.31561279296875,60.16693115234375
1663861877794733000,2.980733154296875,-56.55517578125,5.08575439453125,58.63494873046875
1663861877814722000,3.00072216796875,-53.47900390625,6.30950927734375,58.7982177734375
1663861877834985700,3.02098583984375,-53.65753173828125,5.09490966796875,58.94317626953125
1663861877854913800,3.040913818359375,-52.7587890625,4.48150634765625,58.02764892578125
1663861877874689300,3.060689208984375,-52.29644775390625,4.6356201171875,58.18023681640625
1663861877894708700,3.080708740234375,-52.70843505859375,6.62078857421875,59.5611572265625
1663861877914667300,3.100667236328125,-52.57720947265625,5.70220947265625,58.642578125
1663861877934625800,3.120625732421875,-52.42919921875,5.548095703125,58.33740234375
1663861877954645200,3.140645263671875,-49.334716796875,7.5225830078125,57.4371337890625
1663861877974664700,3.160664794921875,-47.8729248046875,4.6600341796875,60.01434326171875
1663861877994653700,3.18065380859375,-44.78759765625,6.31561279296875,57.28302001953125
1663861878014612200,3.2006123046875,-44.07958984375,3.7628173828125,60.92987060546875
1663861878034601200,3.220601318359375,-41.58172607421875,6.34918212890625,60.63995361328125
1663861878054621000,3.240620849609375,-40.521240234375,6.048583984375,60.63995361328125
1663861878074579500,3.260579345703125,-37.81280517578125,4.39910888671875,62.615966796875
1663861878094568400,3.280568359375,-33.4014892578125,3.9520263671875,62.6190185546875
1663861878114588000,3.300587890625,-32.3333740234375,3.95660400390625,62.9241943359375
1663861878134577000,3.320576904296875,-31.1248779296875,3.4912109375,61.39984130859375
1663861878154566000,3.34056591796875,-28.8665771484375,2.14080810546875,62.91961669921875
1663861878174585300,3.36058544921875,-25.24566650390625,0.47607421875,62.9150390625
1663861878194543900,3.3805439453125,-21.6064453125,-0.5584716796875,65.5059814453125
1663861878215082200,3.401082275390625,-20.57037353515625,-1.92413330078125,65.4998779296875
1663861878234552600,3.420552490234375,-17.57354736328125,-4.33197021484375,67.47283935546875
1663861878254480400,3.44048046875,-15.04669189453125,-7.208251953125,68.22357177734375
1663861878274469400,3.460469482421875,-14.93072509765625,-8.87451171875,68.82476806640625
1663861878294458400,3.480458251953125,-11.9415283203125,-11.5936279296875,70.0347900390625
1663861878314417000,3.5004169921875,-8.6395263671875,-13.99383544921875,73.0743408203125
1663861878334436600,3.5204365234375,-7.64923095703125,-17.3492431640625,71.22955322265625
1663861878354425600,3.540425537109375,-5.5633544921875,-19.47021484375,71.527099609375
1663861878374414600,3.56041455078125,-5.316162109375,-22.052001953125,71.81854248046875
1663861878394403600,3.580403564453125,-3.863525390625,-25.23345947265625,72.5677490234375
1663861878414392600,3.600392578125,-3.47900390625,-28.43170166015625,71.636962890625
1663861878434381600,3.620381591796875,-1.8524169921875,-30.70068359375,72.54180908203125
1663861878454370600,3.64037060546875,-2.19879150390625,-32.52105712890625,72.99041748046875
1663861878474359600,3.660359619140625,0.4638671875,-36.163330078125,72.97515869140625
1663861878494348500,3.6803486328125,-0.323486328125,-37.23907470703125,71.7498779296875
1663861878514337500,3.700337646484375,-2.83966064453125,-40.58380126953125,72.18780517578125
1663861878534326800,3.720326904296875,-0.909423828125,-42.86651611328125,71.2646484375
1663861878554285000,3.74028515625,0.15716552734375,-42.864990234375,71.26617431640625
1663861878574304800,3.7603046875,1.19781494140625,-44.07196044921875,72.02301025390625
1663861878594293800,3.780293701171875,-1.11846923828125,-45.30487060546875,70.64208984375
1663861878614282800,3.80028271484375,-0.67138671875,-45.89080810546875,73.07891845703125
1663861878634271700,3.820271728515625,-1.1016845703125,-44.5465087890625,70.34149169921875
1663861878654260700,3.8402607421875,-0.7476806640625,-42.4163818359375,70.6573486328125
1663861878674249700,3.860249755859375,-0.579833984375,-41.7938232421875,72.33734130859375
1663861878694269200,3.880269287109375,0.3753662109375,-40.1031494140625,74.32708740234375
1663861878714563600,3.9005634765625,-1.26190185546875,-38.29498291015625,72.96295166015625
1663861878734491400,3.920491455078125,-1.0650634765625,-36.32049560546875,72.66845703125
1663861878754267000,3.940266845703125,-0.86669921875,-34.33685302734375,73.5931396484375
1663861878774225400,3.960225341796875,-1.7364501953125,-32.366943359375,73.14453125
1663861878794184000,3.980183837890625,-3.2257080078125,-30.7098388671875,71.77886962890625
1663861878814173000,4.0001728515625,-3.9306640625,-28.26385498046875,73.61907958984375
1663861878834162000,4.020161865234375,-4.01153564453125,-25.0823974609375,72.4151611328125
1663861878854151000,4.04015087890625,-5.2734375,-20.220947265625,72.59063720703125
1663861878874140000,4.060139892578125,-6.46820068359375,-19.0216064453125,70.91827392578125
1663861878894129000,4.08012890625,-9.00115966796875,-16.44287109375,70.92742919921875
1663861878914118000,4.100117919921875,-9.52911376953125,-12.79296875,71.4019775390625
1663861878934107000,4.12010693359375,-11.43341064453125,-9.32159423828125,68.9788818359375
1663861878954095900,4.140095947265625,-12.47711181640625,-8.258056640625,69.28863525390625
1663861878974084900,4.1600849609375,-16.5283203125,-5.38177490234375,68.99261474609375
1663861878994073900,4.180073974609375,-21.09832763671875,-5.096435546875,67.92144775390625
1663861879014063000,4.20006298828125,-22.8179931640625,-0.24261474609375,67.181396484375
1663861879034021400,4.220021484375,-26.0162353515625,-0.09307861328125,67.7886962890625
1663861879054041000,4.240041015625,-29.0374755859375,1.251220703125,65.6585693359375
1663861879074030000,4.260030029296875,-32.17010498046875,4.290771484375,66.43218994140625
1663861879094019000,4.28001904296875,-36.1358642578125,4.266357421875,64.59808349609375
1663861879114008000,4.300008056640625,-39.7979736328125,4.248046875,63.22174072265625
1663861879133997000,4.3199970703125,-43.56536865234375,6.2103271484375,62.61749267578125
1663861879153986000,4.339986083984375,-47.393798828125,5.57708740234375,60.6292724609375
1663861879173975000,4.35997509765625,-50.311279296875,4.79278564453125,58.33587646484375
1663861879193964000,4.379964111328125,-51.67236328125,5.2459716796875,58.33740234375
1663861879213953000,4.399953125,-55.6243896484375,5.9661865234375,54.6783447265625
1663861879233942000,4.41994189453125,-58.8470458984375,5.05523681640625,55.584716796875
1663861879253931300,4.43993115234375,-59.95635986328125,3.22723388671875,55.2703857421875
1663861879273920300,4.459920166015625,-60.711669921875,3.5247802734375,54.8126220703125
1663861879293878800,4.479878662109375,-60.8612060546875,3.66973876953125,53.89862060546875
1663861879313898200,4.499898193359375,-63.0126953125,2.9144287109375,55.1116943359375
1663861879333887200,4.51988720703125,-60.8612060546875,3.67889404296875,55.11932373046875
1663861879353876200,4.539876220703125,-61.18316650390625,2.9144287109375,54.656982421875
1663861879373865200,4.559865234375,-61.00921630859375,3.8330078125,55.27191162109375
1663861879393854200,4.579854248046875,-59.01947021484375,4.14886474609375,56.19049072265625
1663861879413843200,4.59984326171875,-59.80987548828125,2.93121337890625,56.182861328125
1663861879433832200,4.619832275390625,-58.41522216796875,3.84674072265625,56.341552734375
1663861879453821200,4.6398212890625,-60.99853515625,4.290771484375,55.57861328125
1663861879473810200,4.65981005859375,-61.93695068359375,3.35845947265625,53.2867431640625
1663861879493799400,4.67979931640625,-60.85052490234375,4.1351318359375,55.120849609375
1663861879513788400,4.699788330078125,-60.41259765625,3.36151123046875,53.28826904296875
1663861879533777400,4.71977734375,-59.7930908203125,3.6773681640625,54.6630859375
1663861879553766400,4.739766357421875,-59.8114013671875,2.91748046875,54.65850830078125
1663861879573755400,4.75975537109375,-59.96551513671875,2.7740478515625,55.572509765625
1663861879593744400,4.779744384765625,-58.54034423828125,5.18951416015625,53.30047607421875
1663861879614069000,4.800069091796875,-58.58154296875,3.36456298828125,53.29132080078125
1663861879633844500,4.819844482421875,-57.8216552734375,3.22418212890625,54.510498046875
1663861879653711400,4.83971142578125,-58.8409423828125,5.3497314453125,54.5196533203125
1663861879673700400,4.859700439453125,-58.8470458984375,5.04913330078125,54.82330322265625
1663861879693689300,4.879689453125,-56.61163330078125,2.777099609375,55.27191162109375
1663861879713678300,4.89967822265625,-56.40411376953125,5.20172119140625,54.36859130859375
1663861879733667600,4.91966748046875,-58.24432373046875,4.74853515625,55.126953125
1663861879753656600,4.939656494140625,-55.48553466796875,5.35736083984375,54.522705078125
1663861879773645600,4.9596455078125,-55.04913330078125,4.45098876953125,55.12847900390625
1663861879793634600,4.979634521484375,-54.2510986328125,5.9783935546875,55.7464599609375
1663861879813623600,4.99962353515625,-49.8199462890625,6.3018798828125,56.9732666015625
1663861879833612500,5.019612548828125,-47.21221923828125,6.92901611328125,58.65478515625
1663861879853601500,5.0396015625,-45.745849609375,4.3487548828125,58.64410400390625
1663861879873621000,5.05962109375,-44.46258544921875,7.09686279296875,59.8785400390625
1663861879893579500,5.07957958984375,-40.6463623046875,7.26165771484375,60.49346923828125
1663861879913568500,5.099568603515625,-38.87481689453125,4.69207763671875,61.54937744140625
1663861879933557500,5.1195576171875,-35.9588623046875,5.4656982421875,62.62359619140625
1663861879953546800,5.139546630859375,-34.02099609375,3.49273681640625,62.46337890625
1663861879973535700,5.15953564453125,-32.04193115234375,3.34930419921875,62.92266845703125
1663861879993524700,5.179524658203125,-29.30145263671875,3.06549072265625,64.599609375
1663861880013513700,5.199513671875,-25.98114013671875,1.55792236328125,65.20538330078125
1663861880033472300,5.21947216796875,-25.22735595703125,1.11541748046875,66.57562255859375
1663861880053491700,5.23949169921875,-20.88165283203125,-2.3529052734375,68.8507080078125
1663861880073480700,5.259480712890625,-17.88482666015625,-4.62646484375,68.69049072265625
1663861880093469700,5.2794697265625,-14.84527587890625,-5.2093505859375,70.97625732421875
1663861880113458700,5.299458740234375,-14.2730712890625,-6.87255859375,71.8841552734375
1663861880133447700,5.31944775390625,-12.21771240234375,-10.35919189453125,72.32666015625
1663861880153436700,5.339436767578125,-10.0921630859375,-10.80780029296875,72.63031005859375
1663861880173425700,5.35942578125,-9.2620849609375,-14.58892822265625,74.5941162109375
1663861880193415000,5.379414794921875,-7.49053955078125,-17.17529296875,73.974609375
1663861880213404000,5.39940380859375,-4.80804443359375,-19.9005126953125,74.42169189453125
1663861880233393000,5.419392822265625,-5.792236328125,-22.9461669921875,73.9471435546875
1663861880253382000,5.4393818359375,-4.46929931640625,-25.07781982421875,73.17657470703125
1663861880273371000,5.459370849609375,-3.4423828125,-26.89056396484375,74.23553466796875
1663861880293359900,5.47935986328125,-2.2735595703125,-29.16412353515625,74.530029296875
1663861880313348900,5.499348876953125,-1.2725830078125,-32.0556640625,73.907470703125
1663861880333337900,5.519337890625,-2.655029296875,-32.5164794921875,73.5992431640625
1663861880353326800,5.539326904296875,-0.5615234375,-34.3292236328125,74.35455322265625
1663861880373315800,5.55931591796875,-1.55181884765625,-37.68157958984375,73.5748291015625
1663861880393304800,5.579304931640625,-1.89056396484375,-39.19525146484375,74.481201171875
1663861880413293800,5.5992939453125,0.40435791015625,-38.75732421875,71.7437744140625
1663861880433283000,5.619282958984375,-0.23193359375,-39.95361328125,74.176025390625
1663861880453272000,5.63927197265625,-0.42877197265625,-41.9281005859375,74.31793212890625
1663861880473261000,5.659260986328125,-0.87738037109375,-41.48406982421875,73.10028076171875
1663861880493524700,5.679524658203125,-0.90789794921875,-42.8558349609375,72.63641357421875
1663861880513452500,5.69945263671875,-1.49383544921875,-41.79229736328125,72.6409912109375
1663861880533228000,5.71922802734375,0.213623046875,-40.4266357421875,72.039794921875
1663861880553217000,5.739217041015625,-0.34637451171875,-38.287353515625,73.57330322265625
1663861880573206000,5.7592060546875,-0.34637451171875,-38.287353515625,73.57330322265625
1663861880593195000,5.779195068359375,-1.2237548828125,-36.61956787109375,73.2757568359375
1663861880613184000,5.79918408203125,-1.50146484375,-35.406494140625,72.9766845703125
1663861880633173000,5.819173095703125,-2.01873779296875,-31.3079833984375,72.69134521484375
1663861880653162000,5.839161865234375,-1.959228515625,-28.7139892578125,73.92425537109375
1663861880673151200,5.859151123046875,-2.978515625,-26.59454345703125,73.17047119140625
1663861880693140200,5.87914013671875,-3.83148193359375,-23.858642578125,73.33526611328125
1663861880713129200,5.899129150390625,-4.7088623046875,-22.20001220703125,72.12371826171875
1663861880733118200,5.9191181640625,-5.291748046875,-20.9808349609375,72.5860595703125
1663861880753076700,5.93907666015625,-6.884765625,-17.3309326171875,73.3642578125
1663861880773096200,5.95909619140625,-9.1217041015625,-15.06500244140625,72.30682373046875
1663861880793085200,5.979085205078125,-11.04736328125,-12.4969482421875,70.94573974609375
1663861880813074200,5.99907421875,-12.97454833984375,-10.07232666015625,70.49713134765625
1663861880833063200,6.019063232421875,-13.9801025390625,-7.21588134765625,67.156982421875
1663861880853052200,6.03905224609375,-15.14434814453125,-4.78057861328125,67.77801513671875
1663861880873041200,6.059041259765625,-18.780517578125,-3.73687744140625,66.25518798828125
1663861880893030100,6.079030029296875,-21.649169921875,-2.39410400390625,64.12506103515625
1663861880913019400,6.099019287109375,-23.7335205078125,-0.1220703125,63.67645263671875
1663861880933008400,6.11900830078125,-26.751708984375,1.24664306640625,64.593505859375
1663861880952997400,6.138997314453125,-29.28619384765625,3.81011962890625,62.774658203125
1663861880972986400,6.158986328125,-34.02252197265625,3.48663330078125,61.70196533203125
1663861880992975400,6.178975341796875,-36.57379150390625,5.29937744140625,60.94512939453125
1663861881012964400,6.19896435546875,-39.00604248046875,5.60150146484375,61.4013671875
1663861881032953300,6.218953369140625,-48.13995361328125,6.329345703125,59.87091064453125
1663861881052942300,6.2389423828125,-50.2777099609375,6.30645751953125,57.58209228515625
1663861881072931300,6.258931396484375,-51.64337158203125,6.60400390625,57.27691650390625
1663861881092920300,6.27892041015625,-54.89044189453125,4.620361328125,57.110595703125
1663861881112909300,6.298909423828125,-54.87213134765625,5.3863525390625,57.8765869140625
1663861881132898600,6.318898681640625,-56.40411376953125,5.20477294921875,54.67376708984375
1663861881152887600,6.338887451171875,-57.3211669921875,5.0628662109375,56.04400634765625
1663861881172876500,6.35887646484375,-58.233642578125,5.20477294921875,55.12847900390625
1663861881192865500,6.378865478515625,-57.4859619140625,4.461669921875,56.9549560546875
1663861881212854500,6.3988544921875,-55.95703125,4.620361328125,57.41424560546875
1663861881232843500,6.418843505859375,-57.80487060546875,3.857421875,57.40966796875
1663861881252832500,6.43883251953125,-58.3740234375,5.670166015625,56.3507080078125
1663861881272821500,6.458821533203125,-57.30743408203125,5.67626953125,56.6558837890625
1663861881292810500,6.478810546875,-57.80487060546875,3.857421875,57.40966796875
1663861881312799500,6.498799560546875,-57.03277587890625,4.302978515625,56.04095458984375
1663861881332788500,6.51878857421875,-58.5479736328125,4.75921630859375,56.49871826171875
1663861881352777500,6.538777587890625,-57.78961181640625,4.595947265625,54.82177734375
1663861881373102300,6.559102294921875,-57.94525146484375,4.45404052734375,56.1920166015625
1663861881393030100,6.579030029296875,-58.880615234375,3.53546142578125,55.57708740234375
1663861881412805600,6.5988056640625,-59.326171875,4.1351318359375,54.66461181640625
1663861881432764200,6.61876416015625,-59.0179443359375,4.1595458984375,57.56072998046875
1663861881452722700,6.63872265625,-58.2275390625,5.50537109375,54.67376708984375
1663861881472711700,6.658711669921875,-59.4573974609375,5.0445556640625,54.5166015625
1663861881492700700,6.67870068359375,-57.91168212890625,5.96160888671875,54.67529296875
1663861881512689700,6.698689697265625,-58.2733154296875,3.39202880859375,56.4910888671875
1663861881532678700,6.7186787109375,-56.2408447265625,5.66253662109375,54.82940673828125
1663861881552667600,6.738667724609375,-56.2469482421875,5.364990234375,55.58929443359375
1663861881572656600,6.75865673828125,-57.01751708984375,5.0567626953125,55.2825927734375
1663861881592645600,6.778645751953125,-55.4840087890625,5.37261962890625,56.35223388671875
1663861881612635000,6.798634765625,-53.68804931640625,3.857421875,56.34613037109375
1663861881632623900,6.818623779296875,-51.05743408203125,5.5450439453125,57.5775146484375
1663861881652582400,6.83858251953125,-47.3846435546875,6.0211181640625,59.10797119140625
1663861881672601900,6.858601806640625,-46.7529296875,6.94122314453125,60.028076171875
1663861881692590800,6.8785908203125,-44.6533203125,5.43060302734375,60.479736328125
1663861881712579800,6.898579833984375,-41.4581298828125,5.126953125,59.7198486328125
1663861881732568800,6.91856884765625,-38.70697021484375,5.303955078125,62.01019287109375
1663861881752527400,6.93852734375,-38.995361328125,6.06689453125,62.47100830078125
1663861881772546800,6.958546875,-33.70819091796875,3.80706787109375,63.531494140625
1663861881792535800,6.978535888671875,-32.0343017578125,3.65753173828125,63.38043212890625
1663861881812524800,6.99852490234375,-28.56292724609375,2.00958251953125,65.35797119140625
1663861881832513800,7.018513671875,-27.94189453125,2.4749755859375,66.4276123046875
1663861881852503000,7.0385029296875,-24.2034912109375,-0.85296630859375,67.32940673828125
1663861881872492000,7.058491943359375,-23.4405517578125,-0.84228515625,68.39752197265625
1663861881892450600,7.078450439453125,-21.6278076171875,-1.59149169921875,69.15740966796875
1663861881912470000,7.098469970703125,-18.96209716796875,-5.08575439453125,68.6859130859375
1663861881932459000,7.118458984375,-14.86968994140625,-6.26678466796875,71.73309326171875
1663861881952448000,7.138447998046875,-13.09814453125,-8.84246826171875,72.18017578125
1663861881972437000,7.15843701171875,-11.9049072265625,-10.0555419921875,72.32818603515625
1663861881992426000,7.178426025390625,-11.05194091796875,-12.78533935546875,72.772216796875
1663861882012415000,7.1984150390625,-9.442138671875,-15.80963134765625,74.13177490234375
1663861882032404000,7.218404052734375,-5.66253662109375,-17.18597412109375,72.14813232421875
1663861882052393000,7.23839306640625,-4.35943603515625,-20.35064697265625,75.02899169921875
1663861882072382000,7.2583818359375,-5.462646484375,-21.87957763671875,74.2584228515625
1663861882092371200,7.27837109375,-3.70635986328125,-25.0762939453125,73.1781005859375
1663861882112360200,7.298360107421875,-2.69622802734375,-27.6458740234375,74.53765869140625
1663861882132318700,7.318318603515625,-3.00750732421875,-27.94647216796875,74.993896484375
1663861882152338200,7.338338134765625,-1.873779296875,-31.73980712890625,75.433349609375
1663861882172327200,7.3583271484375,-0.98876953125,-33.10394287109375,75.732421875
1663861882192316200,7.378316162109375,-1.287841796875,-32.67669677734375,72.381591796875
1663861882212305200,7.39830517578125,-0.164794921875,-37.0574951171875,75.25634765625
1663861882232324600,7.41832470703125,-1.24664306640625,-37.6708984375,74.7955322265625
1663861882252283100,7.438283203125,-0.81024169921875,-38.58642578125,74.18060302734375
1663861882272608000,7.45860791015625,-0.94146728515625,-37.6739501953125,74.3377685546875
1663861882292383200,7.47838330078125,-2.0233154296875,-38.287353515625,74.029541015625
1663861882312250400,7.49825048828125,-0.02593994140625,-37.6678466796875,74.79705810546875
1663861882332269800,7.518269775390625,-1.2298583984375,-36.9171142578125,74.03717041015625
1663861882352228400,7.538228271484375,-0.4486083984375,-36.01531982421875,72.66998291015625
1663861882372247800,7.558247802734375,-1.2542724609375,-37.9791259765625,74.33624267578125
1663861882392206300,7.578206298828125,-1.31988525390625,-34.1827392578125,73.8983154296875
1663861882412195300,7.5981953125,-1.129150390625,-32.50732421875,74.36370849609375
1663861882432184300,7.618184326171875,-1.2420654296875,-30.82427978515625,75.74310302734375
1663861882452173300,7.63817333984375,-4.0863037109375,-28.411865234375,74.2279052734375
1663861882472162300,7.658162353515625,-1.89361572265625,-25.830078125,73.480224609375
1663861882492151300,7.6781513671875,-2.43988037109375,-23.089599609375,74.102783203125
1663861882512109800,7.69810986328125,-5.7586669921875,-21.43707275390625,72.735595703125
1663861882532129300,7.71812939453125,-7.23724365234375,-19.3206787109375,71.67816162109375
1663861882552118500,7.738118408203125,-7.46612548828125,-15.97747802734375,71.69342041015625
1663861882572107500,7.758107421875,-8.502197265625,-14.61181640625,71.69952392578125
1663861882592096500,7.778096435546875,-10.40496826171875,-11.12518310546875,71.25701904296875
1663861882612055000,7.798054931640625,-13.90380859375,-10.6903076171875,69.57855224609375
1663861882632074500,7.818074462890625,-16.08734130859375,-6.134033203125,69.7509765625
1663861882652063500,7.8380634765625,-18.65692138671875,-5.08270263671875,68.9910888671875
1663861882672052500,7.858052490234375,-20.58563232421875,-2.66265869140625,68.0877685546875
1663861882692041500,7.87804150390625,-21.61865234375,-1.153564453125,67.0257568359375
1663861882712030500,7.898030517578125,-25.24871826171875,0.19989013671875,66.26739501953125
1663861882732019500,7.91801953125,-27.66876220703125,1.104736328125,65.9637451171875
1663861882752008400,7.938008544921875,-30.82733154296875,3.06243896484375,64.59808349609375
1663861882771997400,7.95799755859375,-32.97576904296875,2.447509765625,64.288330078125
1663861882791986700,7.977986572265625,-38.11798095703125,4.400634765625,62.91961669921875
1663861882811975700,7.9979755859375,-40.5303955078125,5.60150146484375,61.70501708984375
1663861882831964700,8.017964599609375,-43.73931884765625,5.29022216796875,61.69891357421875
1663861882851953700,8.03795361328125,-46.51641845703125,3.912353515625,61.07940673828125
1663861882871942700,8.057942626953125,-49.84283447265625,5.25360107421875,58.79669189453125
1663861882891931600,8.077931640625,-51.6326904296875,7.06024169921875,57.27996826171875
1663861882911920600,8.097920654296875,-53.3294677734375,6.15234375,58.1878662109375
1663861882931909600,8.11790966796875,-54.26788330078125,5.2215576171875,56.201171875
1663861882951898600,8.137898681640625,-59.02862548828125,3.69415283203125,56.49261474609375
1663861882971887600,8.1578876953125,-58.880615234375,3.53546142578125,55.57708740234375
1663861882991876600,8.177876708984375,-57.9437255859375,4.461669921875,56.9549560546875
1663861883011865600,8.197865478515626,-59.4696044921875,4.58221435546875,53.753662109375
1663861883031854800,8.217854736328125,-58.08258056640625,5.0628662109375,56.34765625
1663861883051843800,8.23784375,-58.856201171875,4.608154296875,56.6497802734375
1663861883071802400,8.25780224609375,-58.563232421875,4.13360595703125,54.3609619140625
1663861883091821800,8.27782177734375,-60.07232666015625,4.75616455078125,56.49566650390625
1663861883111810800,8.297810791015625,-57.769775390625,5.377197265625,57.415771484375
1663861883131799800,8.3177998046875,-59.94720458984375,3.5491943359375,57.40509033203125
1663861883152033000,8.338032958984375,-59.77325439453125,4.45709228515625,56.951904296875
1663861883171960800,8.3579609375,-59.954833984375,3.23333740234375,56.03179931640625
1663861883191797200,8.37779736328125,-59.49554443359375,3.24249267578125,57.09991455078125
1663861883211755800,8.397755859375,-60.85968017578125,3.69110107421875,56.48956298828125
1663861883231775500,8.417775390625,-61.14044189453125,4.7454833984375,55.42755126953125
1663861883251733800,8.437733642578126,-60.2630615234375,3.2073974609375,52.98309326171875
1663861883271723000,8.457722900390625,-61.01531982421875,3.5308837890625,55.5755615234375
1663861883291712000,8.4777119140625,-59.48486328125,3.83758544921875,55.57861328125
1663861883311701000,8.497700927734375,-61.28692626953125,5.047607421875,55.2764892578125
1663861883331690000,8.51768994140625,-58.3984375,4.60357666015625,56.04095458984375
1663861883351648500,8.5376484375,-57.952880859375,4.1412353515625,55.1239013671875
1663861883371668000,8.55766796875,-56.55670166015625,5.08270263671875,58.1787109375
1663861883391657000,8.577656982421875,-53.65447998046875,5.36956787109375,55.59234619140625
1663861883411646000,8.59764599609375,-52.6275634765625,3.5552978515625,56.34613037109375
1663861883431635000,8.617635009765625,-50.73699951171875,6.1614990234375,58.64715576171875
1663861883451624000,8.6376240234375,-43.28155517578125,5.4290771484375,60.02349853515625
1663861883471613000,8.657613037109375,-40.82489013671875,6.06231689453125,62.46795654296875
1663861883491602000,8.677601806640626,-37.81280517578125,4.39605712890625,62.310791015625
1663861883511591200,8.697591064453125,-35.3271484375,6.390380859375,63.84735107421875
1663861883531580200,8.717580078125,-33.697509765625,4.26483154296875,63.8397216796875
1663861883551569200,8.737569091796875,-29.620361328125,2.46124267578125,65.0543212890625
1663861883571558100,8.75755810546875,-27.3529052734375,1.56402587890625,66.27197265625
1663861883591547100,8.777547119140625,-24.18060302734375,0.20294189453125,66.2689208984375
1663861883611536100,8.7975361328125,-21.30584716796875,-0.84228515625,67.79022216796875
1663861883631525000,8.817525146484375,-19.05364990234375,-2.35443115234375,68.0908203125
1663861883651514000,8.83751416015625,-16.78466796875,-3.25164794921875,69.30694580078125
1663861883671472600,8.85747265625,-14.86358642578125,-5.9722900390625,70.66802978515625
1663861883691492000,8.8774921875,-11.907958984375,-10.0799560546875,69.27947998046875
1663861883711481000,8.897481201171875,-9.3536376953125,-11.871337890625,72.62725830078125
1663861883731470300,8.91747021484375,-7.73162841796875,-14.300537109375,72.4639892578125
1663861883751459300,8.937459228515625,-7.51953125,-18.27239990234375,69.85321044921875
1663861883771448300,8.9574482421875,-3.3050537109375,-20.82366943359375,72.74169921875
1663861883791437300,8.977437255859375,-4.4219970703125,-22.95684814453125,72.42584228515625
1663861883811426300,8.99742626953125,-1.5960693359375,-26.13525390625,73.175048828125
1663861883831384800,9.017384765625,-2.56500244140625,-28.558349609375,74.3804931640625
1663861883851404300,9.037404296875,-0.95977783203125,-31.62078857421875,71.319580078125
1663861883871393300,9.057393310546875,-1.76239013671875,-33.43963623046875,72.07183837890625
1663861883891382300,9.07738232421875,-1.171875,-34.33990478515625,73.2879638671875
1663861883911371300,9.097371337890625,-0.4669189453125,-36.78741455078125,71.295166015625
1663861883931391000,9.117390869140625,-0.62103271484375,-36.9293212890625,72.5128173828125
1663861883951349200,9.137349365234375,-0.67138671875,-39.0655517578125,71.435546875
1663861883971338500,9.15733837890625,-0.7049560546875,-40.576171875,72.4945068359375
1663861883991327500,9.177327392578125,-0.86669921875,-41.03240966796875,72.64556884765625
1663861884011316500,9.19731640625,-0.39825439453125,-40.570068359375,73.2574462890625
1663861884031641000,9.21764111328125,-1.51214599609375,-42.55828857421875,72.027587890625
1663861884051569200,9.237569091796875,-0.74615478515625,-42.4072265625,71.72393798828125
1663861884071314000,9.25731396484375,-0.07781982421875,-39.81781005859375,72.1954345703125
1663861884091272400,9.2772724609375,0.25634765625,-38.59405517578125,73.11553955078125
1663861884111261400,9.297261474609375,0.57830810546875,-37.83111572265625,73.42529296875
1663861884131250400,9.31725048828125,-1.07574462890625,-36.785888671875,71.59881591796875
1663861884151239400,9.337239501953125,-1.50146484375,-35.40191650390625,73.5870361328125
1663861884171228400,9.357228515625,-2.0843505859375,-34.197998046875,72.3724365234375
1663861884191217400,9.377217529296875,-1.84478759765625,-30.3924560546875,73.0010986328125
1663861884211206700,9.39720654296875,-2.142333984375,-30.0872802734375,73.30780029296875
1663861884231195600,9.417195556640625,-2.98614501953125,-26.904296875,72.40753173828125
1663861884251184600,9.4371845703125,-3.0853271484375,-24.615478515625,73.63739013671875
1663861884271143200,9.45714306640625,-5.4840087890625,-22.66998291015625,70.5963134765625
1663861884291162600,9.47716259765625,-5.572509765625,-19.91729736328125,72.59063720703125
1663861884311151600,9.497151611328125,-6.414794921875,-16.73583984375,71.69189453125
1663861884331140600,9.517140625,-6.8450927734375,-15.5242919921875,71.240234375
1663861884351129600,9.537129638671875,-9.912109375,-9.466552734375,69.5892333984375
1663861884371118600,9.55711865234375,-11.87286376953125,-8.55712890625,69.744873046875
1663861884391107600,9.577107666015625,-13.69781494140625,-8.26263427734375,68.98193359375
1663861884411096600,9.5970966796875,-17.1478271484375,-5.69915771484375,67.46673583984375
1663861884431055000,9.61705517578125,-18.94683837890625,-4.33807373046875,67.1661376953125
1663861884451074800,9.63707470703125,-21.80328369140625,-2.52685546875,66.4093017578125
1663861884471063800,9.657063720703125,-24.169921875,0.78887939453125,63.6810302734375
1663861884491052800,9.677052734375,-27.984619140625,0.64239501953125,65.35186767578125
1663861884511041800,9.697041748046875,-30.09033203125,1.99127197265625,63.52691650390625
1663861884531030800,9.71703076171875,-31.77032470703125,1.8402099609375,64.13421630859375
1663861884551019800,9.737019775390625,-35.064697265625,4.55474853515625,62.46795654296875
1663861884571008800,9.7570087890625,-38.57574462890625,4.388427734375,61.5478515625
1663861884590997800,9.776997802734375,-40.95916748046875,6.95343017578125,60.0341796875
1663861884610986800,9.79698681640625,-45.24688720703125,6.04705810546875,61.700439453125
1663861884630975700,9.816975830078125,-47.8302001953125,6.49261474609375,61.090087890625
1663861884650964700,9.83696484375,-49.05853271484375,6.1737060546875,59.716796875
1663861884670953700,9.85695361328125,-54.13055419921875,4.3487548828125,60.76812744140625
1663861884690943000,9.87694287109375,-55.48095703125,5.39703369140625,59.24835205078125
1663861884710932000,9.896931884765625,-58.25347900390625,4.1778564453125,59.54437255859375
1663861884730921000,9.9169208984375,-59.9395751953125,3.84979248046875,57.1014404296875
1663861884750910000,9.936909912109375,-60.3912353515625,4.15191650390625,56.95037841796875
1663861884770899000,9.95689892578125,-60.2447509765625,3.851318359375,57.4066162109375
1663861884790888000,9.976887939453125,-60.38970947265625,4.156494140625,57.5592041015625
1663861884810877000,9.996876953125,-61.17095947265625,3.38592529296875,56.488037109375
1663861884830835500,10.01683544921875,-60.406494140625,3.40118408203125,58.013916015625
1663861884850855000,10.03685498046875,-59.8876953125,6.13861083984375,58.18023681640625
1663861884870844000,10.056843994140625,-59.9639892578125,2.7862548828125,57.09686279296875
1663861884890833000,10.0768330078125,-59.4818115234375,3.8543701171875,57.4066162109375
1663861884910822100,10.096822265625,-59.3231201171875,4.156494140625,57.25555419921875
1663861884931146800,10.117146728515625,-60.97869873046875,5.07659912109375,58.63037109375
1663861884950922200,10.136922119140625,-61.15264892578125,4.1534423828125,57.2540283203125
1663861884970789000,10.1567890625,-59.1796875,3.839111328125,55.57861328125
1663861884990778000,10.176778076171875,-60.260009765625,3.2318115234375,56.03179931640625
1663861885010767000,10.19676708984375,-59.02862548828125,3.7017822265625,57.2540283203125
1663861885030756000,10.216756103515625,-61.10687255859375,6.268310546875,55.7403564453125
1663861885050745000,10.2367451171875,-60.8428955078125,4.44488525390625,55.731201171875
1663861885070703600,10.25670361328125,-59.01336669921875,4.443359375,55.1239013671875
1663861885090723000,10.27672314453125,-58.380126953125,5.37567138671875,57.415771484375
1663861885110712000,10.296712158203125,-56.88323974609375,4.16412353515625,57.56378173828125
1663861885130701000,10.316701171875,-57.46917724609375,5.2276611328125,57.568359375
1663861885150720800,10.336720703125,-55.1788330078125,5.37567138671875,56.65740966796875
1663861885170679300,10.35667919921875,-52.12249755859375,5.55267333984375,58.795166015625
1663861885190668300,10.376668212890625,-51.0650634765625,5.23834228515625,57.27081298828125
1663861885210657300,10.3966572265625,-47.54486083984375,5.71746826171875,59.259033203125
1663861885230646300,10.416646240234375,-45.53985595703125,6.64825439453125,60.94207763671875
1663861885250635300,10.43663525390625,-42.47589111328125,7.26318359375,61.10076904296875
1663861885270624300,10.456624267578125,-39.4927978515625,4.248046875,63.2232666015625
1663861885290613200,10.47661328125,-37.80364990234375,4.72412109375,65.20843505859375
1663861885310602200,10.496602294921875,-34.002685546875,4.2694091796875,64.29595947265625
1663861885330591200,10.51659130859375,-30.53131103515625,2.6123046875,65.20538330078125
1663861885350580200,10.536580322265625,-28.25775146484375,2.00958251953125,65.35797119140625
1663861885370569200,10.5565693359375,-27.04010009765625,1.8707275390625,66.57867431640625
1663861885390558500,10.576558349609375,-23.7396240234375,-0.543212890625,67.7886962890625
1663861885410547500,10.59654736328125,-21.2982177734375,-0.52947998046875,68.85833740234375
1663861885430536400,10.616536376953125,-18.62945556640625,-3.8726806640625,68.23577880859375
1663861885450525400,10.636525390625,-18.19610595703125,-5.059814453125,71.58355712890625
1663861885470514400,10.656514404296875,-16.11785888671875,-7.49359130859375,70.81146240234375
1663861885490503400,10.67650341796875,-14.0655517578125,-11.1328125,71.25396728515625
1663861885510492400,10.696492431640625,-12.27569580078125,-12.94403076171875,72.31292724609375
1663861885530481400,10.7164814453125,-9.10797119140625,-14.4561767578125,72.30987548828125
1663861885550470400,10.736470458984375,-6.5887451171875,-17.64984130859375,71.53472900390625
1663861885570459400,10.75645947265625,-7.2784423828125,-21.14410400390625,71.66900634765625
1663861885590448400,10.776448486328125,-5.33905029296875,-23.10943603515625,72.57537841796875
1663861885610407000,10.796406982421875,-4.583740234375,-23.40545654296875,73.3367919921875
1663861885630426600,10.816426513671875,-4.00390625,-24.77264404296875,73.1781005859375
1663861885650415600,10.83641552734375,-1.84478759765625,-30.3924560546875,73.0010986328125
1663861885670404600,10.856404541015625,-2.0172119140625,-31.292724609375,74.5208740234375
1663861885690393600,10.8763935546875,-2.2216796875,-33.58001708984375,73.59466552734375
1663861885710382600,10.896382568359375,-2.3895263671875,-34.19647216796875,72.6776123046875
1663861885730371600,10.91637158203125,-0.74615478515625,-35.7177734375,72.0611572265625
1663861885750360600,10.936360595703125,0.26702880859375,-38.1378173828125,73.11859130859375
1663861885770349600,10.956349609375,-0.48980712890625,-37.841796875,72.357177734375
1663861885790338600,10.976338623046875,0.24261474609375,-39.2059326171875,72.65472412109375
1663861885810571800,10.99657177734375,-0.0701904296875,-39.51416015625,72.19696044921875
1663861885830499800,11.016499755859375,0.37384033203125,-40.1153564453125,72.955322265625
1663861885850305500,11.036305419921876,-1.4862060546875,-41.47796630859375,73.8616943359375
1663861885870294800,11.056294677734375,-0.25787353515625,-41.03240966796875,72.34039306640625
1663861885890283800,11.07628369140625,-1.42669677734375,-38.8946533203125,73.8739013671875
1663861885910272800,11.096272705078125,-0.8270263671875,-39.22271728515625,70.8251953125
1663861885930261800,11.11626171875,-1.0833740234375,-37.09259033203125,71.2921142578125
1663861885950250800,11.136250732421875,-0.43182373046875,-35.26458740234375,71.60797119140625
1663861885970239700,11.15623974609375,-1.02386474609375,-34.50164794921875,72.0672607421875
1663861885990259200,11.17625927734375,-2.3406982421875,-32.0709228515625,72.38311767578125
1663861886010217700,11.1962177734375,-1.86004638671875,-31.14166259765625,74.36981201171875
1663861886030206700,11.216206787109375,-3.021240234375,-28.424072265625,72.39990234375
1663861886050195700,11.23619580078125,-2.6580810546875,-25.84686279296875,71.65069580078125
1663861886070184700,11.256184814453125,-4.60052490234375,-24.16534423828125,73.333740234375
1663861886090174000,11.276174072265626,-5.02471923828125,-22.6531982421875,72.42584228515625
1663861886110163000,11.296162841796875,-6.1737060546875,-19.610595703125,73.20098876953125
1663861886130152000,11.31615185546875,-8.1146240234375,-17.65899658203125,70.770263671875
1663861886150141000,11.336140869140625,-10.4827880859375,-14.4805908203125,69.7174072265625
1663861886170130000,11.3561298828125,-10.11962890625,-11.89727783203125,69.7296142578125
1663861886190088400,11.37608837890625,-11.46697998046875,-10.82916259765625,70.49560546875
1663861886210108000,11.39610791015625,-12.7532958984375,-7.037353515625,69.903564453125
1663861886230097000,11.416096923828125,-15.91644287109375,-5.2337646484375,68.3837890625
1663861886250086000,11.4360859375,-18.19000244140625,-4.62799072265625,68.68896484375
1663861886270075000,11.456074951171875,-20.263671875,-1.9073486328125,67.32940673828125
1663861886290064000,11.47606396484375,-21.612548828125,-0.85601806640625,66.265869140625
1663861886310052900,11.496052978515625,-26.12152099609375,2.0233154296875,66.4276123046875
1663861886330042000,11.5160419921875,-27.49481201171875,2.01873779296875,66.12091064453125
1663861886350031000,11.536031005859375,-30.51605224609375,3.363037109375,64.14337158203125
1663861886370020000,11.55602001953125,-32.1990966796875,3.05633544921875,64.2913818359375
1663861886389978600,11.575978515625,-37.6373291015625,5.32073974609375,63.8397216796875
1663861886409998000,11.595998046875,-40.06195068359375,6.060791015625,62.01171875
1663861886429987000,11.615987060546875,-42.52471923828125,5.1361083984375,61.090087890625
1663861886449976000,11.63597607421875,-46.17767333984375,5.42755126953125,60.47821044921875
1663861886469965000,11.655965087890625,-49.2431640625,4.7943115234375,58.33740234375
1663861886489954000,11.6759541015625,-50.57373046875,6.62841796875,59.869384765625
1663861886509943000,11.695943115234375,-54.1046142578125,5.6854248046875,57.11669921875
1663861886529932000,11.71593212890625,-55.5023193359375,4.60968017578125,56.04400634765625
1663861886549921000,11.735921142578125,-57.48748779296875,4.45098876953125,55.73577880859375
1663861886569910300,11.75591015625,-60.0799560546875,4.4464111328125,55.73272705078125
1663861886589899300,11.775899169921875,-57.95135498046875,4.150390625,56.19049072265625
1663861886609888300,11.79588818359375,-58.54949951171875,4.742431640625,54.364013671875
1663861886629877200,11.815877197265625,-59.19189453125,3.23486328125,56.0333251953125
1663861886649866200,11.8358662109375,-58.57391357421875,3.680419921875,54.66461181640625
1663861886669855200,11.855855224609375,-59.20257568359375,2.77557373046875,55.572509765625
1663861886690149400,11.8761494140625,-59.94873046875,3.5369873046875,56.0333251953125
1663861886710077400,11.896077392578125,-58.538818359375,5.2001953125,54.67071533203125
1663861886729852700,11.915852783203125,-58.538818359375,5.206298828125,55.43365478515625
1663861886749811200,11.935811279296875,-59.912109375,5.0689697265625,57.4127197265625
1663861886769800200,11.95580029296875,-59.47265625,4.2999267578125,56.34307861328125
1663861886789789200,11.9757890625,-60.38970947265625,4.16107177734375,58.0169677734375
1663861886809778400,11.9957783203125,-58.5906982421875,2.92510986328125,55.1177978515625
1663861886829767400,12.015767333984375,-60.11505126953125,2.9266357421875,55.72509765625
1663861886849756400,12.03575634765625,-59.94110107421875,3.84063720703125,56.03485107421875
1663861886869745400,12.055745361328125,-58.5479736328125,4.75311279296875,55.73577880859375
1663861886889734400,12.075734375,-57.7728271484375,5.3619384765625,55.5877685546875
1663861886909723400,12.095723388671875,-57.18994140625,4.15191650390625,56.1920166015625
1663861886929712400,12.11571240234375,-57.147216796875,5.98297119140625,56.96258544921875
1663861886949701400,12.135701416015625,-55.2032470703125,4.30755615234375,56.04248046875
1663861886969690400,12.1556904296875,-54.11224365234375,5.37261962890625,56.048583984375
1663861886989679400,12.175679443359375,-53.1982421875,5.2398681640625,58.03070068359375
1663861887009668400,12.19566845703125,-49.67041015625,6.16455078125,58.648681640625
1663861887029657300,12.2156572265625,-47.41363525390625,4.80499267578125,59.10186767578125
1663861887049646600,12.235646484375,-45.26519775390625,5.29022216796875,62.0025634765625
1663861887069635600,12.255635498046875,-41.13006591796875,6.05621337890625,61.70654296875
1663861887089624600,12.27562451171875,-37.7960205078125,5.15899658203125,62.6190185546875
1663861887109613600,12.295613525390625,-35.21881103515625,4.4189453125,64.447021484375
1663861887129602600,12.3156025390625,-33.1024169921875,3.65447998046875,63.37890625
1663861887149561000,12.33556103515625,-30.9906005859375,2.59857177734375,63.6810302734375
1663861887169580500,12.35558056640625,-29.6478271484375,1.24969482421875,65.65704345703125
1663861887189569500,12.375569580078125,-27.50244140625,1.71051025390625,65.66162109375
1663861887209558500,12.39555859375,-23.56719970703125,0.3570556640625,66.4215087890625
1663861887229547500,12.415547607421875,-21.60491943359375,-0.543212890625,67.333984375
1663861887249536500,12.43553662109375,-19.8150634765625,-2.3468017578125,69.1558837890625
1663861887269525500,12.455525390625,-17.39654541015625,-3.3905029296875,70.98236083984375
1663861887289514800,12.4755146484375,-15.79742431640625,-6.8756103515625,71.881103515625
1663861887309473000,12.49547314453125,-15.8233642578125,-7.9437255859375,71.26617431640625
1663861887329492700,12.51549267578125,-13.43231201171875,-10.2020263671875,73.2391357421875
1663861887349481700,12.535481689453125,-11.7950439453125,-12.01171875,74.60479736328125
1663861887369440300,12.555440185546875,-9.2681884765625,-14.898681640625,73.9837646484375
1663861887389459700,12.575459716796875,-7.1929931640625,-17.48504638671875,73.211669921875
1663861887409448700,12.59544873046875,-6.47125244140625,-19.30084228515625,73.9654541015625
1663861887429437700,12.615437744140625,-5.60150146484375,-21.27685546875,73.651123046875
1663861887449426700,12.6354267578125,-4.60052490234375,-24.16229248046875,73.638916015625
1663861887469415700,12.655415771484375,-3.08685302734375,-24.62005615234375,73.028564453125
1663861887489404700,12.67540478515625,-2.24609375,-27.9541015625,73.92730712890625
1663861887509394000,12.695393798828125,-2.88848876953125,-29.3304443359375,73.00567626953125
1663861887529383000,12.7153828125,-1.85089111328125,-30.68695068359375,74.066162109375
1663861887549372000,12.735371826171875,-1.434326171875,-32.5103759765625,74.05853271484375
1663861887569330400,12.755330322265625,-1.3153076171875,-33.892822265625,72.37548828125
1663861887589685500,12.775685546875,-0.72784423828125,-34.942626953125,73.895263671875
1663861887609430500,12.795430419921875,-1.35498046875,-35.70098876953125,74.1943359375
1663861887629328000,12.815327880859375,-1.361083984375,-36.0015869140625,74.49798583984375
1663861887649316900,12.83531689453125,-2.71453857421875,-35.10284423828125,73.2818603515625
1663861887669305900,12.855305908203125,-0.3143310546875,-36.90643310546875,75.10528564453125
1663861887689303600,12.875303466796876,-1.9256591796875,-34.01947021484375,75.421142578125
1663861887709292500,12.89529248046875,-0.732421875,-35.23101806640625,75.72174072265625
1663861887729281500,12.915281494140626,-1.47552490234375,-34.332275390625,74.35455322265625
1663861887749270500,12.9352705078125,-1.24359130859375,-30.8349609375,74.52392578125
1663861887769229000,12.95522900390625,-0.81787109375,-32.2021484375,74.365234375
1663861887789248500,12.97524853515625,-1.86004638671875,-31.14166259765625,74.36981201171875
1663861887809237500,12.995237548828126,-3.8055419921875,-29.473876953125,74.22332763671875
1663861887829226500,13.0152265625,-2.07366943359375,-27.044677734375,73.626708984375
1663861887849215500,13.035215576171876,-3.9794921875,-23.7030029296875,73.94561767578125
1663861887869204500,13.05520458984375,-5.03692626953125,-23.25286865234375,73.4893798828125
1663861887889193500,13.075193359375,-5.902099609375,-20.99151611328125,71.51947021484375
1663861887909182500,13.095182373046875,-7.3272705078125,-16.58935546875,71.234130859375
1663861887929171700,13.115171630859376,-8.54339599609375,-16.43829345703125,71.38519287109375
1663861887949160700,13.13516064453125,-8.36181640625,-15.0848388671875,69.71588134765625
1663861887969149700,13.155149658203126,-11.18011474609375,-11.60125732421875,68.96820068359375
1663861887989138700,13.175138671875,-12.04071044921875,-9.1705322265625,69.1314697265625
1663861888009127700,13.195127685546876,-12.77008056640625,-7.66754150390625,67.3095703125
1663861888029116700,13.21511669921875,-15.33355712890625,-6.451416015625,67.92144775390625
1663861888049105700,13.235105712890626,-17.92755126953125,-6.4605712890625,67.462158203125
1663861888069094700,13.2550947265625,-19.65789794921875,-2.0599365234375,67.17681884765625
1663861888089083600,13.275083740234376,-20.9991455078125,-0.69732666015625,66.87774658203125
1663861888109072600,13.29507275390625,-22.5128173828125,-0.244140625,66.87774658203125
1663861888129061600,13.3150615234375,-26.763916015625,0.64239501953125,65.0482177734375
1663861888149050600,13.335050537109375,-29.94537353515625,1.55181884765625,65.5059814453125
1663861888169040000,13.355039794921876,-31.28814697265625,2.9083251953125,64.4439697265625
1663861888189028900,13.37502880859375,-32.80487060546875,3.3477783203125,62.921142578125
1663861888209017900,13.395017822265626,-34.0423583984375,2.447509765625,64.59197998046875
1663861888229006800,13.4150068359375,-36.28082275390625,4.7088623046875,62.9241943359375
1663861888248995800,13.434995849609376,-39.923095703125,5.45501708984375,62.3138427734375
1663861888268984800,13.45498486328125,-41.44287109375,5.7464599609375,61.09466552734375
1663861888288943400,13.474943359375,-43.40667724609375,6.6436767578125,59.87701416015625
1663861888308962800,13.494962890625,-47.5341796875,6.17828369140625,59.71832275390625
1663861888328951800,13.514951904296876,-49.2156982421875,6.01043701171875,58.343505859375
1663861888348940800,13.53494091796875,-48.31390380859375,5.41534423828125,59.7137451171875
1663861888368929800,13.5549296875,-50.59814453125,5.55572509765625,58.79669189453125
1663861888388918800,13.574918701171875,-51.0955810546875,3.73992919921875,59.8541259765625
1663861888408908000,13.594907958984376,-51.507568359375,5.72509765625,61.08245849609375
1663861888428897000,13.61489697265625,-52.142333984375,4.7821044921875,57.57293701171875
1663861888448886000,13.634885986328126,-52.4169921875,6.01959228515625,60.16845703125
1663861888469119200,13.655119140625,-53.18145751953125,6.0028076171875,58.33892822265625
1663861888489016600,13.6750166015625,-52.09808349609375,6.6253662109375,59.86785888671875
1663861888508853000,13.69485302734375,-51.5106201171875,5.70068359375,58.1878662109375
1663861888528842000,13.714842041015626,-52.42767333984375,5.5511474609375,58.795166015625
1663861888548831000,13.7348310546875,-51.4007568359375,3.7384033203125,59.8541259765625
1663861888568820000,13.754820068359376,-51.9805908203125,5.10101318359375,59.2498779296875
1663861888588809000,13.77480908203125,-51.654052734375,6.01806640625,59.86480712890625
1663861888608798000,13.7947978515625,-49.2340087890625,5.25054931640625,58.3404541015625
1663861888628787200,13.814787109375,-49.54681396484375,4.8126220703125,60.6231689453125
1663861888648776200,13.834776123046876,-49.05853271484375,6.1737060546875,59.716796875
1663861888668765200,13.85476513671875,-46.60797119140625,6.63909912109375,60.17913818359375
1663861888688754200,13.874754150390626,-43.59283447265625,5.12847900390625,60.479736328125
1663861888708743200,13.8947431640625,-41.73126220703125,6.5032958984375,60.79254150390625
1663861888728732200,13.914732177734376,-40.54718017578125,4.8431396484375,62.005615234375
1663861888748721200,13.93472119140625,-39.76593017578125,5.6182861328125,63.5345458984375
1663861888768710100,13.954710205078126,-37.95928955078125,4.56390380859375,64.29290771484375
1663861888788699100,13.97469921875,-35.0555419921875,4.87518310546875,64.2974853515625
1663861888808688000,13.994688232421876,-32.79571533203125,3.662109375,64.141845703125
1663861888828677000,14.014677001953125,-30.1971435546875,3.973388671875,64.45159912109375
1663861888848666000,14.034666015625,-28.43170166015625,1.09710693359375,65.2008056640625
1663861888868655400,14.0546552734375,-27.18963623046875,2.01568603515625,65.6646728515625
1663861888888644400,14.074644287109376,-24.79705810546875,-0.1007080078125,66.571044921875
1663861888908602600,14.0946025390625,-22.83477783203125,-0.99639892578125,67.93975830078125
1663861888928622300,14.114622314453126,-20.5596923828125,-1.58538818359375,69.61669921875
1663861888948611300,14.134611328125,-19.55718994140625,-4.4708251953125,69.60296630859375
1663861888968600300,14.154600341796876,-18.1976318359375,-5.06134033203125,71.27838134765625
1663861888988589300,14.17458935546875,-16.534423828125,-5.6732177734375,70.51544189453125
1663861889008547800,14.1945478515625,-14.7613525390625,-8.23516845703125,72.637939453125
1663861889028567300,14.2145673828125,-13.28277587890625,-10.34698486328125,74.15313720703125
1663861889048556300,14.234556396484376,-11.50360107421875,-12.6220703125,74.14398193359375
1663861889068545300,14.254545166015625,-9.5428466796875,-13.5345458984375,73.5321044921875
1663861889088534300,14.2745341796875,-9.59625244140625,-15.948486328125,75.80718994140625
1663861889108492800,14.294492919921876,-6.60247802734375,-18.377685546875,75.189208984375
1663861889128512500,14.314512451171876,-6.5277099609375,-21.868896484375,75.78125
1663861889148501500,14.33450146484375,-5.49468994140625,-23.24981689453125,73.9471435546875
1663861889168490500,14.354490478515626,-4.0252685546875,-25.8148193359375,75.76446533203125
1663861889188479500,14.3744794921875,-4.07562255859375,-27.95257568359375,74.53460693359375
1663861889208468500,14.394468505859376,-3.48052978515625,-28.69873046875,76.055908203125
1663861889228457500,14.41445751953125,-1.9744873046875,-29.4647216796875,74.98626708984375
1663861889248446500,14.434446533203126,-2.16522216796875,-31.1370849609375,74.8260498046875
1663861889268435500,14.454435546875,-1.90887451171875,-33.27178955078125,74.053955078125
1663861889288424400,14.474424560546876,-0.24871826171875,-34.02099609375,74.8138427734375
1663861889308413400,14.494413330078125,-1.3275146484375,-34.490966796875,73.43902587890625
1663861889328402400,14.51440234375,-1.50146484375,-35.40191650390625,73.5870361328125
1663861889348696800,14.53469677734375,-1.53961181640625,-37.20703125,75.8636474609375
1663861889368624600,14.554624755859376,-1.51824951171875,-36.16790771484375,72.9736328125
1663861889388400000,14.574400146484376,-1.8524169921875,-37.52288818359375,74.4903564453125
1663861889408358700,14.594358642578126,-0.92010498046875,-36.62567138671875,72.51434326171875
1663861889428347600,14.61434765625,-0.12359619140625,-35.24017333984375,74.50408935546875
1663861889448336600,14.634336669921876,-1.05743408203125,-36.016845703125,72.66998291015625
1663861889468325600,14.65432568359375,-1.05743408203125,-36.01226806640625,73.126220703125
1663861889488314600,14.674314697265626,-1.7608642578125,-33.42132568359375,74.20501708984375
1663861889508303600,14.6943037109375,-1.72882080078125,-32.05413818359375,74.212646484375
1663861889528292600,14.714292724609376,-2.130126953125,-29.6173095703125,74.83367919921875
1663861889548281600,14.734281494140625,-3.48358154296875,-28.7139892578125,74.22637939453125
1663861889568270600,14.7542705078125,-2.7923583984375,-25.21209716796875,74.85504150390625
1663861889588259800,14.774259765625,-3.515625,-23.39630126953125,74.10125732421875
1663861889608248800,14.794248779296876,-5.76629638671875,-21.87347412109375,75.01983642578125
1663861889628207400,14.814207275390626,-6.6650390625,-20.989990234375,71.8231201171875
1663861889648226800,14.834226806640626,-6.9091796875,-18.40057373046875,72.59674072265625
1663861889668215800,14.8542158203125,-7.49969482421875,-17.49114990234375,72.44873046875
1663861889688204800,14.874204833984376,-9.11407470703125,-14.75830078125,72.61199951171875
1663861889708193800,14.89419384765625,-9.2315673828125,-13.10577392578125,70.3338623046875
1663861889728182800,14.914182861328126,-12.8173828125,-9.912109375,71.41265869140625
1663861889748171800,14.934171875,-13.995361328125,-7.95745849609375,69.287109375
1663861889768160800,14.954160888671876,-14.10675048828125,-6.268310546875,71.429443359375
1663861889788149800,14.974149658203125,-18.5302734375,-6.28662109375,70.3582763671875
1663861889808139000,14.994138916015626,-20.46051025390625,-3.88336181640625,67.4713134765625
1663861889828128000,15.0141279296875,-21.79107666015625,-2.05078125,68.6981201171875
1663861889848117000,15.034116943359376,-23.7701416015625,-1.91192626953125,67.7825927734375
1663861889868106000,15.05410595703125,-24.61395263671875,1.2664794921875,66.42608642578125
1663861889888095000,15.074094970703126,-27.9754638671875,0.95977783203125,66.87774658203125
1663861889908084000,15.094083984375,-29.010009765625,2.46429443359375,65.3594970703125
1663861889928073000,15.114072998046876,-31.884765625,3.51409912109375,64.29443359375
1663861889948062000,15.13406201171875,-34.75189208984375,4.86297607421875,62.774658203125
1663861889968051000,15.154051025390626,-36.2640380859375,5.45654296875,61.55548095703125
1663861889988040000,15.1740400390625,-39.7735595703125,5.31463623046875,63.53302001953125
1663861890008029000,15.19402880859375,-41.1651611328125,4.53643798828125,61.69891357421875
1663861890028018000,15.214017822265625,-42.938232421875,7.098388671875,59.57489013671875
1663861890048007200,15.234007080078126,-45.379638671875,6.95343017578125,61.09619140625
1663861890067996200,15.25399609375,-47.3785400390625,6.32476806640625,59.1094970703125
1663861890087985200,15.273985107421876,-47.85003662109375,5.71136474609375,58.648681640625
1663861890107974100,15.29397412109375,-50.4241943359375,6.47125244140625,59.259033203125
1663861890127932700,15.3139326171875,-51.361083984375,5.5572509765625,59.100341796875
1663861890147952000,15.3339521484375,-50.45623779296875,5.09490966796875,58.184814453125
1663861890167941000,15.353941162109376,-52.4505615234375,4.49981689453125,60.16082763671875
1663861890187930000,15.37393017578125,-52.57568359375,5.71136474609375,59.710693359375
1663861890207919000,15.393919189453126,-52.58941650390625,5.1025390625,59.7076416015625
1663861890227877600,15.413877685546876,-52.27203369140625,5.70526123046875,58.94775390625
1663861890248233000,15.43423291015625,-51.654052734375,6.0150146484375,59.55963134765625
1663861890267977700,15.453977783203126,-53.47900390625,6.30950927734375,58.7982177734375
1663861890287875300,15.473875244140626,-53.9520263671875,5.55419921875,59.5550537109375
1663861890307864300,15.4938642578125,-52.2613525390625,6.1676025390625,59.71221923828125
1663861890327853300,15.513853271484376,-51.66473388671875,5.55572509765625,59.100341796875
1663861890347842300,15.53384228515625,-53.04107666015625,5.40618896484375,59.7076416015625
1663861890367831300,15.553831298828126,-51.2115478515625,5.40313720703125,58.94775390625
1663861890387850800,15.573850830078126,-49.84130859375,5.25970458984375,59.55810546875
1663861890407809300,15.593809326171876,-49.35760498046875,6.47430419921875,59.26055908203125
1663861890427798300,15.61379833984375,-47.6806640625,6.34002685546875,60.9375
1663861890447787300,15.633787353515626,-46.5972900390625,7.09991455078125,60.638427734375
1663861890467776300,15.6537763671875,-46.15936279296875,6.18896484375,60.78643798828125
1663861890487765200,15.67376513671875,-42.010498046875,7.57293701171875,61.56005859375
1663861890507754200,15.693754150390625,-41.15753173828125,4.840087890625,61.700439453125
1663861890527743500,15.713743408203126,-38.98773193359375,6.37054443359375,62.4725341796875
1663861890547732500,15.733732421875,-36.08245849609375,6.689453125,63.543701171875
1663861890567721500,15.753721435546876,-34.002685546875,4.26025390625,63.2293701171875
1663861890587710500,15.77371044921875,-31.402587890625,4.5745849609375,63.8427734375
1663861890607669000,15.7936689453125,-29.16107177734375,2.59552001953125,62.921142578125
1663861890627688400,15.8136884765625,-28.10211181640625,2.16064453125,65.2069091796875
1663861890647677400,15.833677490234376,-24.31793212890625,0.9552001953125,65.35797119140625
1663861890667666400,15.85366650390625,-24.20501708984375,-0.860595703125,66.2628173828125
1663861890687655400,15.873655517578126,-22.2076416015625,-0.2349853515625,67.9443359375
1663861890707614000,15.893614013671876,-19.97222900390625,-2.51617431640625,67.17376708984375
1663861890727633400,15.91363330078125,-15.3076171875,-5.36956787109375,70.06072998046875
1663861890747622400,15.933622314453125,-14.26239013671875,-6.41632080078125,71.88568115234375
1663861890767611600,15.953611572265626,-13.42926025390625,-9.9273681640625,69.8883056640625
1663861890787600600,15.9736005859375,-10.8734130859375,-11.57684326171875,71.86431884765625
1663861890807559200,15.99355908203125,-8.36029052734375,-15.07110595703125,71.240234375
1663861890827578600,16.01357861328125,-7.7362060546875,-14.58892822265625,74.2919921875
1663861890847567600,16.033567626953126,-6.43768310546875,-17.78411865234375,73.51531982421875
1663861890867556600,16.053556640625,-4.51812744140625,-20.5230712890625,72.589111328125
1663861890887545600,16.073545654296876,-4.840087890625,-21.27685546875,73.34747314453125
1663861890907534600,16.09353466796875,-2.7679443359375,-24.1363525390625,76.23138427734375
1663861890927523600,16.113523681640626,-4.2022705078125,-26.75018310546875,73.016357421875
1663861890947512600,16.1335126953125,-1.171875,-27.6519775390625,73.47259521484375
1663861890967501600,16.15350146484375,-1.34735107421875,-28.58123779296875,71.4874267578125
1663861890987490800,16.17349072265625,-0.634765625,-30.8441162109375,73.15216064453125
1663861891007479800,16.193479736328126,-1.4190673828125,-31.7596435546875,72.9949951171875
1663861891027468800,16.21346875,-1.48773193359375,-34.8052978515625,72.21832275390625
1663861891047457800,16.233457763671876,-2.20794677734375,-32.977294921875,72.98736572265625
1663861891067446800,16.25344677734375,-0.4241943359375,-34.954833984375,72.37091064453125
1663861891087435800,16.273435791015626,-0.18310546875,-37.82806396484375,73.88153076171875
1663861891107424800,16.2934248046875,0.2960205078125,-36.77825927734375,72.05810546875
1663861891127688400,16.3136884765625,-1.9989013671875,-37.22686767578125,73.57635498046875
1663861891147555300,16.333555419921876,-1.95770263671875,-35.3973388671875,74.34844970703125
1663861891167391700,16.353391845703126,0.4547119140625,-36.60430908203125,74.8016357421875
1663861891187380700,16.373380615234375,-0.44097900390625,-35.711669921875,72.6715087890625
1663861891207400400,16.393400390625,-1.08184814453125,-37.08038330078125,72.66387939453125
1663861891227359000,16.41335888671875,-0.70343017578125,-33.8775634765625,73.89984130859375
1663861891247348000,16.433347900390626,-0.82550048828125,-32.51800537109375,72.991943359375
1663861891267337000,16.4533369140625,-1.7364501953125,-32.366943359375,73.14453125
1663861891287295500,16.47329541015625,-2.17437744140625,-31.45751953125,72.9949951171875
1663861891307315000,16.49331494140625,-3.04412841796875,-29.4891357421875,72.39532470703125
1663861891327304000,16.513303955078126,-3.656005859375,-29.62493896484375,74.3743896484375
1663861891347293000,16.53329296875,-3.5919189453125,-26.74407958984375,73.626708984375
1663861891367282000,16.553281982421876,-1.715087890625,-24.63226318359375,71.2005615234375
1663861891387271000,16.57327099609375,-5.50994873046875,-24.005126953125,74.55291748046875
1663861891407260000,16.593260009765626,-5.58624267578125,-20.52764892578125,72.283935546875
1663861891427249000,16.613248779296875,-6.1614990234375,-19.00634765625,72.747802734375
1663861891447238000,16.63323779296875,-7.6324462890625,-16.58782958984375,71.53778076171875
1663861891467227100,16.65322705078125,-8.0963134765625,-16.89453125,71.2310791015625
1663861891487216000,16.673216064453126,-9.2498779296875,-13.86871337890625,69.873046875
1663861891507174400,16.69317431640625,-9.51080322265625,-12.0330810546875,71.40655517578125
1663861891527194000,16.713194091796876,-11.90185546875,-9.77630615234375,69.281005859375
1663861891547183000,16.73318310546875,-14.03656005859375,-9.7808837890625,69.2779541015625
1663861891567172000,16.753172119140626,-14.8712158203125,-6.27899169921875,70.361328125
1663861891587161000,16.7731611328125,-17.39959716796875,-3.4088134765625,68.84918212890625
1663861891607150000,16.793150146484376,-18.60504150390625,-2.801513671875,69.0032958984375
1663861891627139000,16.81313916015625,-21.61865234375,-1.1505126953125,67.3309326171875
1663861891647128000,16.833128173828126,-24.80621337890625,-0.543212890625,68.09234619140625
1663861891667117000,16.853116943359375,-27.19573974609375,1.72119140625,66.88232421875
1663861891687106000,16.87310595703125,-28.24554443359375,2.47955322265625,66.88385009765625
1663861891707095300,16.89309521484375,-31.75201416015625,2.606201171875,64.74761962890625
1663861891727084300,16.913084228515626,-34.29412841796875,4.87213134765625,63.84124755859375
1663861891747073300,16.9330732421875,-35.8184814453125,4.87518310546875,64.60113525390625
1663861891767031800,16.95303173828125,-38.568115234375,4.70123291015625,62.615966796875
1663861891787051300,16.97305126953125,-41.60614013671875,5.291748046875,61.39678955078125
1663861891807040300,16.993040283203126,-41.90521240234375,5.58013916015625,59.56878662109375
1663861891827029200,17.013029296875,-45.58258056640625,4.815673828125,59.8663330078125
1663861891847018200,17.033018310546876,-47.70050048828125,5.56488037109375,59.10491943359375
1663861891867007200,17.05300732421875,-48.44818115234375,6.304931640625,56.97479248046875
1663861891886996200,17.072996337890626,-50.7080078125,7.5164794921875,57.13043212890625
1663861891906985200,17.092985107421875,-51.36260986328125,5.54046630859375,57.2723388671875
1663861891926974200,17.11297412109375,-50.58135986328125,6.30950927734375,58.038330078125
1663861891946963500,17.13296337890625,-52.2613525390625,6.1676025390625,59.71221923828125
1663861891966952400,17.152952392578126,-50.1220703125,6.45751953125,57.4310302734375
1663861891986941400,17.17294140625,-53.1463623046875,7.391357421875,60.9375
1663861892007235600,17.193235595703126,-51.2176513671875,5.1055908203125,59.70916748046875
1663861892027163600,17.21316357421875,-52.56805419921875,6.15386962890625,58.1878662109375
1663861892046939000,17.23293896484375,-53.49273681640625,5.56793212890625,60.92681884765625
1663861892066897400,17.2528974609375,-53.01666259765625,6.4666748046875,59.2559814453125
1663861892086886400,17.272886474609376,-50.4486083984375,5.413818359375,60.015869140625
1663861892106875400,17.29287548828125,-53.9520263671875,5.5511474609375,59.0972900390625
1663861892126895000,17.31289501953125,-52.7496337890625,4.7943115234375,59.09576416015625
1663861892146853400,17.332853271484375,-51.35040283203125,6.005859375,58.3404541015625
1663861892166842400,17.35284228515625,-51.98211669921875,5.08880615234375,57.87811279296875
1663861892186831600,17.37283154296875,-52.2735595703125,5.69610595703125,57.88116455078125
1663861892206820600,17.392820556640626,-50.48370361328125,3.88336181640625,58.636474609375
1663861892226809600,17.4128095703125,-48.59466552734375,6.475830078125,59.26055908203125
1663861892246798600,17.432798583984376,-49.3804931640625,5.413818359375,59.71221923828125
1663861892266787600,17.45278759765625,-46.65679931640625,4.51202392578125,60.16845703125
1663861892286776600,17.472776611328126,-45.4071044921875,5.7373046875,61.090087890625
1663861892306765600,17.492765625,-42.50030517578125,6.19964599609375,61.09466552734375
1663861892326754600,17.512754638671876,-40.521240234375,6.0546875,61.4013671875
1663861892346743600,17.53274365234375,-38.68865966796875,6.072998046875,63.232421875
1663861892366732500,17.552732666015626,-36.9110107421875,3.7933349609375,62.76702880859375
1663861892386721500,17.572721435546875,-34.1461181640625,4.70733642578125,62.31689453125
1663861892406710800,17.592710693359376,-33.39080810546875,4.40826416015625,62.62054443359375
1663861892426699800,17.61269970703125,-30.95855712890625,3.9703369140625,64.1448974609375
1663861892446688800,17.632688720703126,-28.1036376953125,2.154541015625,64.4439697265625
1663861892466677800,17.652677734375,-26.7578125,0.94757080078125,65.04974365234375
1663861892486666800,17.672666748046876,-25.2349853515625,0.8056640625,65.96527099609375
1663861892506655700,17.69265576171875,-20.98388671875,0.05035400390625,65.3564453125
1663861892526644700,17.712644775390626,-20.71990966796875,-1.77154541015625,65.6524658203125
1663861892546633700,17.7326337890625,-18.9361572265625,-3.8787841796875,67.47283935546875
1663861892566622700,17.752622802734376,-16.63665771484375,-3.40728759765625,68.84918212890625
1663861892586611700,17.77261181640625,-14.87274169921875,-6.29425048828125,68.3807373046875
1663861892606600700,17.7926005859375,-13.0889892578125,-8.39996337890625,70.65887451171875
1663861892626589700,17.812589599609375,-11.4501953125,-10.0738525390625,70.04241943359375
1663861892646579000,17.832578857421876,-10.86273193359375,-11.1236572265625,71.56219482421875
1663861892666568000,17.85256787109375,-7.76519775390625,-15.69061279296875,69.866943359375
1663861892686557000,17.872556884765626,-7.21282958984375,-18.25714111328125,71.6827392578125
1663861892706546000,17.8925458984375,-6.29425048828125,-18.10760498046875,71.22802734375
1663861892726535000,17.912534912109376,-5.27496337890625,-20.2301025390625,71.52252197265625
1663861892746524000,17.93252392578125,-2.87322998046875,-21.9024658203125,70.9075927734375
1663861892766513000,17.952512939453126,-3.6834716796875,-24.02496337890625,71.6583251953125
1663861892786502000,17.972501953125,-2.83050537109375,-26.7578125,71.7987060546875
1663861892806491000,17.992490966796876,-2.1087646484375,-28.5736083984375,72.552490234375
1663861892826479900,18.01247998046875,-2.87322998046875,-28.58428955078125,71.484375
1663861892846468900,18.03246875,-2.9052734375,-30.09033203125,73.0010986328125
1663861892866457900,18.052457763671875,-1.10626220703125,-31.4544677734375,72.99652099609375
1663861892886416400,18.07241650390625,-2.7801513671875,-31.3018798828125,73.4527587890625
1663861892906771700,18.092771728515626,-1.29852294921875,-33.14056396484375,71.31195068359375
1663861892926516500,18.1125166015625,-1.92718505859375,-34.03167724609375,74.04937744140625
1663861892946414000,18.1324140625,-0.42266845703125,-34.94720458984375,73.13232421875
1663861892966403000,18.152403076171876,-1.141357421875,-32.97271728515625,73.2940673828125
1663861892986422500,18.172422607421876,-0.44097900390625,-35.7147216796875,72.3663330078125
1663861893006381000,18.192381103515626,-1.0162353515625,-34.1949462890625,72.37396240234375
1663861893026370000,18.2123701171875,-2.10113525390625,-34.9578857421875,72.369384765625
1663861893046359000,18.232359130859376,-1.42822265625,-32.21588134765625,72.99346923828125
1663861893066348000,18.25234814453125,-1.86309814453125,-31.15692138671875,72.540283203125
1663861893086337000,18.2723369140625,-2.61383056640625,-30.69305419921875,73.6083984375
1663861893106326000,18.292325927734375,-1.3885498046875,-30.401611328125,71.78192138671875
1663861893126315300,18.312315185546876,-2.215576171875,-26.593017578125,73.1719970703125
1663861893146304300,18.33230419921875,-3.69873046875,-24.76959228515625,73.4832763671875
1663861893166293200,18.352293212890626,-5.33447265625,-22.81341552734375,71.51031494140625
1663861893186282200,18.3722822265625,-4.9713134765625,-20.3643798828125,73.504638671875
1663861893206271200,18.392271240234376,-6.12030029296875,-17.1875,72.1466064453125
1663861893226260200,18.41226025390625,-6.7138671875,-16.43218994140625,71.69342041015625
1663861893246249200,18.432249267578126,-6.69708251953125,-15.68450927734375,70.32470703125
1663861893266238200,18.45223828125,-9.5306396484375,-12.80670166015625,69.879150390625
1663861893286227200,18.472227294921876,-10.406494140625,-11.13433837890625,70.037841796875
1663861893306216200,18.49221630859375,-13.4368896484375,-10.23712158203125,69.1253662109375
1663861893326205200,18.512205078125,-14.89715576171875,-7.35931396484375,68.3746337890625
1663861893346194200,18.532194091796875,-16.07818603515625,-5.68695068359375,68.68743896484375
1663861893366183400,18.552183349609376,-16.49627685546875,-3.87725830078125,67.17071533203125
1663861893386172400,18.57217236328125,-19.9554443359375,-1.75323486328125,67.48199462890625
1663861893406161400,18.592161376953126,-23.41766357421875,0.213623046875,67.33551025390625
1663861893426150400,18.612150390625,-24.65057373046875,-0.26397705078125,65.04669189453125
1663861893446139400,18.632139404296876,-25.9796142578125,1.56707763671875,66.27349853515625
1663861893466098000,18.652097900390626,-30.06134033203125,3.082275390625,66.8853759765625
1663861893486117400,18.672117431640626,-30.54656982421875,1.86767578125,67.0318603515625
1663861893506106400,18.6921064453125,-34.3231201171875,3.51409912109375,65.0543212890625
1663861893526065000,18.71206494140625,-37.030029296875,5.1788330078125,64.75372314453125
1663861893546084400,18.73208447265625,-37.78228759765625,5.76324462890625,62.31842041015625
1663861893566073300,18.7520732421875,-42.34466552734375,6.34765625,60.638427734375
1663861893586062600,18.7720625,-43.27239990234375,5.74188232421875,61.09161376953125
1663861893606051600,18.792051513671876,-44.32220458984375,6.5032958984375,61.55242919921875
1663861893626040600,18.81204052734375,-44.8089599609375,5.2734375,59.869384765625
1663861893646029600,18.832029541015626,-47.833251953125,6.46820068359375,58.19549560546875
1663861893666018600,18.8520185546875,-49.835205078125,5.5633544921875,59.55963134765625
1663861893686007600,18.872007568359376,-50.46539306640625,4.65850830078125,60.46905517578125
1663861893705996500,18.89199658203125,-50.75225830078125,5.4168701171875,60.47210693359375
1663861893725985500,18.911985595703126,-53.4942626953125,5.560302734375,60.1654052734375
1663861893745974500,18.931974609375,-52.41851806640625,6.00433349609375,58.3404541015625
1663861893765963500,18.951963623046876,-53.21502685546875,4.486083984375,58.7890625
1663861893786196700,18.97219677734375,-50.76141357421875,5.09796142578125,58.642578125
1663861893806094000,18.992093994140625,-51.35955810546875,5.560302734375,59.55810546875
1663861893825930800,19.0119306640625,-52.58941650390625,5.1055908203125,60.01129150390625
1663861893845919700,19.031919677734376,-53.173828125,6.30340576171875,58.0352783203125
1663861893865908700,19.05190869140625,-53.961181640625,5.2337646484375,57.57293701171875
1663861893885897700,19.071897705078126,-53.936767578125,6.304931640625,58.3404541015625
1663861893905886700,19.09188671875,-53.1890869140625,5.5572509765625,59.55657958984375
1663861893925875700,19.111875732421876,-53.34625244140625,5.3985595703125,58.94622802734375
1663861893945864700,19.13186474609375,-52.557373046875,6.48193359375,61.08551025390625
1663861893965853700,19.151853759765626,-51.4739990234375,7.24029541015625,60.48126220703125
1663861893985812200,19.171812255859376,-51.67236328125,5.2490234375,58.79364013671875
1663861894005831700,19.191831787109376,-51.94854736328125,6.4727783203125,59.7137451171875
1663861894025820700,19.211820556640625,-51.35040283203125,6.005859375,58.3404541015625
1663861894045809700,19.2318095703125,-48.7579345703125,6.011962890625,58.343505859375
1663861894065799000,19.251798828125,-47.23052978515625,6.16607666015625,58.1939697265625
1663861894085788000,19.271787841796876,-48.16436767578125,5.26885986328125,60.16998291015625
1663861894105777000,19.29177685546875,-46.92535400390625,6.03790283203125,60.9375
1663861894125766000,19.311765869140626,-44.7662353515625,7.11212158203125,61.70654296875
1663861894145755000,19.3317548828125,-41.583251953125,6.341552734375,59.5733642578125
1663861894165743900,19.351743896484376,-40.9912109375,5.4473876953125,61.5509033203125
1663861894185732900,19.37173291015625,-39.178466796875,4.69970703125,62.615966796875
1663861894205721900,19.391721923828126,-37.02392578125,5.47637939453125,64.14642333984375
1663861894225710800,19.4117109375,-33.685302734375,4.8614501953125,62.47100830078125
1663861894245699800,19.431699951171876,-32.94677734375,3.7994384765625,62.4664306640625
1663861894265688800,19.451688720703125,-30.36956787109375,3.0670166015625,65.05584716796875
1663861894285647400,19.4716474609375,-27.48565673828125,2.4658203125,65.05584716796875
1663861894305667000,19.4916669921875,-25.5218505859375,1.57012939453125,66.57867431640625
1663861894325656000,19.511656005859376,-24.1668701171875,0.81634521484375,67.03338623046875
1663861894345645000,19.53164501953125,-22.540283203125,-1.458740234375,67.17681884765625
1663861894365634000,19.551634033203126,-19.36798095703125,-2.8106689453125,68.2403564453125
1663861894385623000,19.571623046875,-16.22772216796875,-5.54046630859375,68.07708740234375
1663861894405612000,19.591612060546876,-13.76800537109375,-4.7515869140625,70.9808349609375
1663861894425601000,19.61160107421875,-12.99896240234375,-11.13433837890625,70.7977294921875
1663861894445590000,19.631590087890626,-10.10284423828125,-11.14349365234375,68.97125244140625
1663861894465579000,19.6515791015625,-9.9609375,-11.72332763671875,72.16949462890625
1663861894485568000,19.671568115234376,-8.5205078125,-15.37933349609375,70.93353271484375
1663861894505557000,19.691556884765625,-6.29425048828125,-18.10150146484375,71.83685302734375
1663861894525546000,19.7115458984375,-4.791259765625,-19.15283203125,73.052978515625
1663861894545535200,19.73153515625,-3.60107421875,-20.37353515625,72.1343994140625
1663861894565524200,19.751524169921876,-3.35235595703125,-22.94464111328125,73.49395751953125
1663861894585513200,19.77151318359375,-3.38592529296875,-24.32861328125,71.6583251953125
1663861894605502200,19.791502197265626,-2.69775390625,-27.6580810546875,73.1658935546875
1663861894625491200,19.8114912109375,-2.09197998046875,-27.81524658203125,72.25189208984375
1663861894645480200,19.831480224609376,-3.68194580078125,-30.7037353515625,72.540283203125
1663861894665774300,19.8517744140625,-1.71966552734375,-31.60400390625,73.4527587890625
1663861894685702400,19.871702392578126,-1.46026611328125,-33.58306884765625,72.98583984375
1663861894705477600,19.8914775390625,-2.07672119140625,-33.89434814453125,72.37396240234375
1663861894725436200,19.911436279296876,-0.59814453125,-35.87646484375,71.14715576171875
1663861894745455900,19.931455810546876,-1.8280029296875,-36.322021484375,72.66693115234375
1663861894765414400,19.951414306640626,-0.59967041015625,-35.88104248046875,70.68939208984375
1663861894785403400,19.9714033203125,-0.494384765625,-38.13018798828125,74.18365478515625
1663861894805392400,19.991392333984376,0.25634765625,-38.59710693359375,72.65777587890625
1663861894825381400,20.01138134765625,-2.18505859375,-38.6138916015625,71.28448486328125
1663861894845370400,20.031370361328126,-0.34027099609375,-37.994384765625,72.20306396484375
1663861894865359400,20.051359375,-0.299072265625,-36.16180419921875,73.27880859375
1663861894885348400,20.071348388671876,0.32958984375,-35.26611328125,71.30279541015625
1663861894905337300,20.09133740234375,-1.0650634765625,-36.32354736328125,72.36328125
1663861894925326300,20.111326416015626,-1.00860595703125,-33.88519287109375,73.13690185546875
1663861894945315300,20.1313154296875,-1.9195556640625,-33.60595703125,70.3948974609375
1663861894965304300,20.15130419921875,-2.80609130859375,-32.37762451171875,72.076416015625
1663861894985293300,20.171293212890625,-1.26495361328125,-31.62841796875,70.556640625
1663861895005282600,20.191282470703126,-2.264404296875,-28.72467041015625,72.70355224609375
1663861895025240800,20.21124072265625,-1.17340087890625,-27.66265869140625,72.100830078125
1663861895045260500,20.231260498046876,-3.5858154296875,-26.4556884765625,71.7987060546875
1663861895065249500,20.25124951171875,-3.36151123046875,-23.2666015625,71.35772705078125
1663861895085208000,20.2712080078125,-5.0323486328125,-22.9644775390625,71.66290283203125
1663861895105227500,20.2912275390625,-6.8939208984375,-17.65289306640625,71.22955322265625
1663861895125216500,20.311216552734376,-6.59027099609375,-17.66204833984375,70.0103759765625
1663861895145205500,20.33120556640625,-8.9813232421875,-15.40679931640625,67.73223876953125
1663861895165194500,20.351194580078126,-9.5306396484375,-12.81280517578125,69.1162109375
1663861895185183500,20.37118359375,-10.5560302734375,-10.986328125,69.58160400390625
1663861895205172500,20.39117236328125,-13.7451171875,-10.38818359375,69.27642822265625
1663861895225161500,20.411161376953125,-14.61029052734375,-8.123779296875,67.76275634765625
1663861895245120000,20.4311201171875,-15.8935546875,-4.1778564453125,67.32330322265625
1663861895265139700,20.4511396484375,-18.1488037109375,-2.8076171875,68.24188232421875
1663861895285128700,20.471128662109376,-21.0235595703125,-1.7608642578125,66.87164306640625
1663861895305117700,20.49111767578125,-22.8363037109375,-1.0162353515625,65.65399169921875
1663861895325106700,20.511106689453126,-26.30157470703125,0.8056640625,66.2689208984375
1663861895345065200,20.531065185546876,-27.6275634765625,2.92205810546875,65.21148681640625
1663861895365084700,20.551084716796876,-30.23529052734375,2.16522216796875,66.27044677734375
1663861895385073700,20.57107373046875,-32.1563720703125,4.89654541015625,66.13006591796875
1663861895405062700,20.591062744140626,-34.27581787109375,5.63812255859375,64.60723876953125
1663861895425051600,20.6110517578125,-36.7279052734375,5.16357421875,62.92572021484375
1663861895445040600,20.63104052734375,-40.9576416015625,6.9671630859375,61.55853271484375
1663861895465029600,20.651029541015625,-42.6422119140625,6.65740966796875,61.40289306640625
1663861895484988200,20.67098828125,-45.892333984375,4.522705078125,61.38763427734375
1663861895505007900,20.6910078125,-49.18365478515625,7.3883056640625,59.5703125
1663861895524996900,20.710996826171876,-49.84283447265625,5.2490234375,58.33892822265625
1663861895544985900,20.73098583984375,-50.73089599609375,6.45599365234375,57.42950439453125
1663861895565280000,20.751280029296876,-53.92913818359375,6.60858154296875,58.34197998046875
1663861895585055500,20.771055419921876,-53.3538818359375,5.09185791015625,58.6395263671875
1663861895604952800,20.790952880859376,-54.4219970703125,5.084228515625,57.8765869140625
1663861895624941800,20.81094189453125,-55.0384521484375,4.7821044921875,58.331298828125
1663861895644930800,20.830930908203126,-54.53948974609375,6.60400390625,58.0352783203125
1663861895664919800,20.850919921875,-54.41436767578125,5.39398193359375,58.6395263671875
1663861895684908800,20.87090869140625,-55.00946044921875,6.0028076171875,58.79364013671875
1663861895704897800,20.890897705078125,-55.499267578125,4.63409423828125,58.94012451171875
1663861895724887000,20.910886962890626,-55.4656982421875,6.14166259765625,57.42340087890625
1663861895744876000,20.9308759765625,-54.87823486328125,5.09490966796875,59.246826171875
1663861895764865000,20.950864990234376,-56.268310546875,4.32586669921875,58.63189697265625
1663861895784854000,20.97085400390625,-54.87213134765625,5.389404296875,58.1817626953125
1663861895804843000,20.990843017578126,-55.63201904296875,5.5389404296875,58.0291748046875
1663861895824832000,21.01083203125,-53.51409912109375,4.7760009765625,57.2662353515625
1663861895844821000,21.030821044921876,-54.55474853515625,5.9906005859375,57.27081298828125
1663861895864810000,21.05081005859375,-52.0904541015625,7.05718994140625,56.9732666015625
1663861895884799000,21.070799072265626,-51.66473388671875,5.560302734375,59.55810546875
1663861895904788000,21.0907880859375,-51.06201171875,5.25970458984375,59.86175537109375
1663861895924746500,21.11074658203125,-50.12054443359375,6.4697265625,58.953857421875
1663861895944766000,21.130765869140625,-47.52655029296875,6.488037109375,60.48126220703125
1663861895964755200,21.150755126953126,-46.368408203125,3.74755859375,59.5550537109375
1663861895984744200,21.170744140625,-44.64569091796875,5.73883056640625,61.090087890625
1663861896004733200,21.190733154296876,-43.55926513671875,6.51397705078125,62.6190185546875
1663861896024722200,21.21072216796875,-41.4306640625,6.22100830078125,63.3819580078125
1663861896044711200,21.230711181640626,-40.0787353515625,5.303955078125,62.46490478515625
1663861896064700200,21.2507001953125,-34.759521484375,4.5562744140625,62.46795654296875
1663861896084689200,21.270689208984376,-33.86993408203125,3.35540771484375,64.1387939453125
1663861896104678100,21.29067822265625,-31.13250732421875,3.05938720703125,64.29290771484375
1663861896124667100,21.310667236328126,-30.5145263671875,3.3660888671875,64.44854736328125
1663861896144656100,21.33065625,-26.75323486328125,1.2359619140625,63.22174072265625
1663861896164645000,21.35064501953125,-26.33514404296875,-0.5706787109375,65.1947021484375
1663861896184634400,21.37063427734375,-24.51629638671875,-1.1627197265625,66.56646728515625
1663861896204623400,21.390623291015626,-21.32568359375,-1.617431640625,65.9576416015625
1663861896224612400,21.4106123046875,-19.8394775390625,-3.4210205078125,68.084716796875
1663861896244601300,21.430601318359376,-16.48101806640625,-3.253173828125,69.0032958984375
1663861896264590300,21.45059033203125,-16.07818603515625,-5.68389892578125,68.9910888671875
1663861896284579300,21.470579345703126,-14.324951171875,-9.027099609375,68.67218017578125
1663861896304537900,21.490537841796876,-12.32757568359375,-8.404541015625,69.8974609375
1663861896324557300,21.510557373046876,-10.57891845703125,-12.0391845703125,70.947265625
1663861896344546300,21.53054638671875,-9.6954345703125,-13.4124755859375,70.02716064453125
1663861896364504800,21.5505048828125,-7.59124755859375,-14.77203369140625,70.4803466796875
1663861896384524300,21.570524169921875,-6.62384033203125,-19.171142578125,71.221923828125
1663861896404513300,21.59051318359375,-5.73577880859375,-20.38116455078125,71.67510986328125
1663861896424502500,21.61050244140625,-4.86602783203125,-22.357177734375,71.51336669921875
1663861896444735500,21.630735595703126,-3.64227294921875,-22.20306396484375,71.3623046875
1663861896464633000,21.650633056640626,-2.8076171875,-25.6988525390625,71.1944580078125
1663861896484500000,21.6705,-2.50701904296875,-25.98724365234375,73.0224609375
1663861896504489000,21.690489013671876,-3.6163330078125,-27.8106689453125,73.31695556640625
1663861896524478000,21.71047802734375,-3.05938720703125,-30.23223876953125,74.22027587890625
1663861896544436500,21.7304365234375,-1.983642578125,-29.78973388671875,72.393798828125
1663861896564425500,21.750425537109376,-0.628662109375,-30.5450439453125,72.69744873046875
1663861896584384000,21.770384033203126,-1.43585205078125,-32.51953125,72.991943359375
1663861896604403500,21.790403564453126,-0.8514404296875,-33.58917236328125,72.22442626953125
1663861896624392400,21.810392333984375,-0.23345947265625,-33.28399658203125,72.22747802734375
1663861896644381400,21.83038134765625,-1.35498046875,-35.71014404296875,73.12774658203125
1663861896664370700,21.85037060546875,-1.934814453125,-34.3505859375,72.2198486328125
1663861896684359700,21.870359619140626,-1.3275146484375,-34.4940185546875,73.13385009765625
1663861896704348700,21.8903486328125,-0.56304931640625,-34.344482421875,72.52655029296875
1663861896724337700,21.910337646484376,-0.1007080078125,-34.18731689453125,73.13690185546875
1663861896744296200,21.930296142578126,-1.48773193359375,-34.80377197265625,72.52349853515625
1663861896764315600,21.950315673828126,-1.2725830078125,-32.0587158203125,73.45123291015625
1663861896784304600,21.9703046875,-2.27508544921875,-29.18548583984375,72.0916748046875
1663861896804293600,21.990293701171876,-4.96368408203125,-26.751708984375,73.01483154296875
1663861896824282600,22.01028271484375,-2.67333984375,-26.59759521484375,72.7142333984375
1663861896844241200,22.0302412109375,-5.69305419921875,-25.23956298828125,72.259521484375
1663861896864260600,22.050260498046875,-2.87322998046875,-21.89483642578125,71.6705322265625
1663861896884249600,22.07024951171875,-4.0557861328125,-20.2301025390625,71.22039794921875
1663861896904238800,22.09023876953125,-4.80194091796875,-19.48394775390625,69.6990966796875
1663861896924227800,22.110227783203126,-5.499267578125,-16.595458984375,70.0164794921875
1663861896944216800,22.130216796875,-6.54296875,-15.5426025390625,68.9544677734375
1663861896964205800,22.150205810546876,-9.228515625,-12.8265380859375,67.2882080078125
1663861896984194800,22.17019482421875,-10.40191650390625,-10.845947265625,68.21136474609375
1663861897004183800,22.190183837890626,-11.7340087890625,-9.16290283203125,69.8944091796875
1663861897024172800,22.2101728515625,-12.33062744140625,-8.4259033203125,67.3065185546875
1663861897044161800,22.230161865234376,-14.55230712890625,-5.55267333984375,66.2506103515625
1663861897064150800,22.25015087890625,-14.959716796875,-3.27911376953125,65.6524658203125
1663861897084139800,22.270139892578126,-17.3858642578125,-2.6763916015625,65.4998779296875
1663861897104128800,22.290128662109375,-20.89385986328125,-2.69317626953125,64.4287109375
1663861897124117800,22.31011767578125,-22.344970703125,0.50201416015625,65.20538330078125
1663861897144107000,22.33010693359375,-23.86016845703125,0.95367431640625,65.05279541015625
1663861897164096000,22.350095947265626,-26.57623291015625,2.17132568359375,65.9698486328125
1663861897184085000,22.3700849609375,-29.32586669921875,2.0050048828125,65.05279541015625
1663861897204074000,22.390073974609376,-32.4951171875,3.50494384765625,63.531494140625
1663861897224063000,22.41006298828125,-33.8226318359375,5.47943115234375,63.69171142578125
1663861897244052000,22.430052001953126,-35.69488525390625,3.64532470703125,62.91961669921875
1663861897264041000,22.450041015625,-38.98773193359375,6.37054443359375,62.4725341796875
1663861897284030000,22.470030029296876,-40.38848876953125,5.14373779296875,61.54937744140625
1663861897304019000,22.49001904296875,-43.88275146484375,5.73883056640625,60.78643798828125
1663861897324313000,22.51031298828125,-45.8587646484375,6.0394287109375,60.93902587890625
1663861897344241200,22.5302412109375,-47.22137451171875,6.4910888671875,60.78643798828125
1663861897363986200,22.549986083984376,-50.299072265625,5.2581787109375,59.55810546875
1663861897383975200,22.56997509765625,-49.68719482421875,5.40008544921875,58.1878662109375
1663861897403964200,22.589964111328126,-52.13165283203125,5.23834228515625,57.574462890625
1663861897423953200,22.609953125,-53.30657958984375,7.21435546875,57.88726806640625
1663861897443942100,22.629942138671876,-54.1168212890625,5.084228515625,57.8765869140625
1663861897463931100,22.64993115234375,-53.497314453125,5.53741455078125,57.269287109375
1663861897483920100,22.669920166015626,-54.10308837890625,5.694580078125,58.184814453125
1663861897503909000,22.6899091796875,-53.21502685546875,4.4891357421875,59.09423828125
1663861897523898000,22.709898193359376,-53.92913818359375,6.60858154296875,58.34197998046875
1663861897543887000,22.72988720703125,-53.64532470703125,5.69915771484375,58.642578125
1663861897563876000,22.7498759765625,-53.6590576171875,5.09185791015625,58.6395263671875
1663861897583834600,22.769834716796876,-53.0364990234375,5.68389892578125,56.6619873046875
1663861897603854300,22.789854248046876,-53.0609130859375,4.62646484375,57.4188232421875
1663861897623843300,22.80984326171875,-51.64794921875,6.3201904296875,59.5611572265625
1663861897643832300,22.829832275390626,-51.220703125,5.0872802734375,57.421875
1663861897663821300,22.8498212890625,-49.2095947265625,6.3140869140625,58.34503173828125
1663861897683810300,22.869810302734376,-47.2381591796875,5.7281494140625,60.47821044921875
1663861897703792000,22.889792236328127,-48.6114501953125,5.7220458984375,60.0189208984375
1663861897723781000,22.909781005859376,-45.416259765625,5.42449951171875,60.02197265625
1663861897743739600,22.92973974609375,-43.914794921875,4.36859130859375,60.47515869140625
1663861897763759000,22.949759033203126,-41.8853759765625,6.36749267578125,62.77313232421875
1663861897783748000,22.969748046875,-38.23394775390625,6.05926513671875,61.4044189453125
1663861897803706600,22.98970654296875,-37.03155517578125,5.1666259765625,63.3819580078125
1663861897823726000,23.00972607421875,-37.0513916015625,4.39453125,61.85455322265625
1663861897843715000,23.029715087890626,-33.85772705078125,3.9581298828125,63.38043212890625
1663861897863704000,23.0497041015625,-32.17315673828125,4.2694091796875,63.84124755859375
1663861897883693000,23.069693115234376,-30.2215576171875,2.90069580078125,63.37890625
1663861897903682300,23.089682373046877,-26.42822265625,2.008056640625,64.59808349609375
1663861897923671300,23.10967138671875,-24.7711181640625,1.104736328125,65.20538330078125
1663861897943660300,23.129660400390627,-23.10943603515625,0.48675537109375,63.67950439453125
1663861897963649300,23.149649169921876,-22.20306396484375,0.04730224609375,65.35491943359375
1663861897983638300,23.16963818359375,-20.24688720703125,-1.1505126953125,67.02880859375
1663861898003596800,23.1895966796875,-16.98455810546875,-5.23834228515625,68.07861328125
1663861898023616300,23.2096162109375,-14.7247314453125,-6.45751953125,67.1600341796875
1663861898043605200,23.229605224609376,-12.47406005859375,-7.9803466796875,66.0888671875
1663861898063594200,23.24959423828125,-10.96649169921875,-8.86993408203125,68.37158203125
1663861898083583200,23.269583251953126,-9.515380859375,-12.0635986328125,67.7490234375
1663861898103572200,23.289572265625,-7.71942138671875,-13.5772705078125,68.048095703125
1663861898123561200,23.309561279296876,-6.3446044921875,-13.56201171875,69.573974609375
1663861898143550500,23.329550537109377,-7.6507568359375,-17.36297607421875,69.7052001953125
1663861898163539500,23.34953955078125,-5.88531494140625,-20.23773193359375,70.7611083984375
1663861898183528400,23.369528564453127,-5.31768798828125,-22.0672607421875,69.99053955078125
1663861898203517400,23.389517333984376,-3.338623046875,-22.20916748046875,70.60089111328125
1663861898223811600,23.4098115234375,-2.6336669921875,-24.77874755859375,72.113037109375
1663861898243587000,23.429587158203127,-1.116943359375,-25.09918212890625,69.8272705078125
1663861898263484400,23.449484375,-2.52685546875,-26.75933837890625,71.49505615234375
1663861898283503900,23.46950390625,-1.39007568359375,-30.40771484375,71.173095703125
1663861898303462400,23.48946240234375,-3.07769775390625,-30.865478515625,71.32110595703125
1663861898323451400,23.509451416015626,-1.0833740234375,-30.401611328125,71.783447265625
1663861898343440400,23.5294404296875,-0.079345703125,-33.135986328125,71.61865234375
1663861898363429400,23.549429443359376,-0.372314453125,-32.672119140625,72.686767578125
1663861898383418600,23.569418701171877,-0.53863525390625,-33.28094482421875,72.5311279296875
1663861898403407600,23.58940771484375,-1.35650634765625,-35.71624755859375,72.3663330078125
1663861898423396600,23.609396728515627,0.04730224609375,-34.34600830078125,72.22137451171875
1663861898443385600,23.629385498046876,-0.274658203125,-35.1043701171875,72.52197265625
1663861898463374600,23.64937451171875,-0.885009765625,-35.10589599609375,72.52197265625
1663861898483333000,23.6693330078125,-0.4302978515625,-35.25238037109375,73.13079833984375
1663861898503352600,23.6893525390625,-0.68817138671875,-33.1329345703125,72.07489013671875
1663861898523341600,23.709341552734376,-1.9195556640625,-33.5968017578125,71.46148681640625
1663861898543330600,23.72933056640625,-1.29547119140625,-33.11920166015625,73.90289306640625
1663861898563319600,23.749319580078126,-1.25579833984375,-31.3018798828125,73.14910888671875
1663861898583278000,23.769278076171876,-0.457763671875,-29.65087890625,70.416259765625
1663861898603297800,23.7892978515625,-2.73284912109375,-29.1839599609375,72.3968505859375
1663861898623286800,23.809286865234377,-3.65142822265625,-29.339599609375,72.24273681640625
1663861898643245000,23.8292451171875,-2.08740234375,-27.52685546875,70.42388916015625
1663861898663264800,23.8492646484375,-4.03594970703125,-26.1474609375,72.41058349609375
1663861898683253800,23.869253662109376,-3.50341796875,-22.81036376953125,71.5118408203125
1663861898703212300,23.88921240234375,-3.95660400390625,-22.6531982421875,72.1221923828125
1663861898723231700,23.909231689453126,-2.9449462890625,-18.3929443359375,72.601318359375
1663861898743220700,23.929220703125,-6.88934326171875,-17.3614501953125,69.70672607421875
1663861898763209700,23.949209716796876,-7.586669921875,-14.47906494140625,69.2626953125
1663861898783198700,23.96919873046875,-10.4644775390625,-13.7115478515625,70.78704833984375
1663861898803187700,23.989187744140626,-10.2691650390625,-11.7523193359375,68.81561279296875
1663861898823176700,24.0091767578125,-11.30218505859375,-10.22796630859375,69.58465576171875
1663861898843166000,24.029166015625,-12.80364990234375,-9.17816162109375,68.3685302734375
1663861898863155000,24.049155029296877,-15.02838134765625,-6.4453125,68.68438720703125
1663861898883144000,24.06914404296875,-16.4703369140625,-2.8045654296875,68.243408203125
1663861898903133000,24.0891328125,-19.07958984375,-3.43170166015625,66.56036376953125
1663861898923152400,24.10915234375,-20.71075439453125,-1.45721435546875,66.8731689453125
1663861898943111000,24.12911083984375,-21.88720703125,0.50506591796875,65.51055908203125
1663861898963100000,24.149099853515626,-25.079345703125,0.95977783203125,66.11785888671875
1663861898983089000,24.1690888671875,-26.45263671875,0.9429931640625,64.593505859375
1663861899003078000,24.189077880859376,-30.07965087890625,2.43988037109375,62.76702880859375
1663861899023067000,24.20906689453125,-32.76214599609375,5.17578125,63.3880615234375
1663861899043055900,24.229055908203126,-34.6435546875,2.90069580078125,64.44091796875
1663861899063044900,24.249044921875,-36.3037109375,3.65142822265625,63.6810302734375
1663861899083034000,24.2690341796875,-39.47906494140625,4.852294921875,62.7685546875
1663861899103389200,24.28938916015625,-40.9759521484375,6.19964599609375,60.79254150390625
1663861899123164700,24.30916455078125,-45.721435546875,5.42144775390625,59.716796875
1663861899143031600,24.329031494140626,-47.48687744140625,8.29925537109375,58.966064453125
1663861899163020500,24.3490205078125,-49.0692138671875,5.71136474609375,58.95233154296875
1663861899182979000,24.36897900390625,-51.483154296875,6.91375732421875,57.8887939453125
1663861899202937600,24.3889375,-51.96685791015625,5.7037353515625,58.64410400390625
1663861899222957000,24.40895703125,-54.42352294921875,5.07354736328125,56.65740966796875
1663861899242946000,24.428946044921876,-53.95355224609375,5.5450439453125,58.33587646484375
1663861899262935000,24.44893505859375,-54.8553466796875,6.14013671875,57.11822509765625
1663861899282924000,24.468924072265626,-55.02166748046875,5.5419921875,58.3343505859375
1663861899302913000,24.4889130859375,-55.06134033203125,3.72314453125,58.782958984375
1663861899322902300,24.50890234375,-53.9703369140625,4.7882080078125,58.7890625
1663861899342891300,24.528891357421877,-55.010986328125,5.99517822265625,58.0322265625
1663861899362880300,24.54888037109375,-56.39495849609375,5.53131103515625,57.2662353515625
1663861899382869200,24.568869140625,-52.3956298828125,7.0587158203125,57.2784423828125
1663861899402858200,24.588858154296876,-53.00750732421875,6.91375732421875,58.19091796875
1663861899422847200,24.60884716796875,-53.49578857421875,5.5450439453125,58.33587646484375
1663861899442836200,24.628836181640626,-51.5106201171875,5.7037353515625,58.64410400390625
1663861899462825200,24.6488251953125,-53.485107421875,6.011962890625,59.55810546875
1663861899482814200,24.668814208984376,-49.859619140625,4.4952392578125,59.0972900390625
1663861899502803200,24.68880322265625,-49.51934814453125,6.02569580078125,60.1715087890625
1663861899522792200,24.708792236328126,-48.15673828125,5.572509765625,60.1715087890625
1663861899542781200,24.72878125,-45.2423095703125,6.341552734375,60.6353759765625
1663861899562739700,24.74873974609375,-42.0379638671875,6.48956298828125,59.2681884765625
1663861899582759400,24.768759521484377,-40.692138671875,5.15289306640625,62.615966796875
1663861899602748400,24.78874853515625,-38.5589599609375,5.1483154296875,61.55242919921875
1663861899622737400,24.8087373046875,-37.50152587890625,4.6966552734375,61.8560791015625
1663861899642726400,24.828726318359376,-35.07080078125,4.26025390625,63.53302001953125
1663861899662715400,24.84871533203125,-32.476806640625,4.278564453125,65.0604248046875
1663861899682704400,24.868704345703126,-31.45294189453125,2.44140625,63.2232666015625
1663861899702693400,24.888693359375,-29.63104248046875,2.0050048828125,65.05126953125
1663861899722682400,24.908682373046876,-26.13067626953125,1.70135498046875,64.29290771484375
1663861899742671400,24.92867138671875,-26.32293701171875,-0.10833740234375,65.95916748046875
1663861899762660400,24.948660400390626,-23.60992431640625,-1.46942138671875,66.10870361328125
1663861899782649600,24.968649658203127,-19.51904296875,-2.66876220703125,67.02117919921875
1663861899802638600,24.988638671875,-17.86041259765625,-3.56903076171875,67.93365478515625
1663861899822627600,25.008627685546877,-15.6280517578125,-5.99212646484375,68.3807373046875
1663861899842616600,25.028616455078126,-13.96331787109375,-6.45599365234375,67.16156005859375
1663861899862605600,25.04860546875,-11.76910400390625,-10.68878173828125,69.12384033203125
1663861899882594600,25.068594482421876,-10.56060791015625,-11.2762451171875,71.40960693359375
1663861899902583600,25.08858349609375,-10.02044677734375,-14.31732177734375,70.9381103515625
1663861899922572500,25.108572509765626,-8.3709716796875,-15.52734375,71.23870849609375
1663861899942531000,25.128531005859376,-7.50732421875,-17.7978515625,72.14202880859375
1663861899962550500,25.148550537109376,-3.7750244140625,-21.29058837890625,71.51947021484375
1663861899982814200,25.168814208984376,-2.7008056640625,-20.99151611328125,70.7611083984375
1663861900002742300,25.1887421875,-5.07965087890625,-25.091552734375,71.6522216796875
1663861900022517800,25.208517822265627,-3.9947509765625,-24.31640625,73.18115234375
1663861900042506800,25.2285068359375,-1.75628662109375,-26.44805908203125,72.25799560546875
1663861900062495700,25.248495849609377,-1.6143798828125,-26.910400390625,71.34246826171875
1663861900082484700,25.268484619140626,-2.1270751953125,-29.34417724609375,71.17767333984375
1663861900102473700,25.2884736328125,-0.77667236328125,-30.38787841796875,73.30780029296875
1663861900122462700,25.308462646484376,-0.018310546875,-30.54351806640625,72.69744873046875
1663861900142451700,25.32845166015625,-2.191162109375,-32.21435546875,73.297119140625
1663861900162440700,25.348440673828126,-0.53253173828125,-32.9833984375,71.771240234375
1663861900182429700,25.3684296875,-1.2969970703125,-33.12530517578125,73.1414794921875
1663861900202418700,25.388418701171876,-0.69427490234375,-33.4259033203125,73.44512939453125
1663861900222407700,25.40840771484375,-2.11029052734375,-35.27069091796875,71.30126953125
1663861900242396700,25.428396728515626,0.03662109375,-34.796142578125,72.98126220703125
1663861900262386000,25.448385986328127,-1.93634033203125,-34.35516357421875,71.7620849609375
1663861900282375000,25.468375,-1.3397216796875,-34.9578857421875,72.064208984375
1663861900302364000,25.488364013671877,-0.53253173828125,-32.9803466796875,72.22747802734375
1663861900322353000,25.508352783203126,-0.65460205078125,-31.61773681640625,71.624755859375
1663861900342342000,25.528341796875,0.58746337890625,-30.694580078125,72.54486083984375
1663861900362331000,25.548330810546876,-1.84478759765625,-30.3924560546875,73.0010986328125
1663861900382319900,25.56831982421875,-2.862548828125,-28.25775146484375,74.07684326171875
1663861900402308900,25.588308837890626,-4.79888916015625,-26.14898681640625,72.4090576171875
1663861900422297900,25.6082978515625,-4.693603515625,-21.44622802734375,71.3653564453125
1663861900442286800,25.628286865234376,-5.2764892578125,-20.2392578125,70.4559326171875
1663861900462275800,25.64827587890625,-5.38482666015625,-18.27545166015625,69.0948486328125
1663861900482264800,25.668264892578126,-7.4432373046875,-14.9322509765625,69.56634521484375
1663861900502254000,25.688254150390627,-8.1512451171875,-12.50762939453125,68.8140869140625
1663861900522243000,25.7082431640625,-9.2010498046875,-11.74468994140625,69.57855224609375
1663861900542232000,25.728232177734377,-12.03460693359375,-8.87451171875,68.06640625
1663861900562221000,25.748220947265626,-13.07373046875,-7.65838623046875,68.37615966796875
1663861900582179600,25.7681796875,-14.85748291015625,-5.54351806640625,67.31719970703125
1663861900602199000,25.788198974609376,-17.73681640625,-4.79278564453125,67.0135498046875
1663861900622188000,25.80818798828125,-20.635986328125,-4.80804443359375,65.9423828125
1663861900642177000,25.828177001953126,-19.93255615234375,-0.701904296875,66.1163330078125
1663861900662166000,25.848166015625,-23.59161376953125,-0.70037841796875,67.1783447265625
1663861900682185700,25.868185791015627,-26.59912109375,1.11541748046875,67.0318603515625
1663861900702144000,25.88814404296875,-30.4107666015625,1.24359130859375,65.04669189453125
1663861900722133000,25.908133056640626,-32.18841552734375,3.515625,64.599609375
1663861900742122200,25.928122314453127,-35.40191650390625,3.05633544921875,65.04974365234375
1663861900762111200,25.948111328125,-37.96844482421875,4.2449951171875,62.46185302734375
1663861900782100200,25.968100341796877,-40.5487060546875,4.83856201171875,61.395263671875
1663861900802089200,25.988089111328126,-42.82989501953125,5.133056640625,60.784912109375
1663861900822078200,26.008078125,-46.34552001953125,4.8065185546875,59.1033935546875
1663861900842036700,26.02803662109375,-47.3968505859375,5.55877685546875,58.343505859375
1663861900862056200,26.04805615234375,-51.18865966796875,6.4605712890625,58.19091796875
1663861900882350300,26.068350341796876,-49.84588623046875,5.2337646484375,56.51092529296875
1663861900902095400,26.088095458984377,-52.74200439453125,5.23223876953125,56.964111328125
1663861900922023200,26.108023193359376,-54.248046875,5.9967041015625,58.03375244140625
1663861900942043000,26.12804296875,-53.1829833984375,5.9844970703125,56.20574951171875
1663861900962001400,26.14800146484375,-54.11224365234375,5.37261962890625,56.048583984375
1663861900981959700,26.167959716796876,-54.1046142578125,5.682373046875,56.66046142578125
1663861901001979400,26.1879794921875,-54.1351318359375,4.31365966796875,56.65283203125
1663861901021968400,26.207968505859377,-53.47442626953125,6.5948486328125,56.512451171875
1663861901041957400,26.227957275390626,-54.89044189453125,4.6173095703125,56.65435791015625
1663861901061976800,26.247976806640626,-54.4158935546875,5.377197265625,56.658935546875
1663861901081935400,26.267935302734376,-53.49884033203125,5.523681640625,55.74493408203125
1663861901101924400,26.28792431640625,-53.06854248046875,4.31671142578125,56.65435791015625
1663861901121913300,26.307913330078126,-52.71759033203125,6.298828125,57.27386474609375
1663861901141902300,26.32790234375,-53.65447998046875,5.36956787109375,55.59234619140625
1663861901161891300,26.347891357421876,-50.61798095703125,4.78057861328125,56.964111328125
1663861901181880300,26.36788037109375,-50.15411376953125,5.08270263671875,56.6619873046875
1663861901201869600,26.38786962890625,-49.8199462890625,6.3018798828125,56.9732666015625
1663861901221858600,26.407858642578127,-46.61712646484375,6.3140869140625,57.586669921875
1663861901241847600,26.42784765625,-45.257568359375,5.58929443359375,61.39373779296875
1663861901261806000,26.44780615234375,-42.7978515625,6.500244140625,60.791015625
1663861901281825500,26.467825439453126,-42.04254150390625,6.201171875,61.09619140625
1663861901301814500,26.487814453125,-39.495849609375,4.2205810546875,59.869384765625
1663861901321803500,26.507803466796876,-36.26861572265625,5.17425537109375,64.1448974609375
1663861901341792500,26.52779248046875,-34.13543701171875,5.1666259765625,62.62359619140625
1663861901361751000,26.5477509765625,-33.13751220703125,2.12554931640625,62.3046875
1663861901381770500,26.5677705078125,-30.81817626953125,3.509521484375,63.53302001953125
1663861901401759500,26.587759521484376,-28.07159423828125,3.6529541015625,61.86065673828125
1663861901421748500,26.60774853515625,-26.4190673828125,2.46124267578125,64.29595947265625
1663861901441737700,26.62773779296875,-24.1912841796875,-0.1251220703125,63.37127685546875
1663861901461726700,26.647726806640627,-22.8057861328125,0.34942626953125,65.3564453125
1663861901481715700,26.6677158203125,-19.03839111328125,-1.617431640625,65.5029296875
1663861901501704700,26.68770458984375,-18.64776611328125,-4.6356201171875,67.92755126953125
1663861901521693700,26.707693603515626,-17.73681640625,-4.78668212890625,67.77496337890625
1663861901541682700,26.7276826171875,-14.70184326171875,-5.3955078125,66.8609619140625
1663861901561671700,26.747671630859376,-13.67950439453125,-7.501220703125,69.2901611328125
1663861901581660700,26.76766064453125,-12.19024658203125,-9.01947021484375,68.98040771484375
1663861901601649700,26.787649658203126,-9.04388427734375,-11.5814208984375,70.79925537109375
1663861901621638700,26.807638671875,-9.51385498046875,-12.05291748046875,69.12078857421875
1663861901641627600,26.827627685546876,-6.4422607421875,-17.81463623046875,69.8577880859375
1663861901661616600,26.84761669921875,-4.77752685546875,-18.4173583984375,70.00885009765625
1663861901681606000,26.86760595703125,-3.44696044921875,-20.23468017578125,70.458984375
1663861901701595000,26.887594970703127,-3.509521484375,-23.101806640625,73.03466796875
1663861901721583900,26.907583984375,-3.1097412109375,-25.68359375,73.0224609375
1663861901741572900,26.92757275390625,-3.89862060546875,-26.76544189453125,71.1883544921875
1663861901761928000,26.947927978515626,-2.716064453125,-28.424072265625,72.39990234375
1663861901781703400,26.967703369140626,-0.6134033203125,-29.7943115234375,71.6339111328125
1663861901801539800,26.987539794921876,-1.72119140625,-31.6162109375,72.08099365234375
1663861901821528800,27.00752880859375,-1.45263671875,-33.27484130859375,73.59771728515625
1663861901841487400,27.0274873046875,-0.23956298828125,-33.5784912109375,73.29254150390625
1663861901861506800,27.0475068359375,-1.3641357421875,-36.0260009765625,71.60186767578125
1663861901881495800,27.067495849609376,-0.9033203125,-35.86883544921875,72.2137451171875
1663861901901484800,27.08748486328125,-0.16021728515625,-36.7767333984375,72.36175537109375
1663861901921474000,27.10747412109375,0.29144287109375,-37.07427978515625,73.1231689453125
