time,seconds_elapsed,z,y,x
1663861875016259600,0.202259521484375,-47.74169921875,7.373046875,2.264404296875
1663861875036248800,0.222248779296875,-47.28546142578125,7.24029541015625,4.3975830078125
1663861875056207000,0.24220703125,-47.44720458984375,6.9183349609375,2.26287841796875
1663861875076226800,0.262226806640625,-47.75848388671875,6.61773681640625,2.71759033203125
1663861875096215800,0.2822158203125,-49.11651611328125,7.2296142578125,3.63311767578125
1663861875116204800,0.302204833984375,-48.33221435546875,8.282470703125,2.1148681640625
1663861875136163300,0.322163330078125,-49.25994873046875,7.672119140625,1.959228515625
1663861875156182800,0.342182861328125,-46.8597412109375,5.9967041015625,1.03912353515625
1663861875176446500,0.362446533203125,-47.26409912109375,8.28857421875,2.57415771484375
1663861875196374500,0.38237451171875,-48.81134033203125,7.35626220703125,0.433349609375
1663861875216180500,0.402180419921875,-48.211669921875,6.90155029296875,0.43182373046875
1663861875236169500,0.42216943359375,-47.49755859375,4.77294921875,0.11749267578125
1663861875256127700,0.442127685546875,-47.4639892578125,6.292724609375,0.1251220703125
1663861875276117000,0.462116943359375,-48.39935302734375,5.37261962890625,-0.48980712890625
1663861875296106000,0.48210595703125,-47.32666015625,5.66864013671875,-1.8585205078125
1663861875316095000,0.502094970703125,-48.37646484375,6.43768310546875,-0.48370361328125
1663861875336084000,0.522083984375,-47.943115234375,5.364990234375,-1.556396484375
1663861875356073000,0.542072998046875,-46.91162109375,3.839111328125,-2.62908935546875
1663861875376062000,0.56206201171875,-48.6297607421875,2.14691162109375,-4.620361328125
1663861875396020500,0.5820205078125,-47.8515625,2.89306640625,-6.4453125
1663861875416040000,0.6020400390625,-46.35467529296875,1.6845703125,-5.99212646484375
1663861875436029000,0.62202880859375,-47.74169921875,0.9368896484375,-4.168701171875
1663861875455987500,0.641987548828125,-48.809814453125,0.92315673828125,-5.5419921875
1663861875476007000,0.6620068359375,-49.26300048828125,1.21002197265625,-7.36846923828125
1663861875495996000,0.681995849609375,-47.57080078125,1.82952880859375,-6.44989013671875
1663861875515985200,0.701985107421875,-47.28851318359375,0.7781982421875,-5.08270263671875
1663861875535974100,0.72197412109375,-49.29351806640625,-0.14801025390625,-6.30950927734375
1663861875555963100,0.741963134765625,-48.5015869140625,1.20849609375,-7.82623291015625
1663861875575952100,0.7619521484375,-48.35968017578125,0.7415771484375,-9.04693603515625
1663861875595941000,0.781941162109375,-46.98333740234375,0.91094970703125,-7.36846923828125
1663861875615930000,0.80193017578125,-47.7630615234375,0.13885498046875,-8.59222412109375
1663861875635919000,0.821919189453125,-46.7132568359375,-0.61187744140625,-7.83233642578125
1663861875655908000,0.841908203125,-48.05145263671875,0.8941650390625,-9.197998046875
1663861875675897000,0.86189697265625,-46.533203125,0.72479248046875,-11.6363525390625
1663861875695886000,0.881885986328125,-46.8902587890625,-1.5625,-12.40997314453125
1663861875715875000,0.901875,-45.79620361328125,-0.35400390625,-13.46893310546875
1663861875735849700,0.921849609375,-46.6064453125,-2.2247314453125,-18.96514892578125
1663861875755991300,0.9419912109375,-46.10748291015625,-0.3936767578125,-18.194580078125
1663861875775858400,0.9618583984375,-43.83544921875,-1.01165771484375,-19.87152099609375
1663861875795817000,0.98181689453125,-41.53900146484375,-0.4364013671875,-24.43695068359375
1663861875815836400,1.00183642578125,-40.338134765625,-1.21002197265625,-26.26800537109375
1663861875835825400,1.021825439453125,-37.48779296875,-3.070068359375,-31.45599365234375
1663861875855784000,1.041783935546875,-34.01947021484375,-4.6173095703125,-35.4217529296875
1663861875875803400,1.061803466796875,-26.812744140625,-2.6611328125,-39.67132568359375
1663861875895792400,1.08179248046875,-22.97210693359375,-1.312255859375,-42.8619384765625
1663861875915781400,1.101781494140625,-21.356201171875,2.777099609375,-44.8211669921875
1663861875935740000,1.121739990234375,-17.78717041015625,5.517578125,-45.2606201171875
1663861875955759400,1.14175927734375,-15.9881591796875,10.84747314453125,-44.317626953125
1663861875975748600,1.16174853515625,-13.89617919921875,15.7073974609375,-45.2056884765625
1663861875995737600,1.181737548828125,-14.3829345703125,21.044921875,-42.89398193359375
1663861876015726600,1.2017265625,-12.80975341796875,23.18267822265625,-42.120361328125
1663861876035685000,1.22168505859375,-13.66119384765625,25.92620849609375,-40.887451171875
1663861876056040200,1.242040283203125,-14.40582275390625,26.68914794921875,-40.42816162109375
1663861876075968300,1.26196826171875,-15.27252197265625,28.68194580078125,-38.13323974609375
1663861876095743700,1.28174365234375,-17.67425537109375,30.3558349609375,-37.213134765625
1663861876115702000,1.301701904296875,-18.0023193359375,29.30145263671875,-36.00006103515625
1663861876135660500,1.32166064453125,-20.62225341796875,28.076171875,-36.4654541015625
1663861876156046300,1.34204638671875,-21.11358642578125,26.55487060546875,-36.62567138671875
1663861876175638500,1.361638427734375,-21.31195068359375,24.58038330078125,-36.4837646484375
1663861876195627800,1.381627685546875,-20.38726806640625,25.030517578125,-37.39471435546875
1663861876215616800,1.40161669921875,-20.82672119140625,25.78887939453125,-37.39166259765625
1663861876235605800,1.421605712890625,-18.36090087890625,27.00653076171875,-37.84027099609375
1663861876255564300,1.441564208984375,-16.05224609375,27.923583984375,-37.6800537109375
1663861876275583700,1.461583740234375,-15.24810791015625,29.75006103515625,-37.6708984375
1663861876295572700,1.48157275390625,-15.5517578125,29.7637939453125,-35.8428955078125
1663861876315561700,1.501561767578125,-14.7430419921875,31.7474365234375,-35.22186279296875
1663861876335520300,1.521520263671875,-13.08746337890625,30.83648681640625,-35.53009033203125
1663861876355539700,1.541539794921875,-13.81988525390625,32.06024169921875,-34.3048095703125
1663861876375528700,1.56152880859375,-13.48724365234375,33.28094482421875,-33.8409423828125
1663861876395517700,1.581517578125,-12.591552734375,32.379150390625,-32.92999267578125
1663861876415537400,1.601537353515625,-12.05291748046875,35.888671875,-31.23626708984375
1663861876435496000,1.621495849609375,-11.9476318359375,33.90350341796875,-32.464599609375
1663861876455485000,1.64148486328125,-12.4664306640625,37.8631591796875,-31.37969970703125
1663861876475474000,1.661473876953125,-14.26239013671875,39.251708984375,-28.47900390625
1663861876495463000,1.681462890625,-12.8875732421875,39.27001953125,-26.64794921875
1663861876515452000,1.701451904296875,-13.1683349609375,40.4632568359375,-29.23431396484375
1663861876535441000,1.72144091796875,-12.87841796875,39.7186279296875,-27.4078369140625
1663861876555430000,1.741429931640625,-12.37640380859375,41.56341552734375,-25.1129150390625
1663861876575419000,1.7614189453125,-13.72528076171875,42.49114990234375,-22.8240966796875
1663861876595408000,1.781407958984375,-11.7340087890625,42.950439453125,-22.97210693359375
1663861876615396900,1.80139697265625,-13.89923095703125,41.58477783203125,-22.21832275390625
1663861876635385900,1.8213857421875,-13.87939453125,42.35382080078125,-21.148681640625
1663861876655374800,1.841374755859375,-14.20440673828125,41.5771484375,-22.98126220703125
1663861876675364000,1.861364013671875,-12.32147216796875,43.87054443359375,-21.90093994140625
1663861876695353000,1.88135302734375,-12.0361328125,42.96875,-20.68634033203125
1663861876715342000,1.901342041015625,-14.92767333984375,43.25103759765625,-22.515869140625
1663861876735331000,1.9213310546875,-11.71112060546875,43.87054443359375,-21.8994140625
1663861876755320000,1.941320068359375,-12.3260498046875,43.58062744140625,-20.07293701171875
1663861876775309000,1.96130908203125,-13.20953369140625,44.82421875,-16.56341552734375
1663861876795298000,1.981298095703125,-13.82293701171875,44.67010498046875,-16.717529296875
1663861876815287000,2.001287109375,-13.95416259765625,45.587158203125,-16.10260009765625
1663861876835276000,2.021276123046875,-15.66925048828125,43.92242431640625,-14.89410400390625
1663861876855265000,2.04126513671875,-17.04559326171875,43.6309814453125,-13.067626953125
1663861876875223600,2.0612236328125,-17.93975830078125,44.54193115234375,-12.9119873046875
1663861876895243000,2.081242919921875,-18.40362548828125,44.2474365234375,-11.6943359375
1663861876915232300,2.101232177734375,-16.39556884765625,45.4498291015625,-13.81988525390625
1663861876935221200,2.12122119140625,-16.40167236328125,45.15380859375,-12.75482177734375
1663861876955576300,2.141576416015625,-17.32940673828125,44.54345703125,-12.9119873046875
1663861876975321300,2.1613212890625,-16.52069091796875,46.661376953125,-14.27154541015625
1663861876995218700,2.18121875,-16.56646728515625,44.55718994140625,-11.3861083984375
1663861877015177200,2.20117724609375,-16.11175537109375,44.5343017578125,-14.2822265625
1663861877035166200,2.221166259765625,-16.56646728515625,44.55413818359375,-11.6912841796875
1663861877055124700,2.241124755859375,-14.72930908203125,44.86541748046875,-11.383056640625
1663861877075144200,2.261144287109375,-16.5557861328125,44.88372802734375,-8.79364013671875
1663861877095133200,2.28113330078125,-13.81683349609375,44.7235107421875,-10.467529296875
1663861877115122200,2.3011220703125,-14.88800048828125,44.44427490234375,-7.11822509765625
1663861877135111200,2.321111083984375,-14.84222412109375,46.29974365234375,-3.4515380859375
1663861877155100400,2.341100341796875,-16.09649658203125,44.64874267578125,-0.7171630859375
1663861877175089400,2.36108935546875,-18.0389404296875,46.3348388671875,1.57470703125
1663861877195078400,2.381078369140625,-19.69451904296875,47.2503662109375,2.49176025390625
1663861877215067400,2.4010673828125,-18.96820068359375,45.7244873046875,1.41754150390625
1663861877235056400,2.421056396484375,-17.90924072265625,45.41015625,0.0457763671875
1663861877255045400,2.44104541015625,-15.60211181640625,46.3134765625,-1.62353515625
1663861877275034400,2.461034423828125,-15.7501220703125,46.4752197265625,-0.40283203125
1663861877295023400,2.4810234375,-14.9871826171875,46.47674560546875,-0.40283203125
1663861877315012400,2.501012451171875,-17.4163818359375,47.06573486328125,-2.0782470703125
1663861877335001300,2.52100146484375,-17.3919677734375,48.1292724609375,-2.07366943359375
1663861877354990300,2.540990234375,-13.89617919921875,47.5433349609375,-0.39520263671875
1663861877374979600,2.5609794921875,-12.982177734375,47.41363525390625,2.04315185546875
1663861877394968600,2.580968505859375,-11.92169189453125,47.11151123046875,2.04315185546875
1663861877414957600,2.60095751953125,-9.91058349609375,48.33526611328125,2.508544921875
1663861877434946600,2.620946533203125,-8.6761474609375,48.95172119140625,3.1219482421875
1663861877454905000,2.640905029296875,-9.05609130859375,45.61920166015625,4.6295166015625
1663861877474924500,2.660924560546875,-7.94677734375,47.44873046875,4.94384765625
1663861877494913500,2.68091357421875,-9.14764404296875,48.34747314453125,3.72772216796875
1663861877514902500,2.700902587890625,-7.7972412109375,47.29766845703125,5.096435546875
1663861877534891500,2.7208916015625,-6.70013427734375,48.66485595703125,4.79888916015625
1663861877554880500,2.740880615234375,-7.19146728515625,47.14813232421875,5.2490234375
1663861877574869500,2.760869384765625,-8.08868408203125,48.03314208984375,2.203369140625
1663861877594858500,2.7808583984375,-8.09783935546875,47.5799560546875,2.50701904296875
1663861877614817000,2.800817138671875,-6.2347412109375,49.0936279296875,1.4495849609375
1663861877634836700,2.820836669921875,-6.8359375,49.54071044921875,0.53558349609375
1663861877654825700,2.84082568359375,-3.94439697265625,49.249267578125,1.300048828125
1663861877674814700,2.860814697265625,-4.70733642578125,49.25079345703125,1.60369873046875
1663861877694788000,2.8807880859375,-5.047607421875,47.72186279296875,0.52947998046875
1663861877714777000,2.900777099609375,-6.97479248046875,50.14801025390625,0.38604736328125
1663861877734766000,2.92076611328125,-7.77130126953125,48.6236572265625,0.0732421875
1663861877754755000,2.940755126953125,-8.55560302734375,47.57537841796875,2.20184326171875
1663861877774744000,2.960744140625,-9.73968505859375,49.2401123046875,1.59912109375
1663861877794733000,2.980733154296875,-10.22491455078125,48.01025390625,0.067138671875
1663861877814722000,3.00072216796875,-7.14874267578125,49.2340087890625,0.23040771484375
1663861877834985700,3.02098583984375,-7.3272705078125,48.0194091796875,0.3753662109375
1663861877854913800,3.040913818359375,-6.42852783203125,47.406005859375,-0.5401611328125
1663861877874689300,3.060689208984375,-5.9661865234375,47.56011962890625,-0.3875732421875
1663861877894708700,3.080708740234375,-6.378173828125,49.5452880859375,0.99334716796875
1663861877914667300,3.100667236328125,-6.2469482421875,48.626708984375,0.07476806640625
1663861877934625800,3.120625732421875,-6.09893798828125,48.47259521484375,-0.23040771484375
1663861877954645200,3.140645263671875,-3.00445556640625,50.44708251953125,-1.13067626953125
1663861877974664700,3.160664794921875,-1.54266357421875,47.58453369140625,1.446533203125
1663861877994653700,3.18065380859375,1.54266357421875,49.2401123046875,-1.2847900390625
1663861878014612200,3.2006123046875,2.25067138671875,46.68731689453125,2.362060546875
1663861878034601200,3.220601318359375,4.74853515625,49.273681640625,2.0721435546875
1663861878054621000,3.240620849609375,5.80902099609375,48.97308349609375,2.0721435546875
1663861878074579500,3.260579345703125,8.5174560546875,47.3236083984375,4.04815673828125
1663861878094568400,3.280568359375,12.92877197265625,46.87652587890625,4.05120849609375
1663861878114588000,3.300587890625,13.99688720703125,46.881103515625,4.35638427734375
1663861878134577000,3.320576904296875,15.20538330078125,46.41571044921875,2.83203125
1663861878154566000,3.34056591796875,17.46368408203125,45.0653076171875,4.351806640625
1663861878174585300,3.36058544921875,21.0845947265625,43.40057373046875,4.34722900390625
1663861878194543900,3.3805439453125,24.72381591796875,42.36602783203125,6.93817138671875
1663861878215082200,3.401082275390625,25.7598876953125,41.0003662109375,6.93206787109375
1663861878234552600,3.420552490234375,28.7567138671875,38.592529296875,8.905029296875
1663861878254480400,3.44048046875,31.2835693359375,35.71624755859375,9.65576171875
1663861878274469400,3.460469482421875,31.3995361328125,34.04998779296875,10.2569580078125
1663861878294458400,3.480458251953125,34.38873291015625,31.33087158203125,11.46697998046875
1663861878314417000,3.5004169921875,37.69073486328125,28.9306640625,14.50653076171875
1663861878334436600,3.5204365234375,38.6810302734375,25.57525634765625,12.6617431640625
1663861878354425600,3.540425537109375,40.76690673828125,23.45428466796875,12.95928955078125
1663861878374414600,3.56041455078125,41.01409912109375,20.87249755859375,13.250732421875
1663861878394403600,3.580403564453125,42.46673583984375,17.6910400390625,13.99993896484375
1663861878414392600,3.600392578125,42.85125732421875,14.4927978515625,13.06915283203125
1663861878434381600,3.620381591796875,44.47784423828125,12.22381591796875,13.9739990234375
1663861878454370600,3.64037060546875,44.1314697265625,10.4034423828125,14.422607421875
1663861878474359600,3.660359619140625,46.79412841796875,6.76116943359375,14.4073486328125
1663861878494348500,3.6803486328125,46.00677490234375,5.6854248046875,13.18206787109375
1663861878514337500,3.700337646484375,43.4906005859375,2.3406982421875,13.6199951171875
1663861878534326800,3.720326904296875,45.42083740234375,0.0579833984375,12.69683837890625
1663861878554285000,3.74028515625,46.4874267578125,0.05950927734375,12.6983642578125
1663861878574304800,3.7603046875,47.528076171875,-1.1474609375,13.4552001953125
1663861878594293800,3.780293701171875,45.2117919921875,-2.38037109375,12.07427978515625
1663861878614282800,3.80028271484375,45.65887451171875,-2.96630859375,14.5111083984375
1663861878634271700,3.820271728515625,45.22857666015625,-1.62200927734375,11.773681640625
1663861878654260700,3.8402607421875,45.58258056640625,0.50811767578125,12.08953857421875
1663861878674249700,3.860249755859375,45.75042724609375,1.13067626953125,13.76953125
1663861878694269200,3.880269287109375,46.70562744140625,2.82135009765625,15.75927734375
1663861878714563600,3.9005634765625,45.068359375,4.6295166015625,14.3951416015625
1663861878734491400,3.920491455078125,45.26519775390625,6.60400390625,14.10064697265625
1663861878754267000,3.940266845703125,45.46356201171875,8.587646484375,15.02532958984375
1663861878774225400,3.960225341796875,44.59381103515625,10.55755615234375,14.57672119140625
1663861878794184000,3.980183837890625,43.10455322265625,12.21466064453125,13.2110595703125
1663861878814173000,4.0001728515625,42.39959716796875,14.66064453125,15.05126953125
1663861878834162000,4.020161865234375,42.3187255859375,17.84210205078125,13.84735107421875
1663861878854151000,4.04015087890625,41.05682373046875,22.70355224609375,14.0228271484375
1663861878874140000,4.060139892578125,39.862060546875,23.90289306640625,12.3504638671875
1663861878894129000,4.08012890625,37.3291015625,26.48162841796875,12.359619140625
1663861878914118000,4.100117919921875,36.8011474609375,30.13153076171875,12.83416748046875
1663861878934107000,4.12010693359375,34.8968505859375,33.6029052734375,10.41107177734375
1663861878954095900,4.140095947265625,33.8531494140625,34.66644287109375,10.7208251953125
1663861878974084900,4.1600849609375,29.80194091796875,37.542724609375,10.4248046875
1663861878994073900,4.180073974609375,25.23193359375,37.82806396484375,9.3536376953125
1663861879014063000,4.20006298828125,23.419189453125,41.93572998046875,9.65118408203125
1663861879034021400,4.220021484375,20.220947265625,42.08526611328125,10.25848388671875
1663861879054041000,4.240041015625,17.19970703125,43.4295654296875,8.12835693359375
1663861879074030000,4.260030029296875,14.06707763671875,46.4691162109375,8.9019775390625
1663861879094019000,4.28001904296875,10.101318359375,46.4447021484375,7.06787109375
1663861879114008000,4.300008056640625,6.439208984375,46.4263916015625,5.6915283203125
1663861879133997000,4.3199970703125,2.67181396484375,48.388671875,5.0872802734375
1663861879153986000,4.339986083984375,-1.1566162109375,47.75543212890625,3.09906005859375
1663861879173975000,4.35997509765625,-4.0740966796875,46.97113037109375,0.8056640625
1663861879193964000,4.379964111328125,-5.4351806640625,47.42431640625,0.80718994140625
1663861879213953000,4.399953125,-9.38720703125,48.14453125,-2.85186767578125
1663861879233942000,4.41994189453125,-12.60986328125,47.23358154296875,-1.94549560546875
1663861879253931300,4.43993115234375,-13.71917724609375,45.40557861328125,-2.25982666015625
1663861879273920300,4.459920166015625,-14.4744873046875,45.703125,-2.71759033203125
1663861879293878800,4.479878662109375,-14.6240234375,45.84808349609375,-3.631591796875
1663861879313898200,4.499898193359375,-16.7755126953125,45.0927734375,-2.41851806640625
1663861879333887200,4.51988720703125,-14.6240234375,45.85723876953125,-2.410888671875
1663861879353876200,4.539876220703125,-14.94598388671875,45.0927734375,-2.87322998046875
1663861879373865200,4.559865234375,-14.77203369140625,46.0113525390625,-2.25830078125
1663861879393854200,4.579854248046875,-12.78228759765625,46.32720947265625,-1.3397216796875
1663861879413843200,4.59984326171875,-13.57269287109375,45.10955810546875,-1.34735107421875
1663861879433832200,4.619832275390625,-12.17803955078125,46.02508544921875,-1.18865966796875
1663861879453821200,4.6398212890625,-14.7613525390625,46.4691162109375,-1.95159912109375
1663861879473810200,4.65981005859375,-15.69976806640625,45.53680419921875,-4.24346923828125
1663861879493799400,4.67979931640625,-14.61334228515625,46.3134765625,-2.40936279296875
1663861879513788400,4.699788330078125,-14.1754150390625,45.53985595703125,-4.241943359375
1663861879533777400,4.71977734375,-13.555908203125,45.855712890625,-2.86712646484375
1663861879553766400,4.739766357421875,-13.57421875,45.0958251953125,-2.8717041015625
1663861879573755400,4.75975537109375,-13.72833251953125,44.952392578125,-1.95770263671875
1663861879593744400,4.779744384765625,-12.30316162109375,47.36785888671875,-4.229736328125
1663861879614069000,4.800069091796875,-12.3443603515625,45.54290771484375,-4.2388916015625
1663861879633844500,4.819844482421875,-11.58447265625,45.40252685546875,-3.01971435546875
1663861879653711400,4.83971142578125,-12.603759765625,47.528076171875,-3.01055908203125
1663861879673700400,4.859700439453125,-12.60986328125,47.22747802734375,-2.7069091796875
1663861879693689300,4.879689453125,-10.37445068359375,44.9554443359375,-2.25830078125
1663861879713678300,4.89967822265625,-10.16693115234375,47.38006591796875,-3.16162109375
1663861879733667600,4.91966748046875,-12.00714111328125,46.9268798828125,-2.40325927734375
1663861879753656600,4.939656494140625,-9.24835205078125,47.53570556640625,-3.00750732421875
1663861879773645600,4.9596455078125,-8.81195068359375,46.62933349609375,-2.4017333984375
1663861879793634600,4.979634521484375,-8.013916015625,48.15673828125,-1.78375244140625
1663861879813623600,4.99962353515625,-3.582763671875,48.480224609375,-0.55694580078125
1663861879833612500,5.019612548828125,-0.97503662109375,49.10736083984375,1.12457275390625
1663861879853601500,5.0396015625,0.4913330078125,46.527099609375,1.1138916015625
1663861879873621000,5.05962109375,1.77459716796875,49.27520751953125,2.34832763671875
1663861879893579500,5.07957958984375,5.5908203125,49.44000244140625,2.9632568359375
1663861879913568500,5.099568603515625,7.36236572265625,46.87042236328125,4.0191650390625
1663861879933557500,5.1195576171875,10.2783203125,47.64404296875,5.0933837890625
1663861879953546800,5.139546630859375,12.2161865234375,45.67108154296875,4.93316650390625
1663861879973535700,5.15953564453125,14.19525146484375,45.52764892578125,5.3924560546875
1663861879993524700,5.179524658203125,16.93572998046875,45.24383544921875,7.06939697265625
1663861880013513700,5.199513671875,20.25604248046875,43.73626708984375,7.6751708984375
1663861880033472300,5.21947216796875,21.00982666015625,43.29376220703125,9.04541015625
1663861880053491700,5.23949169921875,25.35552978515625,39.825439453125,11.32049560546875
1663861880073480700,5.259480712890625,28.35235595703125,37.5518798828125,11.1602783203125
1663861880093469700,5.2794697265625,31.39190673828125,36.968994140625,13.446044921875
1663861880113458700,5.299458740234375,31.964111328125,35.3057861328125,14.35394287109375
1663861880133447700,5.31944775390625,34.01947021484375,31.81915283203125,14.79644775390625
1663861880153436700,5.339436767578125,36.14501953125,31.37054443359375,15.10009765625
1663861880173425700,5.35942578125,36.97509765625,27.58941650390625,17.06390380859375
1663861880193415000,5.379414794921875,38.74664306640625,25.0030517578125,16.44439697265625
1663861880213404000,5.39940380859375,41.42913818359375,22.27783203125,16.8914794921875
1663861880233393000,5.419392822265625,40.4449462890625,19.232177734375,16.41693115234375
1663861880253382000,5.4393818359375,41.76788330078125,17.10052490234375,15.6463623046875
1663861880273371000,5.459370849609375,42.7947998046875,15.28778076171875,16.705322265625
1663861880293359900,5.47935986328125,43.963623046875,13.01422119140625,16.99981689453125
1663861880313348900,5.499348876953125,44.964599609375,10.1226806640625,16.37725830078125
1663861880333337900,5.519337890625,43.5821533203125,9.661865234375,16.06903076171875
1663861880353326800,5.539326904296875,45.6756591796875,7.84912109375,16.8243408203125
1663861880373315800,5.55931591796875,44.68536376953125,4.49676513671875,16.04461669921875
1663861880393304800,5.579304931640625,44.34661865234375,2.98309326171875,16.95098876953125
1663861880413293800,5.5992939453125,46.64154052734375,3.4210205078125,14.21356201171875
1663861880433283000,5.619282958984375,46.0052490234375,2.2247314453125,16.64581298828125
1663861880453272000,5.63927197265625,45.80841064453125,0.250244140625,16.7877197265625
1663861880473261000,5.659260986328125,45.35980224609375,0.69427490234375,15.570068359375
1663861880493524700,5.679524658203125,45.32928466796875,-0.677490234375,15.106201171875
1663861880513452500,5.69945263671875,44.74334716796875,0.38604736328125,15.11077880859375
1663861880533228000,5.71922802734375,46.4508056640625,1.751708984375,14.50958251953125
1663861880553217000,5.739217041015625,45.89080810546875,3.8909912109375,16.0430908203125
1663861880573206000,5.7592060546875,45.89080810546875,3.8909912109375,16.0430908203125
1663861880593195000,5.779195068359375,45.013427734375,5.55877685546875,15.74554443359375
1663861880613184000,5.79918408203125,44.7357177734375,6.7718505859375,15.44647216796875
1663861880633173000,5.819173095703125,44.21844482421875,10.870361328125,15.1611328125
1663861880653162000,5.839161865234375,44.2779541015625,13.46435546875,16.39404296875
1663861880673151200,5.859151123046875,43.2586669921875,15.58380126953125,15.6402587890625
1663861880693140200,5.87914013671875,42.40570068359375,18.3197021484375,15.8050537109375
1663861880713129200,5.899129150390625,41.5283203125,19.97833251953125,14.593505859375
1663861880733118200,5.9191181640625,40.9454345703125,21.197509765625,15.05584716796875
1663861880753076700,5.93907666015625,39.3524169921875,24.847412109375,15.83404541015625
1663861880773096200,5.95909619140625,37.115478515625,27.11334228515625,14.776611328125
1663861880793085200,5.979085205078125,35.1898193359375,29.681396484375,13.41552734375
1663861880813074200,5.99907421875,33.26263427734375,32.10601806640625,12.9669189453125
1663861880833063200,6.019063232421875,32.257080078125,34.96246337890625,9.62677001953125
1663861880853052200,6.03905224609375,31.09283447265625,37.39776611328125,10.247802734375
1663861880873041200,6.059041259765625,27.4566650390625,38.44146728515625,8.7249755859375
1663861880893030100,6.079030029296875,24.5880126953125,39.78424072265625,6.5948486328125
1663861880913019400,6.099019287109375,22.503662109375,42.0562744140625,6.146240234375
1663861880933008400,6.11900830078125,19.4854736328125,43.42498779296875,7.06329345703125
1663861880952997400,6.138997314453125,16.95098876953125,45.98846435546875,5.24444580078125
1663861880972986400,6.158986328125,12.21466064453125,45.66497802734375,4.1717529296875
1663861880992975400,6.178975341796875,9.66339111328125,47.47772216796875,3.4149169921875
1663861881012964400,6.19896435546875,7.23114013671875,47.77984619140625,3.87115478515625
1663861881032953300,6.218953369140625,-1.90277099609375,48.5076904296875,2.3406982421875
1663861881052942300,6.2389423828125,-4.04052734375,48.48480224609375,0.0518798828125
1663861881072931300,6.258931396484375,-5.40618896484375,48.7823486328125,-0.2532958984375
1663861881092920300,6.27892041015625,-8.65325927734375,46.7987060546875,-0.41961669921875
1663861881112909300,6.298909423828125,-8.63494873046875,47.564697265625,0.34637451171875
1663861881132898600,6.318898681640625,-10.16693115234375,47.38311767578125,-2.8564453125
1663861881152887600,6.338887451171875,-11.083984375,47.2412109375,-1.4862060546875
1663861881172876500,6.35887646484375,-11.9964599609375,47.38311767578125,-2.4017333984375
1663861881192865500,6.378865478515625,-11.248779296875,46.6400146484375,-0.57525634765625
1663861881212854500,6.3988544921875,-9.7198486328125,46.7987060546875,-0.115966796875
1663861881232843500,6.418843505859375,-11.56768798828125,46.0357666015625,-0.12054443359375
1663861881252832500,6.43883251953125,-12.1368408203125,47.8485107421875,-1.17950439453125
1663861881272821500,6.458821533203125,-11.07025146484375,47.8546142578125,-0.87432861328125
1663861881292810500,6.478810546875,-11.56768798828125,46.0357666015625,-0.12054443359375
1663861881312799500,6.498799560546875,-10.79559326171875,46.4813232421875,-1.4892578125
1663861881332788500,6.51878857421875,-12.310791015625,46.93756103515625,-1.031494140625
1663861881352777500,6.538777587890625,-11.55242919921875,46.7742919921875,-2.70843505859375
1663861881373102300,6.559102294921875,-11.70806884765625,46.63238525390625,-1.33819580078125
1663861881393030100,6.579030029296875,-12.6434326171875,45.71380615234375,-1.953125
1663861881412805600,6.5988056640625,-13.0889892578125,46.3134765625,-2.8656005859375
1663861881432764200,6.61876416015625,-12.78076171875,46.337890625,0.030517578125
1663861881452722700,6.63872265625,-11.9903564453125,47.6837158203125,-2.8564453125
1663861881472711700,6.658711669921875,-13.22021484375,47.222900390625,-3.01361083984375
1663861881492700700,6.67870068359375,-11.67449951171875,48.13995361328125,-2.85491943359375
1663861881512689700,6.698689697265625,-12.0361328125,45.57037353515625,-1.03912353515625
1663861881532678700,6.7186787109375,-10.003662109375,47.84088134765625,-2.7008056640625
1663861881552667600,6.738667724609375,-10.009765625,47.5433349609375,-1.94091796875
1663861881572656600,6.75865673828125,-10.78033447265625,47.235107421875,-2.24761962890625
1663861881592645600,6.778645751953125,-9.246826171875,47.55096435546875,-1.177978515625
1663861881612635000,6.798634765625,-7.45086669921875,46.0357666015625,-1.18408203125
1663861881632623900,6.818623779296875,-4.82025146484375,47.723388671875,0.04730224609375
1663861881652582400,6.83858251953125,-1.1474609375,48.199462890625,1.5777587890625
1663861881672601900,6.858601806640625,-0.5157470703125,49.11956787109375,2.49786376953125
1663861881692590800,6.8785908203125,1.5838623046875,47.60894775390625,2.94952392578125
1663861881712579800,6.898579833984375,4.779052734375,47.3052978515625,2.18963623046875
1663861881732568800,6.91856884765625,7.53021240234375,47.4822998046875,4.47998046875
1663861881752527400,6.93852734375,7.2418212890625,48.2452392578125,4.9407958984375
1663861881772546800,6.958546875,12.52899169921875,45.98541259765625,6.00128173828125
1663861881792535800,6.978535888671875,14.202880859375,45.83587646484375,5.8502197265625
1663861881812524800,6.99852490234375,17.67425537109375,44.18792724609375,7.8277587890625
1663861881832513800,7.018513671875,18.2952880859375,44.6533203125,8.89739990234375
1663861881852503000,7.0385029296875,22.03369140625,41.32537841796875,9.7991943359375
1663861881872492000,7.058491943359375,22.796630859375,41.3360595703125,10.8673095703125
1663861881892450600,7.078450439453125,24.609375,40.58685302734375,11.627197265625
1663861881912470000,7.098469970703125,27.27508544921875,37.09259033203125,11.15570068359375
1663861881932459000,7.118458984375,31.36749267578125,35.91156005859375,14.202880859375
1663861881952448000,7.138447998046875,33.1390380859375,33.33587646484375,14.64996337890625
1663861881972437000,7.15843701171875,34.332275390625,32.122802734375,14.7979736328125
1663861881992426000,7.178426025390625,35.18524169921875,29.39300537109375,15.24200439453125
1663861882012415000,7.1984150390625,36.7950439453125,26.36871337890625,16.6015625
1663861882032404000,7.218404052734375,40.57464599609375,24.99237060546875,14.617919921875
1663861882052393000,7.23839306640625,41.87774658203125,21.82769775390625,17.498779296875
1663861882072382000,7.2583818359375,40.7745361328125,20.29876708984375,16.72821044921875
1663861882092371200,7.27837109375,42.53082275390625,17.10205078125,15.64788818359375
1663861882112360200,7.298360107421875,43.54095458984375,14.532470703125,17.0074462890625
1663861882132318700,7.318318603515625,43.22967529296875,14.23187255859375,17.46368408203125
1663861882152338200,7.338338134765625,44.3634033203125,10.43853759765625,17.90313720703125
1663861882172327200,7.3583271484375,45.2484130859375,9.07440185546875,18.20220947265625
1663861882192316200,7.378316162109375,44.9493408203125,9.50164794921875,14.85137939453125
1663861882212305200,7.39830517578125,46.0723876953125,5.120849609375,17.72613525390625
1663861882232324600,7.41832470703125,44.99053955078125,4.5074462890625,17.26531982421875
1663861882252283100,7.438283203125,45.42694091796875,3.5919189453125,16.650390625
1663861882272608000,7.45860791015625,45.29571533203125,4.50439453125,16.80755615234375
1663861882292383200,7.47838330078125,44.2138671875,3.8909912109375,16.49932861328125
1663861882312250400,7.49825048828125,46.21124267578125,4.510498046875,17.266845703125
1663861882332269800,7.518269775390625,45.00732421875,5.26123046875,16.5069580078125
1663861882352228400,7.538228271484375,45.78857421875,6.16302490234375,15.1397705078125
1663861882372247800,7.558247802734375,44.98291015625,4.19921875,16.8060302734375
1663861882392206300,7.578206298828125,44.91729736328125,7.99560546875,16.36810302734375
1663861882412195300,7.5981953125,45.1080322265625,9.6710205078125,16.83349609375
1663861882432184300,7.618184326171875,44.9951171875,11.35406494140625,18.212890625
1663861882452173300,7.63817333984375,42.15087890625,13.7664794921875,16.69769287109375
1663861882472162300,7.658162353515625,44.34356689453125,16.3482666015625,15.95001220703125
1663861882492151300,7.6781513671875,43.79730224609375,19.0887451171875,16.57257080078125
1663861882512109800,7.69810986328125,40.478515625,20.74127197265625,15.20538330078125
1663861882532129300,7.71812939453125,38.99993896484375,22.857666015625,14.14794921875
1663861882552118500,7.738118408203125,38.77105712890625,26.20086669921875,14.1632080078125
1663861882572107500,7.758107421875,37.7349853515625,27.5665283203125,14.1693115234375
1663861882592096500,7.778096435546875,35.83221435546875,31.05316162109375,13.726806640625
1663861882612055000,7.798054931640625,32.3333740234375,31.488037109375,12.04833984375
1663861882632074500,7.818074462890625,30.14984130859375,36.0443115234375,12.22076416015625
1663861882652063500,7.8380634765625,27.58026123046875,37.09564208984375,11.46087646484375
1663861882672052500,7.858052490234375,25.65155029296875,39.51568603515625,10.55755615234375
1663861882692041500,7.87804150390625,24.6185302734375,41.0247802734375,9.49554443359375
1663861882712030500,7.898030517578125,20.98846435546875,42.37823486328125,8.7371826171875
1663861882732019500,7.91801953125,18.56842041015625,43.2830810546875,8.43353271484375
1663861882752008400,7.938008544921875,15.40985107421875,45.24078369140625,7.06787109375
1663861882771997400,7.95799755859375,13.26141357421875,44.6258544921875,6.75811767578125
1663861882791986700,7.977986572265625,8.11920166015625,46.5789794921875,5.389404296875
1663861882811975700,7.9979755859375,5.706787109375,47.77984619140625,4.1748046875
1663861882831964700,8.017964599609375,2.49786376953125,47.46856689453125,4.168701171875
1663861882851953700,8.03795361328125,-0.27923583984375,46.0906982421875,3.5491943359375
1663861882871942700,8.057942626953125,-3.60565185546875,47.43194580078125,1.2664794921875
1663861882891931600,8.077931640625,-5.3955078125,49.23858642578125,-0.250244140625
1663861882911920600,8.097920654296875,-7.09228515625,48.3306884765625,0.65765380859375
1663861882931909600,8.11790966796875,-8.03070068359375,47.39990234375,-1.32904052734375
1663861882951898600,8.137898681640625,-12.79144287109375,45.87249755859375,-1.03759765625
1663861882971887600,8.1578876953125,-12.6434326171875,45.71380615234375,-1.953125
1663861882991876600,8.177876708984375,-11.70654296875,46.6400146484375,-0.57525634765625
1663861883011865600,8.197865478515626,-13.232421875,46.76055908203125,-3.77655029296875
1663861883031854800,8.217854736328125,-11.84539794921875,47.2412109375,-1.18255615234375
1663861883051843800,8.23784375,-12.6190185546875,46.7864990234375,-0.88043212890625
1663861883071802400,8.25780224609375,-12.3260498046875,46.31195068359375,-3.16925048828125
1663861883091821800,8.27782177734375,-13.83514404296875,46.93450927734375,-1.0345458984375
1663861883111810800,8.297810791015625,-11.5325927734375,47.5555419921875,-0.11444091796875
1663861883131799800,8.3177998046875,-13.71002197265625,45.7275390625,-0.1251220703125
1663861883152033000,8.338032958984375,-13.53607177734375,46.63543701171875,-0.57830810546875
1663861883171960800,8.3579609375,-13.7176513671875,45.41168212890625,-1.4984130859375
1663861883191797200,8.37779736328125,-13.25836181640625,45.42083740234375,-0.4302978515625
1663861883211755800,8.397755859375,-14.62249755859375,45.86944580078125,-1.0406494140625
1663861883231775500,8.417775390625,-14.90325927734375,46.923828125,-2.1026611328125
1663861883251733800,8.437733642578126,-14.02587890625,45.3857421875,-4.547119140625
1663861883271723000,8.457722900390625,-14.77813720703125,45.709228515625,-1.95465087890625
1663861883291712000,8.4777119140625,-13.2476806640625,46.01593017578125,-1.95159912109375
1663861883311701000,8.497700927734375,-15.04974365234375,47.2259521484375,-2.25372314453125
1663861883331690000,8.51768994140625,-12.1612548828125,46.78192138671875,-1.4892578125
1663861883351648500,8.5376484375,-11.7156982421875,46.319580078125,-2.40631103515625
1663861883371668000,8.55766796875,-10.31951904296875,47.26104736328125,0.64849853515625
1663861883391657000,8.577656982421875,-7.41729736328125,47.54791259765625,-1.9378662109375
1663861883411646000,8.59764599609375,-6.390380859375,45.733642578125,-1.18408203125
1663861883431635000,8.617635009765625,-4.49981689453125,48.33984375,1.116943359375
1663861883451624000,8.6376240234375,2.95562744140625,47.607421875,2.4932861328125
1663861883471613000,8.657613037109375,5.41229248046875,48.24066162109375,4.937744140625
1663861883491602000,8.677601806640626,8.42437744140625,46.57440185546875,4.78057861328125
1663861883511591200,8.697591064453125,10.9100341796875,48.5687255859375,6.317138671875
1663861883531580200,8.717580078125,12.5396728515625,46.44317626953125,6.30950927734375
1663861883551569200,8.737569091796875,16.6168212890625,44.63958740234375,7.52410888671875
1663861883571558100,8.75755810546875,18.88427734375,43.74237060546875,8.74176025390625
1663861883591547100,8.777547119140625,22.05657958984375,42.38128662109375,8.73870849609375
1663861883611536100,8.7975361328125,24.93133544921875,41.3360595703125,10.260009765625
1663861883631525000,8.817525146484375,27.18353271484375,39.82391357421875,10.56060791015625
1663861883651514000,8.83751416015625,29.4525146484375,38.92669677734375,11.7767333984375
1663861883671472600,8.85747265625,31.37359619140625,36.2060546875,13.1378173828125
1663861883691492000,8.8774921875,34.3292236328125,32.098388671875,11.749267578125
1663861883711481000,8.897481201171875,36.883544921875,30.3070068359375,15.0970458984375
1663861883731470300,8.91747021484375,38.50555419921875,27.8778076171875,14.93377685546875
1663861883751459300,8.937459228515625,38.7176513671875,23.90594482421875,12.322998046875
1663861883771448300,8.9574482421875,42.93212890625,21.35467529296875,15.21148681640625
1663861883791437300,8.977437255859375,41.815185546875,19.22149658203125,14.8956298828125
1663861883811426300,8.99742626953125,44.64111328125,16.0430908203125,15.64483642578125
1663861883831384800,9.017384765625,43.67218017578125,13.6199951171875,16.85028076171875
1663861883851404300,9.037404296875,45.27740478515625,10.55755615234375,13.78936767578125
1663861883871393300,9.057393310546875,44.47479248046875,8.73870849609375,14.5416259765625
1663861883891382300,9.07738232421875,45.0653076171875,7.83843994140625,15.75775146484375
1663861883911371300,9.097371337890625,45.770263671875,5.39093017578125,13.76495361328125
1663861883931391000,9.117390869140625,45.61614990234375,5.2490234375,14.98260498046875
1663861883951349200,9.137349365234375,45.5657958984375,3.11279296875,13.90533447265625
1663861883971338500,9.15733837890625,45.5322265625,1.6021728515625,14.96429443359375
1663861883991327500,9.177327392578125,45.3704833984375,1.14593505859375,15.1153564453125
1663861884011316500,9.19731640625,45.83892822265625,1.6082763671875,15.72723388671875
1663861884031641000,9.21764111328125,44.72503662109375,-0.37994384765625,14.49737548828125
1663861884051569200,9.237569091796875,45.49102783203125,-0.2288818359375,14.1937255859375
1663861884071314000,9.25731396484375,46.15936279296875,2.36053466796875,14.66522216796875
1663861884091272400,9.2772724609375,46.4935302734375,3.58428955078125,15.5853271484375
1663861884111261400,9.297261474609375,46.81549072265625,4.34722900390625,15.89508056640625
1663861884131250400,9.31725048828125,45.16143798828125,5.3924560546875,14.068603515625
1663861884151239400,9.337239501953125,44.7357177734375,6.77642822265625,16.05682373046875
1663861884171228400,9.357228515625,44.15283203125,7.9803466796875,14.84222412109375
1663861884191217400,9.377217529296875,44.39239501953125,11.785888671875,15.47088623046875
1663861884211206700,9.39720654296875,44.0948486328125,12.091064453125,15.777587890625
1663861884231195600,9.417195556640625,43.25103759765625,15.2740478515625,14.8773193359375
1663861884251184600,9.4371845703125,43.15185546875,17.5628662109375,16.107177734375
1663861884271143200,9.45714306640625,40.753173828125,19.50836181640625,13.06610107421875
1663861884291162600,9.47716259765625,40.6646728515625,22.26104736328125,15.0604248046875
1663861884311151600,9.497151611328125,39.8223876953125,25.4425048828125,14.16168212890625
1663861884331140600,9.517140625,39.39208984375,26.654052734375,13.71002197265625
1663861884351129600,9.537129638671875,36.3250732421875,32.7117919921875,12.05902099609375
1663861884371118600,9.55711865234375,34.36431884765625,33.6212158203125,12.21466064453125
1663861884391107600,9.577107666015625,32.53936767578125,33.91571044921875,11.45172119140625
1663861884411096600,9.5970966796875,29.08935546875,36.47918701171875,9.9365234375
1663861884431055000,9.61705517578125,27.29034423828125,37.84027099609375,9.63592529296875
1663861884451074800,9.63707470703125,24.43389892578125,39.6514892578125,8.87908935546875
1663861884471063800,9.657063720703125,22.0672607421875,42.96722412109375,6.15081787109375
1663861884491052800,9.677052734375,18.2525634765625,42.82073974609375,7.8216552734375
1663861884511041800,9.697041748046875,16.1468505859375,44.16961669921875,5.9967041015625
1663861884531030800,9.71703076171875,14.46685791015625,44.0185546875,6.60400390625
1663861884551019800,9.737019775390625,11.1724853515625,46.73309326171875,4.937744140625
1663861884571008800,9.7570087890625,7.66143798828125,46.5667724609375,4.01763916015625
1663861884590997800,9.776997802734375,5.27801513671875,49.13177490234375,2.50396728515625
1663861884610986800,9.79698681640625,0.99029541015625,48.22540283203125,4.17022705078125
1663861884630975700,9.816975830078125,-1.593017578125,48.67095947265625,3.55987548828125
1663861884650964700,9.83696484375,-2.82135009765625,48.35205078125,2.18658447265625
1663861884670953700,9.85695361328125,-7.89337158203125,46.527099609375,3.2379150390625
1663861884690943000,9.87694287109375,-9.2437744140625,47.57537841796875,1.7181396484375
1663861884710932000,9.896931884765625,-12.01629638671875,46.356201171875,2.01416015625
1663861884730921000,9.9169208984375,-13.702392578125,46.02813720703125,-0.42877197265625
1663861884750910000,9.936909912109375,-14.154052734375,46.33026123046875,-0.579833984375
1663861884770899000,9.95689892578125,-14.007568359375,46.0296630859375,-0.12359619140625
1663861884790888000,9.976887939453125,-14.15252685546875,46.3348388671875,0.02899169921875
1663861884810877000,9.996876953125,-14.93377685546875,45.56427001953125,-1.04217529296875
1663861884830835500,10.01683544921875,-14.1693115234375,45.57952880859375,0.48370361328125
1663861884850855000,10.03685498046875,-13.6505126953125,48.31695556640625,0.6500244140625
1663861884870844000,10.056843994140625,-13.726806640625,44.964599609375,-0.433349609375
1663861884890833000,10.0768330078125,-13.24462890625,46.03271484375,-0.12359619140625
1663861884910822100,10.096822265625,-13.0859375,46.3348388671875,-0.274658203125
1663861884931146800,10.117146728515625,-14.74151611328125,47.25494384765625,1.10015869140625
1663861884950922200,10.136922119140625,-14.91546630859375,46.331787109375,-0.27618408203125
1663861884970789000,10.1567890625,-12.9425048828125,46.0174560546875,-1.95159912109375
1663861884990778000,10.176778076171875,-14.0228271484375,45.41015625,-1.4984130859375
1663861885010767000,10.19676708984375,-12.79144287109375,45.880126953125,-0.27618408203125
1663861885030756000,10.216756103515625,-14.86968994140625,48.4466552734375,-1.78985595703125
1663861885050745000,10.2367451171875,-14.605712890625,46.62322998046875,-1.79901123046875
1663861885070703600,10.25670361328125,-12.77618408203125,46.6217041015625,-2.40631103515625
1663861885090723000,10.27672314453125,-12.1429443359375,47.55401611328125,-0.11444091796875
1663861885110712000,10.296712158203125,-10.64605712890625,46.34246826171875,0.0335693359375
1663861885130701000,10.316701171875,-11.23199462890625,47.406005859375,0.03814697265625
1663861885150720800,10.336720703125,-8.941650390625,47.55401611328125,-0.872802734375
1663861885170679300,10.35667919921875,-5.88531494140625,47.73101806640625,1.26495361328125
1663861885190668300,10.376668212890625,-4.827880859375,47.41668701171875,-0.2593994140625
1663861885210657300,10.3966572265625,-1.30767822265625,47.89581298828125,1.72882080078125
1663861885230646300,10.416646240234375,0.69732666015625,48.82659912109375,3.411865234375
1663861885250635300,10.43663525390625,3.76129150390625,49.4415283203125,3.570556640625
1663861885270624300,10.456624267578125,6.744384765625,46.4263916015625,5.69305419921875
1663861885290613200,10.47661328125,8.43353271484375,46.9024658203125,7.67822265625
1663861885310602200,10.496602294921875,12.2344970703125,46.44775390625,6.7657470703125
1663861885330591200,10.51659130859375,15.70587158203125,44.7906494140625,7.6751708984375
1663861885350580200,10.536580322265625,17.97943115234375,44.18792724609375,7.8277587890625
1663861885370569200,10.5565693359375,19.19708251953125,44.049072265625,9.0484619140625
1663861885390558500,10.576558349609375,22.49755859375,41.6351318359375,10.25848388671875
1663861885410547500,10.59654736328125,24.93896484375,41.64886474609375,11.328125
1663861885430536400,10.616536376953125,27.60772705078125,38.3056640625,10.70556640625
1663861885450525400,10.636525390625,28.04107666015625,37.1185302734375,14.0533447265625
1663861885470514400,10.656514404296875,30.11932373046875,34.68475341796875,13.28125
1663861885490503400,10.67650341796875,32.171630859375,31.0455322265625,13.7237548828125
1663861885510492400,10.696492431640625,33.96148681640625,29.23431396484375,14.78271484375
1663861885530481400,10.7164814453125,37.12921142578125,27.72216796875,14.7796630859375
1663861885550470400,10.736470458984375,39.6484375,24.52850341796875,14.0045166015625
1663861885570459400,10.75645947265625,38.958740234375,21.03424072265625,14.1387939453125
1663861885590448400,10.776448486328125,40.89813232421875,19.06890869140625,15.045166015625
1663861885610407000,10.796406982421875,41.6534423828125,18.77288818359375,15.80657958984375
1663861885630426600,10.816426513671875,42.2332763671875,17.40570068359375,15.64788818359375
1663861885650415600,10.83641552734375,44.39239501953125,11.785888671875,15.47088623046875
1663861885670404600,10.856404541015625,44.219970703125,10.8856201171875,16.99066162109375
1663861885690393600,10.8763935546875,44.0155029296875,8.59832763671875,16.064453125
1663861885710382600,10.896382568359375,43.84765625,7.98187255859375,15.14739990234375
1663861885730371600,10.91637158203125,45.49102783203125,6.4605712890625,14.53094482421875
1663861885750360600,10.936360595703125,46.50421142578125,4.04052734375,15.58837890625
1663861885770349600,10.956349609375,45.74737548828125,4.3365478515625,14.82696533203125
1663861885790338600,10.976338623046875,46.47979736328125,2.972412109375,15.12451171875
1663861885810571800,10.99657177734375,46.1669921875,2.6641845703125,14.666748046875
1663861885830499800,11.016499755859375,46.61102294921875,2.06298828125,15.42510986328125
1663861885850305500,11.036305419921876,44.7509765625,0.70037841796875,16.33148193359375
1663861885870294800,11.056294677734375,45.97930908203125,1.14593505859375,14.8101806640625
1663861885890283800,11.07628369140625,44.81048583984375,3.28369140625,16.34368896484375
1663861885910272800,11.096272705078125,45.41015625,2.95562744140625,13.29498291015625
1663861885930261800,11.11626171875,45.15380859375,5.08575439453125,13.76190185546875
1663861885950250800,11.136250732421875,45.80535888671875,6.91375732421875,14.0777587890625
1663861885970239700,11.15623974609375,45.21331787109375,7.67669677734375,14.53704833984375
1663861885990259200,11.17625927734375,43.896484375,10.107421875,14.8529052734375
1663861886010217700,11.1962177734375,44.37713623046875,11.03668212890625,16.839599609375
1663861886030206700,11.216206787109375,43.2159423828125,13.7542724609375,14.86968994140625
1663861886050195700,11.23619580078125,43.5791015625,16.33148193359375,14.1204833984375
1663861886070184700,11.256184814453125,41.63665771484375,18.01300048828125,15.80352783203125
1663861886090174000,11.276174072265626,41.21246337890625,19.525146484375,14.8956298828125
1663861886110163000,11.296162841796875,40.0634765625,22.5677490234375,15.6707763671875
1663861886130152000,11.31615185546875,38.12255859375,24.51934814453125,13.24005126953125
1663861886150141000,11.336140869140625,35.75439453125,27.69775390625,12.18719482421875
1663861886170130000,11.3561298828125,36.1175537109375,30.28106689453125,12.19940185546875
1663861886190088400,11.37608837890625,34.77020263671875,31.34918212890625,12.96539306640625
1663861886210108000,11.39610791015625,33.48388671875,35.1409912109375,12.37335205078125
1663861886230097000,11.416096923828125,30.32073974609375,36.944580078125,10.85357666015625
1663861886250086000,11.4360859375,28.04718017578125,37.55035400390625,11.15875244140625
1663861886270075000,11.456074951171875,25.9735107421875,40.27099609375,9.7991943359375
1663861886290064000,11.47606396484375,24.6246337890625,41.32232666015625,8.73565673828125
1663861886310052900,11.496052978515625,20.11566162109375,44.20166015625,8.89739990234375
1663861886330042000,11.5160419921875,18.74237060546875,44.19708251953125,8.5906982421875
1663861886350031000,11.536031005859375,15.72113037109375,45.5413818359375,6.6131591796875
1663861886370020000,11.55602001953125,14.0380859375,45.23468017578125,6.76116943359375
1663861886389978600,11.575978515625,8.599853515625,47.49908447265625,6.30950927734375
1663861886409998000,11.595998046875,6.17523193359375,48.2391357421875,4.48150634765625
1663861886429987000,11.615987060546875,3.71246337890625,47.314453125,3.55987548828125
1663861886449976000,11.63597607421875,0.05950927734375,47.60589599609375,2.947998046875
1663861886469965000,11.655965087890625,-3.0059814453125,46.97265625,0.80718994140625
1663861886489954000,11.6759541015625,-4.3365478515625,48.8067626953125,2.33917236328125
1663861886509943000,11.695943115234375,-7.867431640625,47.86376953125,-0.41351318359375
1663861886529932000,11.71593212890625,-9.26513671875,46.78802490234375,-1.4862060546875
1663861886549921000,11.735921142578125,-11.25030517578125,46.62933349609375,-1.79443359375
1663861886569910300,11.75591015625,-13.8427734375,46.624755859375,-1.7974853515625
1663861886589899300,11.775899169921875,-11.71417236328125,46.3287353515625,-1.3397216796875
1663861886609888300,11.79588818359375,-12.31231689453125,46.9207763671875,-3.16619873046875
1663861886629877200,11.815877197265625,-12.9547119140625,45.4132080078125,-1.49688720703125
1663861886649866200,11.8358662109375,-12.33673095703125,45.8587646484375,-2.8656005859375
1663861886669855200,11.855855224609375,-12.96539306640625,44.95391845703125,-1.95770263671875
1663861886690149400,11.8761494140625,-13.7115478515625,45.71533203125,-1.49688720703125
1663861886710077400,11.896077392578125,-12.3016357421875,47.3785400390625,-2.8594970703125
1663861886729852700,11.915852783203125,-12.3016357421875,47.3846435546875,-2.0965576171875
1663861886749811200,11.935811279296875,-13.6749267578125,47.247314453125,-0.11749267578125
1663861886769800200,11.95580029296875,-13.2354736328125,46.478271484375,-1.1871337890625
1663861886789789200,11.9757890625,-14.15252685546875,46.33941650390625,0.48675537109375
1663861886809778400,11.9957783203125,-12.353515625,45.10345458984375,-2.41241455078125
1663861886829767400,12.015767333984375,-13.87786865234375,45.10498046875,-1.80511474609375
1663861886849756400,12.03575634765625,-13.70391845703125,46.01898193359375,-1.495361328125
1663861886869745400,12.055745361328125,-12.310791015625,46.93145751953125,-1.79443359375
1663861886889734400,12.075734375,-11.53564453125,47.540283203125,-1.94244384765625
1663861886909723400,12.095723388671875,-10.9527587890625,46.33026123046875,-1.33819580078125
1663861886929712400,12.11571240234375,-10.9100341796875,48.16131591796875,-0.567626953125
1663861886949701400,12.135701416015625,-8.966064453125,46.48590087890625,-1.48773193359375
1663861886969690400,12.1556904296875,-7.87506103515625,47.55096435546875,-1.48162841796875
1663861886989679400,12.175679443359375,-6.9610595703125,47.418212890625,0.50048828125
1663861887009668400,12.19566845703125,-3.4332275390625,48.3428955078125,1.11846923828125
1663861887029657300,12.2156572265625,-1.17645263671875,46.98333740234375,1.5716552734375
1663861887049646600,12.235646484375,0.97198486328125,47.46856689453125,4.47235107421875
1663861887069635600,12.255635498046875,5.10711669921875,48.23455810546875,4.17633056640625
1663861887089624600,12.27562451171875,8.441162109375,47.33734130859375,5.08880615234375
1663861887109613600,12.295613525390625,11.01837158203125,46.5972900390625,6.91680908203125
1663861887129602600,12.3156025390625,13.134765625,45.83282470703125,5.84869384765625
1663861887149561000,12.33556103515625,15.24658203125,44.77691650390625,6.15081787109375
1663861887169580500,12.35558056640625,16.58935546875,43.42803955078125,8.1268310546875
1663861887189569500,12.375569580078125,18.7347412109375,43.88885498046875,8.13140869140625
1663861887209558500,12.39555859375,22.66998291015625,42.535400390625,8.89129638671875
1663861887229547500,12.415547607421875,24.63226318359375,41.6351318359375,9.80377197265625
1663861887249536500,12.43553662109375,26.422119140625,39.83154296875,11.62567138671875
1663861887269525500,12.455525390625,28.84063720703125,38.787841796875,13.4521484375
1663861887289514800,12.4755146484375,30.43975830078125,35.302734375,14.35089111328125
1663861887309473000,12.49547314453125,30.413818359375,34.234619140625,13.7359619140625
1663861887329492700,12.51549267578125,32.80487060546875,31.976318359375,15.70892333984375
1663861887349481700,12.535481689453125,34.442138671875,30.1666259765625,17.0745849609375
1663861887369440300,12.555440185546875,36.968994140625,27.2796630859375,16.45355224609375
1663861887389459700,12.575459716796875,39.044189453125,24.69329833984375,15.68145751953125
1663861887409448700,12.59544873046875,39.76593017578125,22.87750244140625,16.43524169921875
1663861887429437700,12.615437744140625,40.63568115234375,20.9014892578125,16.12091064453125
1663861887449426700,12.6354267578125,41.63665771484375,18.01605224609375,16.10870361328125
1663861887469415700,12.655415771484375,43.15032958984375,17.55828857421875,15.49835205078125
1663861887489404700,12.67540478515625,43.9910888671875,14.2242431640625,16.3970947265625
1663861887509394000,12.695393798828125,43.34869384765625,12.847900390625,15.4754638671875
1663861887529383000,12.7153828125,44.38629150390625,11.49139404296875,16.53594970703125
1663861887549372000,12.735371826171875,44.8028564453125,9.66796875,16.5283203125
1663861887569330400,12.755330322265625,44.921875,8.2855224609375,14.84527587890625
1663861887589685500,12.775685546875,45.50933837890625,7.2357177734375,16.36505126953125
1663861887609430500,12.795430419921875,44.8822021484375,6.47735595703125,16.66412353515625
1663861887629328000,12.815327880859375,44.8760986328125,6.1767578125,16.9677734375
1663861887649316900,12.83531689453125,43.52264404296875,7.07550048828125,15.75164794921875
1663861887669305900,12.855305908203125,45.9228515625,5.27191162109375,17.5750732421875
1663861887689303600,12.875303466796876,44.3115234375,8.15887451171875,17.89093017578125
1663861887709292500,12.89529248046875,45.5047607421875,6.94732666015625,18.1915283203125
1663861887729281500,12.915281494140626,44.76165771484375,7.8460693359375,16.8243408203125
1663861887749270500,12.9352705078125,44.99359130859375,11.3433837890625,16.99371337890625
1663861887769229000,12.95522900390625,45.4193115234375,9.9761962890625,16.83502197265625
1663861887789248500,12.97524853515625,44.37713623046875,11.03668212890625,16.839599609375
1663861887809237500,12.995237548828126,42.431640625,12.7044677734375,16.693115234375
1663861887829226500,13.0152265625,44.16351318359375,15.1336669921875,16.09649658203125
1663861887849215500,13.035215576171876,42.2576904296875,18.475341796875,16.4154052734375
1663861887869204500,13.05520458984375,41.20025634765625,18.92547607421875,15.95916748046875
1663861887889193500,13.075193359375,40.3350830078125,21.18682861328125,13.9892578125
1663861887909182500,13.095182373046875,38.909912109375,25.5889892578125,13.70391845703125
1663861887929171700,13.115171630859376,37.69378662109375,25.74005126953125,13.85498046875
1663861887949160700,13.13516064453125,37.8753662109375,27.093505859375,12.1856689453125
1663861887969149700,13.155149658203126,35.05706787109375,30.57708740234375,11.43798828125
1663861887989138700,13.175138671875,34.19647216796875,33.0078125,11.60125732421875
1663861888009127700,13.195127685546876,33.46710205078125,34.51080322265625,9.77935791015625
1663861888029116700,13.21511669921875,30.90362548828125,35.7269287109375,10.3912353515625
1663861888049105700,13.235105712890626,28.30963134765625,35.7177734375,9.93194580078125
1663861888069094700,13.2550947265625,26.57928466796875,40.118408203125,9.6466064453125
1663861888089083600,13.275083740234376,25.238037109375,41.48101806640625,9.3475341796875
1663861888109072600,13.29507275390625,23.724365234375,41.9342041015625,9.3475341796875
1663861888129061600,13.3150615234375,19.4732666015625,42.82073974609375,7.51800537109375
1663861888149050600,13.335050537109375,16.29180908203125,43.73016357421875,7.97576904296875
1663861888169040000,13.355039794921876,14.94903564453125,45.086669921875,6.91375732421875
1663861888189028900,13.37502880859375,13.43231201171875,45.526123046875,5.39093017578125
1663861888209017900,13.395017822265626,12.19482421875,44.6258544921875,7.061767578125
1663861888229006800,13.4150068359375,9.95635986328125,46.88720703125,5.39398193359375
1663861888248995800,13.434995849609376,6.3140869140625,47.63336181640625,4.78363037109375
1663861888268984800,13.45498486328125,4.7943115234375,47.9248046875,3.564453125
1663861888288943400,13.474943359375,2.83050537109375,48.822021484375,2.3468017578125
1663861888308962800,13.494962890625,-1.2969970703125,48.35662841796875,2.1881103515625
1663861888328951800,13.514951904296876,-2.978515625,48.18878173828125,0.81329345703125
1663861888348940800,13.53494091796875,-2.07672119140625,47.59368896484375,2.18353271484375
1663861888368929800,13.5549296875,-4.3609619140625,47.73406982421875,1.2664794921875
1663861888388918800,13.574918701171875,-4.8583984375,45.91827392578125,2.32391357421875
1663861888408908000,13.594907958984376,-5.2703857421875,47.9034423828125,3.55224609375
1663861888428897000,13.61489697265625,-5.9051513671875,46.96044921875,0.042724609375
1663861888448886000,13.634885986328126,-6.1798095703125,48.19793701171875,2.63824462890625
1663861888469119200,13.655119140625,-6.94427490234375,48.18115234375,0.8087158203125
1663861888489016600,13.6750166015625,-5.86090087890625,48.8037109375,2.337646484375
1663861888508853000,13.69485302734375,-5.2734375,47.8790283203125,0.65765380859375
1663861888528842000,13.714842041015626,-6.19049072265625,47.7294921875,1.26495361328125
1663861888548831000,13.7348310546875,-5.16357421875,45.916748046875,2.32391357421875
1663861888568820000,13.754820068359376,-5.743408203125,47.27935791015625,1.71966552734375
1663861888588809000,13.77480908203125,-5.4168701171875,48.1964111328125,2.3345947265625
1663861888608798000,13.7947978515625,-2.996826171875,47.42889404296875,0.81024169921875
1663861888628787200,13.814787109375,-3.30963134765625,46.990966796875,3.09295654296875
1663861888648776200,13.834776123046876,-2.82135009765625,48.35205078125,2.18658447265625
1663861888668765200,13.85476513671875,-0.37078857421875,48.81744384765625,2.64892578125
1663861888688754200,13.874754150390626,2.64434814453125,47.30682373046875,2.94952392578125
1663861888708743200,13.8947431640625,4.50592041015625,48.681640625,3.2623291015625
1663861888728732200,13.914732177734376,5.69000244140625,47.021484375,4.47540283203125
1663861888748721200,13.93472119140625,6.47125244140625,47.796630859375,6.00433349609375
1663861888768710100,13.954710205078126,8.27789306640625,46.74224853515625,6.7626953125
1663861888788699100,13.97469921875,11.181640625,47.05352783203125,6.76727294921875
1663861888808688000,13.994688232421876,13.44146728515625,45.8404541015625,6.61163330078125
1663861888828677000,14.014677001953125,16.0400390625,46.1517333984375,6.92138671875
1663861888848666000,14.034666015625,17.80548095703125,43.27545166015625,7.67059326171875
1663861888868655400,14.0546552734375,19.04754638671875,44.19403076171875,8.13446044921875
1663861888888644400,14.074644287109376,21.44012451171875,42.07763671875,9.04083251953125
1663861888908602600,14.0946025390625,23.40240478515625,41.18194580078125,10.4095458984375
1663861888928622300,14.114622314453126,25.677490234375,40.59295654296875,12.08648681640625
1663861888948611300,14.134611328125,26.67999267578125,37.70751953125,12.07275390625
1663861888968600300,14.154600341796876,28.03955078125,37.11700439453125,13.7481689453125
1663861888988589300,14.17458935546875,29.7027587890625,36.505126953125,12.9852294921875
1663861889008547800,14.1945478515625,31.475830078125,33.94317626953125,15.10772705078125
1663861889028567300,14.2145673828125,32.95440673828125,31.83135986328125,16.6229248046875
1663861889048556300,14.234556396484376,34.73358154296875,29.5562744140625,16.61376953125
1663861889068545300,14.254545166015625,36.6943359375,28.643798828125,16.00189208984375
1663861889088534300,14.2745341796875,36.64093017578125,26.2298583984375,18.2769775390625
1663861889108492800,14.294492919921876,39.63470458984375,23.8006591796875,17.65899658203125
1663861889128512500,14.314512451171876,39.70947265625,20.3094482421875,18.25103759765625
1663861889148501500,14.33450146484375,40.74249267578125,18.92852783203125,16.41693115234375
1663861889168490500,14.354490478515626,42.2119140625,16.363525390625,18.2342529296875
1663861889188479500,14.3744794921875,42.16156005859375,14.22576904296875,17.00439453125
1663861889208468500,14.394468505859376,42.75665283203125,13.4796142578125,18.52569580078125
1663861889228457500,14.41445751953125,44.2626953125,12.713623046875,17.4560546875
1663861889248446500,14.434446533203126,44.07196044921875,11.041259765625,17.29583740234375
1663861889268435500,14.454435546875,44.32830810546875,8.90655517578125,16.52374267578125
1663861889288424400,14.474424560546876,45.98846435546875,8.1573486328125,17.28363037109375
1663861889308413400,14.494413330078125,44.90966796875,7.6873779296875,15.9088134765625
1663861889328402400,14.51440234375,44.7357177734375,6.77642822265625,16.05682373046875
1663861889348696800,14.53469677734375,44.69757080078125,4.9713134765625,18.33343505859375
1663861889368624600,14.554624755859376,44.71893310546875,6.01043701171875,15.44342041015625
1663861889388400000,14.574400146484376,44.384765625,4.65545654296875,16.96014404296875
1663861889408358700,14.594358642578126,45.31707763671875,5.55267333984375,14.984130859375
1663861889428347600,14.61434765625,46.11358642578125,6.93817138671875,16.973876953125
1663861889448336600,14.634336669921876,45.17974853515625,6.1614990234375,15.1397705078125
1663861889468325600,14.65432568359375,45.17974853515625,6.16607666015625,15.59600830078125
1663861889488314600,14.674314697265626,44.476318359375,8.75701904296875,16.6748046875
1663861889508303600,14.6943037109375,44.50836181640625,10.12420654296875,16.68243408203125
1663861889528292600,14.714292724609376,44.1070556640625,12.56103515625,17.303466796875
1663861889548281600,14.734281494140625,42.75360107421875,13.46435546875,16.6961669921875
1663861889568270600,14.7542705078125,43.44482421875,16.96624755859375,17.3248291015625
1663861889588259800,14.774259765625,42.7215576171875,18.78204345703125,16.571044921875
1663861889608248800,14.794248779296876,40.47088623046875,20.30487060546875,17.4896240234375
1663861889628207400,14.814207275390626,39.5721435546875,21.1883544921875,14.29290771484375
1663861889648226800,14.834226806640626,39.3280029296875,23.77777099609375,15.0665283203125
1663861889668215800,14.8542158203125,38.73748779296875,24.68719482421875,14.91851806640625
1663861889688204800,14.874204833984376,37.12310791015625,27.4200439453125,15.081787109375
1663861889708193800,14.89419384765625,37.005615234375,29.07257080078125,12.80364990234375
1663861889728182800,14.914182861328126,33.4197998046875,32.2662353515625,13.8824462890625
1663861889748171800,14.934171875,32.2418212890625,34.22088623046875,11.75689697265625
1663861889768160800,14.954160888671876,32.13043212890625,35.9100341796875,13.89923095703125
1663861889788149800,14.974149658203125,27.7069091796875,35.8917236328125,12.82806396484375
1663861889808139000,14.994138916015626,25.77667236328125,38.29498291015625,9.94110107421875
1663861889828128000,15.0141279296875,24.44610595703125,40.1275634765625,11.16790771484375
1663861889848117000,15.034116943359376,22.467041015625,40.26641845703125,10.25238037109375
1663861889868106000,15.05410595703125,21.62322998046875,43.44482421875,8.8958740234375
1663861889888095000,15.074094970703126,18.26171875,43.13812255859375,9.3475341796875
1663861889908084000,15.094083984375,17.2271728515625,44.64263916015625,7.82928466796875
1663861889928073000,15.114072998046876,14.3524169921875,45.69244384765625,6.76422119140625
1663861889948062000,15.13406201171875,11.48529052734375,47.04132080078125,5.24444580078125
1663861889968051000,15.154051025390626,9.97314453125,47.6348876953125,4.0252685546875
1663861889988040000,15.1740400390625,6.463623046875,47.49298095703125,6.0028076171875
1663861890008029000,15.19402880859375,5.072021484375,46.71478271484375,4.168701171875
1663861890028018000,15.214017822265625,3.2989501953125,49.2767333984375,2.044677734375
1663861890048007200,15.234007080078126,0.8575439453125,49.13177490234375,3.56597900390625
1663861890067996200,15.25399609375,-1.141357421875,48.50311279296875,1.57928466796875
1663861890087985200,15.273985107421876,-1.61285400390625,47.88970947265625,1.11846923828125
1663861890107974100,15.29397412109375,-4.18701171875,48.64959716796875,1.72882080078125
1663861890127932700,15.3139326171875,-5.1239013671875,47.735595703125,1.57012939453125
1663861890147952000,15.3339521484375,-4.21905517578125,47.27325439453125,0.65460205078125
1663861890167941000,15.353941162109376,-6.21337890625,46.67816162109375,2.630615234375
1663861890187930000,15.37393017578125,-6.3385009765625,47.88970947265625,2.18048095703125
1663861890207919000,15.393919189453126,-6.35223388671875,47.2808837890625,2.17742919921875
1663861890227877600,15.413877685546876,-6.03485107421875,47.88360595703125,1.41754150390625
1663861890248233000,15.43423291015625,-5.4168701171875,48.193359375,2.0294189453125
1663861890267977700,15.453977783203126,-7.2418212890625,48.48785400390625,1.26800537109375
1663861890287875300,15.473875244140626,-7.71484375,47.7325439453125,2.02484130859375
1663861890307864300,15.4938642578125,-6.024169921875,48.345947265625,2.1820068359375
1663861890327853300,15.513853271484376,-5.42755126953125,47.73406982421875,1.57012939453125
1663861890347842300,15.53384228515625,-6.80389404296875,47.58453369140625,2.17742919921875
1663861890367831300,15.553831298828126,-4.974365234375,47.58148193359375,1.41754150390625
1663861890387850800,15.573850830078126,-3.6041259765625,47.43804931640625,2.02789306640625
1663861890407809300,15.593809326171876,-3.12042236328125,48.65264892578125,1.7303466796875
1663861890427798300,15.61379833984375,-1.4434814453125,48.51837158203125,3.40728759765625
1663861890447787300,15.633787353515626,-0.360107421875,49.27825927734375,3.10821533203125
1663861890467776300,15.6537763671875,0.07781982421875,48.3673095703125,3.2562255859375
1663861890487765200,15.67376513671875,4.2266845703125,49.75128173828125,4.02984619140625
1663861890507754200,15.693754150390625,5.07965087890625,47.0184326171875,4.17022705078125
1663861890527743500,15.713743408203126,7.24945068359375,48.54888916015625,4.94232177734375
1663861890547732500,15.733732421875,10.15472412109375,48.8677978515625,6.01348876953125
1663861890567721500,15.753721435546876,12.2344970703125,46.4385986328125,5.69915771484375
1663861890587710500,15.77371044921875,14.8345947265625,46.7529296875,6.31256103515625
1663861890607669000,15.7936689453125,17.07611083984375,44.77386474609375,5.39093017578125
1663861890627688400,15.8136884765625,18.13507080078125,44.3389892578125,7.67669677734375
1663861890647677400,15.833677490234376,21.91925048828125,43.133544921875,7.8277587890625
1663861890667666400,15.85366650390625,22.03216552734375,41.3177490234375,8.73260498046875
1663861890687655400,15.873655517578126,24.029541015625,41.943359375,10.41412353515625
1663861890707614000,15.893614013671876,26.26495361328125,39.66217041015625,9.6435546875
1663861890727633400,15.91363330078125,30.9295654296875,36.80877685546875,12.530517578125
1663861890747622400,15.933622314453125,31.97479248046875,35.76202392578125,14.35546875
1663861890767611600,15.953611572265626,32.80792236328125,32.2509765625,12.35809326171875
1663861890787600600,15.9736005859375,35.36376953125,30.60150146484375,14.3341064453125
1663861890807559200,15.99355908203125,37.87689208984375,27.10723876953125,13.71002197265625
1663861890827578600,16.01357861328125,38.5009765625,27.58941650390625,16.76177978515625
1663861890847567600,16.033567626953126,39.79949951171875,24.39422607421875,15.985107421875
1663861890867556600,16.053556640625,41.71905517578125,21.6552734375,15.05889892578125
1663861890887545600,16.073545654296876,41.3970947265625,20.9014892578125,15.8172607421875
1663861890907534600,16.09353466796875,43.46923828125,18.0419921875,18.701171875
1663861890927523600,16.113523681640626,42.034912109375,15.42816162109375,15.48614501953125
1663861890947512600,16.1335126953125,45.0653076171875,14.5263671875,15.9423828125
1663861890967501600,16.15350146484375,44.88983154296875,13.59710693359375,13.95721435546875
1663861890987490800,16.17349072265625,45.6024169921875,11.334228515625,15.6219482421875
1663861891007479800,16.193479736328126,44.818115234375,10.418701171875,15.46478271484375
1663861891027468800,16.21346875,44.74945068359375,7.373046875,14.6881103515625
1663861891047457800,16.233457763671876,44.02923583984375,9.2010498046875,15.4571533203125
1663861891067446800,16.25344677734375,45.81298828125,7.2235107421875,14.8406982421875
1663861891087435800,16.273435791015626,46.0540771484375,4.35028076171875,16.351318359375
1663861891107424800,16.2934248046875,46.533203125,5.40008544921875,14.52789306640625
1663861891127688400,16.3136884765625,44.23828125,4.95147705078125,16.046142578125
1663861891147555300,16.333555419921876,44.27947998046875,6.781005859375,16.8182373046875
1663861891167391700,16.353391845703126,46.69189453125,5.57403564453125,17.27142333984375
1663861891187380700,16.373380615234375,45.79620361328125,6.4666748046875,15.14129638671875
1663861891207400400,16.393400390625,45.15533447265625,5.09796142578125,15.1336669921875
1663861891227359000,16.41335888671875,45.53375244140625,8.30078125,16.36962890625
1663861891247348000,16.433347900390626,45.41168212890625,9.66033935546875,15.46173095703125
1663861891267337000,16.4533369140625,44.500732421875,9.8114013671875,15.61431884765625
1663861891287295500,16.47329541015625,44.06280517578125,10.7208251953125,15.46478271484375
1663861891307315000,16.49331494140625,43.19305419921875,12.689208984375,14.8651123046875
1663861891327304000,16.513303955078126,42.5811767578125,12.55340576171875,16.84417724609375
1663861891347293000,16.53329296875,42.645263671875,15.43426513671875,16.09649658203125
1663861891367282000,16.553281982421876,44.5220947265625,17.54608154296875,13.67034912109375
1663861891387271000,16.57327099609375,40.72723388671875,18.1732177734375,17.022705078125
1663861891407260000,16.593260009765626,40.65093994140625,21.65069580078125,14.75372314453125
1663861891427249000,16.613248779296875,40.07568359375,23.1719970703125,15.21759033203125
1663861891447238000,16.63323779296875,38.604736328125,25.59051513671875,14.007568359375
1663861891467227100,16.65322705078125,38.140869140625,25.2838134765625,13.70086669921875
1663861891487216000,16.673216064453126,36.9873046875,28.30963134765625,12.34283447265625
1663861891507174400,16.69317431640625,36.72637939453125,30.145263671875,13.8763427734375
1663861891527194000,16.713194091796876,34.3353271484375,32.40203857421875,11.75079345703125
1663861891547183000,16.73318310546875,32.20062255859375,32.3974609375,11.74774169921875
1663861891567172000,16.753172119140626,31.365966796875,35.89935302734375,12.83111572265625
1663861891587161000,16.7731611328125,28.83758544921875,38.76953125,11.3189697265625
1663861891607150000,16.793150146484376,27.63214111328125,39.3768310546875,11.47308349609375
1663861891627139000,16.81313916015625,24.6185302734375,41.02783203125,9.80072021484375
1663861891647128000,16.833128173828126,21.43096923828125,41.6351318359375,10.5621337890625
1663861891667117000,16.853116943359375,19.04144287109375,43.8995361328125,9.35211181640625
1663861891687106000,16.87310595703125,17.99163818359375,44.65789794921875,9.3536376953125
1663861891707095300,16.89309521484375,14.48516845703125,44.7845458984375,7.2174072265625
1663861891727084300,16.913084228515626,11.94305419921875,47.05047607421875,6.31103515625
1663861891747073300,16.9330732421875,10.418701171875,47.05352783203125,7.0709228515625
1663861891767031800,16.95303173828125,7.6690673828125,46.87957763671875,5.08575439453125
1663861891787051300,16.97305126953125,4.63104248046875,47.4700927734375,3.8665771484375
1663861891807040300,16.993040283203126,4.33197021484375,47.75848388671875,2.03857421875
1663861891827029200,17.013029296875,0.65460205078125,46.9940185546875,2.33612060546875
1663861891847018200,17.033018310546876,-1.46331787109375,47.74322509765625,1.57470703125
1663861891867007200,17.05300732421875,-2.21099853515625,48.4832763671875,-0.555419921875
1663861891886996200,17.072996337890626,-4.4708251953125,49.69482421875,-0.3997802734375
1663861891906985200,17.092985107421875,-5.12542724609375,47.71881103515625,-0.25787353515625
1663861891926974200,17.11297412109375,-4.34417724609375,48.48785400390625,0.50811767578125
1663861891946963500,17.13296337890625,-6.024169921875,48.345947265625,2.1820068359375
1663861891966952400,17.152952392578126,-3.8848876953125,48.6358642578125,-0.09918212890625
1663861891986941400,17.17294140625,-6.9091796875,49.5697021484375,3.40728759765625
1663861892007235600,17.193235595703126,-4.98046875,47.283935546875,2.178955078125
1663861892027163600,17.21316357421875,-6.33087158203125,48.33221435546875,0.65765380859375
1663861892046939000,17.23293896484375,-7.25555419921875,47.74627685546875,3.3966064453125
1663861892066897400,17.2528974609375,-6.77947998046875,48.64501953125,1.72576904296875
1663861892086886400,17.272886474609376,-4.21142578125,47.5921630859375,2.48565673828125
1663861892106875400,17.29287548828125,-7.71484375,47.7294921875,1.56707763671875
1663861892126895000,17.31289501953125,-6.512451171875,46.97265625,1.5655517578125
1663861892146853400,17.332853271484375,-5.11322021484375,48.1842041015625,0.81024169921875
1663861892166842400,17.35284228515625,-5.74493408203125,47.26715087890625,0.347900390625
1663861892186831600,17.37283154296875,-6.036376953125,47.87445068359375,0.3509521484375
1663861892206820600,17.392820556640626,-4.24652099609375,46.06170654296875,1.10626220703125
1663861892226809600,17.4128095703125,-2.35748291015625,48.6541748046875,1.7303466796875
1663861892246798600,17.432798583984376,-3.143310546875,47.5921630859375,2.1820068359375
1663861892266787600,17.45278759765625,-0.41961669921875,46.69036865234375,2.63824462890625
1663861892286776600,17.472776611328126,0.830078125,47.9156494140625,3.55987548828125
1663861892306765600,17.492765625,3.73687744140625,48.37799072265625,3.564453125
1663861892326754600,17.512754638671876,5.7159423828125,48.2330322265625,3.87115478515625
1663861892346743600,17.53274365234375,7.54852294921875,48.2513427734375,5.70220947265625
1663861892366732500,17.552732666015626,9.326171875,45.9716796875,5.23681640625
1663861892386721500,17.572721435546875,12.091064453125,46.88568115234375,4.78668212890625
1663861892406710800,17.592710693359376,12.84637451171875,46.58660888671875,5.09033203125
1663861892426699800,17.61269970703125,15.27862548828125,46.148681640625,6.61468505859375
1663861892446688800,17.632688720703126,18.133544921875,44.3328857421875,6.91375732421875
1663861892466677800,17.652677734375,19.4793701171875,43.12591552734375,7.51953125
1663861892486666800,17.672666748046876,21.002197265625,42.9840087890625,8.43505859375
1663861892506655700,17.69265576171875,25.2532958984375,42.22869873046875,7.82623291015625
1663861892526644700,17.712644775390626,25.51727294921875,40.40679931640625,8.12225341796875
1663861892546633700,17.7326337890625,27.301025390625,38.299560546875,9.942626953125
1663861892566622700,17.752622802734376,29.60052490234375,38.77105712890625,11.3189697265625
1663861892586611700,17.77261181640625,31.36444091796875,35.88409423828125,10.85052490234375
1663861892606600700,17.7926005859375,33.148193359375,33.77838134765625,13.128662109375
1663861892626589700,17.812589599609375,34.7869873046875,32.1044921875,12.51220703125
1663861892646579000,17.832578857421876,35.37445068359375,31.0546875,14.031982421875
1663861892666568000,17.85256787109375,38.47198486328125,26.48773193359375,12.33673095703125
1663861892686557000,17.872556884765626,39.02435302734375,23.92120361328125,14.15252685546875
1663861892706546000,17.8925458984375,39.94293212890625,24.07073974609375,13.69781494140625
1663861892726535000,17.912534912109376,40.96221923828125,21.9482421875,13.9923095703125
1663861892746524000,17.93252392578125,43.36395263671875,20.27587890625,13.37738037109375
1663861892766513000,17.952512939453126,42.5537109375,18.15338134765625,14.12811279296875
1663861892786502000,17.972501953125,43.40667724609375,15.4205322265625,14.26849365234375
1663861892806491000,17.992490966796876,44.12841796875,13.604736328125,15.02227783203125
1663861892826479900,18.01247998046875,43.36395263671875,13.59405517578125,13.95416259765625
1663861892846468900,18.03246875,43.3319091796875,12.0880126953125,15.47088623046875
1663861892866457900,18.052457763671875,45.13092041015625,10.723876953125,15.46630859375
1663861892886416400,18.07241650390625,43.45703125,10.87646484375,15.92254638671875
1663861892906771700,18.092771728515626,44.93865966796875,9.03778076171875,13.78173828125
1663861892926516500,18.1125166015625,44.30999755859375,8.14666748046875,16.5191650390625
1663861892946414000,18.1324140625,45.81451416015625,7.23114013671875,15.60211181640625
1663861892966403000,18.152403076171876,45.0958251953125,9.20562744140625,15.76385498046875
1663861892986422500,18.172422607421876,45.79620361328125,6.463623046875,14.83612060546875
1663861893006381000,18.192381103515626,45.220947265625,7.9833984375,14.84375
1663861893026370000,18.2123701171875,44.13604736328125,7.220458984375,14.83917236328125
1663861893046359000,18.232359130859376,44.8089599609375,9.96246337890625,15.4632568359375
1663861893066348000,18.25234814453125,44.37408447265625,11.02142333984375,15.01007080078125
1663861893086337000,18.2723369140625,43.62335205078125,11.48529052734375,16.07818603515625
1663861893106326000,18.292325927734375,44.8486328125,11.7767333984375,14.251708984375
1663861893126315300,18.312315185546876,44.0216064453125,15.5853271484375,15.64178466796875
1663861893146304300,18.33230419921875,42.5384521484375,17.40875244140625,15.95306396484375
1663861893166293200,18.352293212890626,40.9027099609375,19.36492919921875,13.9801025390625
1663861893186282200,18.3722822265625,41.265869140625,21.81396484375,15.97442626953125
1663861893206271200,18.392271240234376,40.11688232421875,24.9908447265625,14.61639404296875
1663861893226260200,18.41226025390625,39.5233154296875,25.74615478515625,14.1632080078125
1663861893246249200,18.432249267578126,39.54010009765625,26.49383544921875,12.79449462890625
1663861893266238200,18.45223828125,36.70654296875,29.37164306640625,12.34893798828125
1663861893286227200,18.472227294921876,35.8306884765625,31.04400634765625,12.50762939453125
1663861893306216200,18.49221630859375,32.80029296875,31.94122314453125,11.59515380859375
1663861893326205200,18.512205078125,31.34002685546875,34.81903076171875,10.84442138671875
1663861893346194200,18.532194091796875,30.15899658203125,36.49139404296875,11.1572265625
1663861893366183400,18.552183349609376,29.74090576171875,38.30108642578125,9.6405029296875
1663861893386172400,18.57217236328125,26.28173828125,40.42510986328125,9.9517822265625
1663861893406161400,18.592161376953126,22.81951904296875,42.3919677734375,9.8052978515625
1663861893426150400,18.612150390625,21.58660888671875,41.91436767578125,7.5164794921875
1663861893446139400,18.632139404296876,20.257568359375,43.74542236328125,8.7432861328125
1663861893466098000,18.652097900390626,16.17584228515625,45.2606201171875,9.35516357421875
1663861893486117400,18.672117431640626,15.69061279296875,44.0460205078125,9.50164794921875
1663861893506106400,18.6921064453125,11.9140625,45.69244384765625,7.52410888671875
1663861893526065000,18.71206494140625,9.2071533203125,47.357177734375,7.2235107421875
1663861893546084400,18.73208447265625,8.45489501953125,47.94158935546875,4.7882080078125
1663861893566073300,18.7520732421875,3.89251708984375,48.5260009765625,3.10821533203125
1663861893586062600,18.7720625,2.96478271484375,47.92022705078125,3.5614013671875
1663861893606051600,18.792051513671876,1.91497802734375,48.681640625,4.022216796875
1663861893626040600,18.81204052734375,1.42822265625,47.4517822265625,2.33917236328125
1663861893646029600,18.832029541015626,-1.5960693359375,48.64654541015625,0.665283203125
1663861893666018600,18.8520185546875,-3.5980224609375,47.74169921875,2.0294189453125
1663861893686007600,18.872007568359376,-4.22821044921875,46.83685302734375,2.9388427734375
1663861893705996500,18.89199658203125,-4.51507568359375,47.59521484375,2.94189453125
1663861893725985500,18.911985595703126,-7.257080078125,47.7386474609375,2.63519287109375
1663861893745974500,18.931974609375,-6.18133544921875,48.18267822265625,0.81024169921875
1663861893765963500,18.951963623046876,-6.97784423828125,46.6644287109375,1.25885009765625
1663861893786196700,18.97219677734375,-4.52423095703125,47.27630615234375,1.11236572265625
1663861893806094000,18.992093994140625,-5.12237548828125,47.7386474609375,2.02789306640625
1663861893825930800,19.0119306640625,-6.35223388671875,47.283935546875,2.4810791015625
1663861893845919700,19.031919677734376,-6.9366455078125,48.48175048828125,0.50506591796875
1663861893865908700,19.05190869140625,-7.7239990234375,47.412109375,0.042724609375
1663861893885897700,19.071897705078126,-7.6995849609375,48.4832763671875,0.81024169921875
1663861893905886700,19.09188671875,-6.951904296875,47.735595703125,2.0263671875
1663861893925875700,19.111875732421876,-7.10906982421875,47.576904296875,1.416015625
1663861893945864700,19.13186474609375,-6.3201904296875,48.6602783203125,3.5552978515625
1663861893965853700,19.151853759765626,-5.23681640625,49.41864013671875,2.9510498046875
1663861893985812200,19.171812255859376,-5.4351806640625,47.4273681640625,1.263427734375
1663861894005831700,19.191831787109376,-5.71136474609375,48.651123046875,2.18353271484375
1663861894025820700,19.211820556640625,-5.11322021484375,48.1842041015625,0.81024169921875
1663861894045809700,19.2318095703125,-2.520751953125,48.1903076171875,0.81329345703125
1663861894065799000,19.251798828125,-0.99334716796875,48.34442138671875,0.66375732421875
1663861894085788000,19.271787841796876,-1.92718505859375,47.44720458984375,2.6397705078125
1663861894105777000,19.29177685546875,-0.68817138671875,48.21624755859375,3.40728759765625
1663861894125766000,19.311765869140626,1.470947265625,49.29046630859375,4.17633056640625
1663861894145755000,19.3317548828125,4.6539306640625,48.5198974609375,2.04315185546875
1663861894165743900,19.351743896484376,5.2459716796875,47.625732421875,4.02069091796875
1663861894185732900,19.37173291015625,7.0587158203125,46.8780517578125,5.08575439453125
1663861894205721900,19.391721923828126,9.2132568359375,47.65472412109375,6.6162109375
1663861894225710800,19.4117109375,12.5518798828125,47.039794921875,4.9407958984375
1663861894245699800,19.431699951171876,13.2904052734375,45.977783203125,4.93621826171875
1663861894265688800,19.451688720703125,15.86761474609375,45.245361328125,7.525634765625
1663861894285647400,19.4716474609375,18.75152587890625,44.6441650390625,7.525634765625
1663861894305667000,19.4916669921875,20.71533203125,43.74847412109375,9.0484619140625
1663861894325656000,19.511656005859376,22.0703125,42.99468994140625,9.503173828125
1663861894345645000,19.53164501953125,23.6968994140625,40.7196044921875,9.6466064453125
1663861894365634000,19.551634033203126,26.86920166015625,39.36767578125,10.71014404296875
1663861894385623000,19.571623046875,30.00946044921875,36.63787841796875,10.546875
1663861894405612000,19.591612060546876,32.46917724609375,37.4267578125,13.45062255859375
1663861894425601000,19.61160107421875,33.23822021484375,31.04400634765625,13.26751708984375
1663861894445590000,19.631590087890626,36.13433837890625,31.03485107421875,11.4410400390625
1663861894465579000,19.6515791015625,36.2762451171875,30.45501708984375,14.6392822265625
1663861894485568000,19.671568115234376,37.7166748046875,26.79901123046875,13.4033203125
1663861894505557000,19.691556884765625,39.94293212890625,24.07684326171875,14.306640625
1663861894525546000,19.7115458984375,41.4459228515625,23.0255126953125,15.52276611328125
1663861894545535200,19.73153515625,42.6361083984375,21.8048095703125,14.60418701171875
1663861894565524200,19.751524169921876,42.88482666015625,19.23370361328125,15.9637451171875
1663861894585513200,19.77151318359375,42.85125732421875,17.8497314453125,14.12811279296875
1663861894605502200,19.791502197265626,43.5394287109375,14.520263671875,15.63568115234375
1663861894625491200,19.8114912109375,44.14520263671875,14.36309814453125,14.7216796875
1663861894645480200,19.831480224609376,42.55523681640625,11.474609375,15.01007080078125
1663861894665774300,19.8517744140625,44.51751708984375,10.5743408203125,15.92254638671875
1663861894685702400,19.871702392578126,44.77691650390625,8.59527587890625,15.45562744140625
1663861894705477600,19.8914775390625,44.16046142578125,8.28399658203125,14.84375
1663861894725436200,19.911436279296876,45.6390380859375,6.3018798828125,13.616943359375
1663861894745455900,19.931455810546876,44.4091796875,5.8563232421875,15.13671875
1663861894765414400,19.951414306640626,45.63751220703125,6.29730224609375,13.1591796875
1663861894785403400,19.9714033203125,45.7427978515625,4.04815673828125,16.6534423828125
1663861894805392400,19.991392333984376,46.4935302734375,3.58123779296875,15.1275634765625
1663861894825381400,20.01138134765625,44.0521240234375,3.564453125,13.7542724609375
1663861894845370400,20.031370361328126,45.89691162109375,4.1839599609375,14.6728515625
1663861894865359400,20.051359375,45.9381103515625,6.01654052734375,15.74859619140625
1663861894885348400,20.071348388671876,46.5667724609375,6.9122314453125,13.7725830078125
1663861894905337300,20.09133740234375,45.172119140625,5.85479736328125,14.83306884765625
1663861894925326300,20.111326416015626,45.22857666015625,8.29315185546875,15.606689453125
1663861894945315300,20.1313154296875,44.317626953125,8.5723876953125,12.86468505859375
1663861894965304300,20.15130419921875,43.43109130859375,9.80072021484375,14.54620361328125
1663861894985293300,20.171293212890625,44.97222900390625,10.5499267578125,13.02642822265625
1663861895005282600,20.191282470703126,43.9727783203125,13.45367431640625,15.17333984375
1663861895025240800,20.21124072265625,45.06378173828125,14.51568603515625,14.57061767578125
1663861895045260500,20.231260498046876,42.6513671875,15.72265625,14.26849365234375
1663861895065249500,20.25124951171875,42.87567138671875,18.9117431640625,13.8275146484375
1663861895085208000,20.2712080078125,41.204833984375,19.2138671875,14.1326904296875
1663861895105227500,20.2912275390625,39.34326171875,24.52545166015625,13.6993408203125
1663861895125216500,20.311216552734376,39.64691162109375,24.51629638671875,12.48016357421875
1663861895145205500,20.33120556640625,37.255859375,26.77154541015625,10.2020263671875
1663861895165194500,20.351194580078126,36.70654296875,29.36553955078125,11.58599853515625
1663861895185183500,20.37118359375,35.68115234375,31.1920166015625,12.0513916015625
1663861895205172500,20.39117236328125,32.4920654296875,31.7901611328125,11.7462158203125
1663861895225161500,20.411161376953125,31.62689208984375,34.0545654296875,10.2325439453125
1663861895245120000,20.4311201171875,30.3436279296875,38.00048828125,9.7930908203125
1663861895265139700,20.4511396484375,28.08837890625,39.3707275390625,10.711669921875
1663861895285128700,20.471128662109376,25.213623046875,40.41748046875,9.3414306640625
1663861895305117700,20.49111767578125,23.40087890625,41.162109375,8.123779296875
1663861895325106700,20.511106689453126,19.93560791015625,42.9840087890625,8.73870849609375
1663861895345065200,20.531065185546876,18.609619140625,45.10040283203125,7.6812744140625
1663861895365084700,20.551084716796876,16.00189208984375,44.34356689453125,8.740234375
1663861895385073700,20.57107373046875,14.080810546875,47.07489013671875,8.599853515625
1663861895405062700,20.591062744140626,11.96136474609375,47.81646728515625,7.0770263671875
1663861895425051600,20.6110517578125,9.50927734375,47.3419189453125,5.3955078125
1663861895445040600,20.63104052734375,5.279541015625,49.1455078125,4.0283203125
1663861895465029600,20.651029541015625,3.594970703125,48.83575439453125,3.8726806640625
1663861895484988200,20.67098828125,0.3448486328125,46.7010498046875,3.857421875
1663861895505007900,20.6910078125,-2.94647216796875,49.566650390625,2.04010009765625
1663861895524996900,20.710996826171876,-3.60565185546875,47.4273681640625,0.8087158203125
1663861895544985900,20.73098583984375,-4.49371337890625,48.63433837890625,-0.1007080078125
1663861895565280000,20.751280029296876,-7.69195556640625,48.78692626953125,0.811767578125
1663861895585055500,20.771055419921876,-7.11669921875,47.27020263671875,1.10931396484375
1663861895604952800,20.790952880859376,-8.184814453125,47.2625732421875,0.34637451171875
1663861895624941800,20.81094189453125,-8.80126953125,46.96044921875,0.80108642578125
1663861895644930800,20.830930908203126,-8.30230712890625,48.7823486328125,0.50506591796875
1663861895664919800,20.850919921875,-8.17718505859375,47.57232666015625,1.10931396484375
1663861895684908800,20.87090869140625,-8.77227783203125,48.18115234375,1.263427734375
1663861895704897800,20.890897705078125,-9.2620849609375,46.81243896484375,1.409912109375
1663861895724887000,20.910886962890626,-9.228515625,48.32000732421875,-0.1068115234375
1663861895744876000,20.9308759765625,-8.64105224609375,47.27325439453125,1.71661376953125
1663861895764865000,20.950864990234376,-10.0311279296875,46.50421142578125,1.1016845703125
1663861895784854000,20.97085400390625,-8.63494873046875,47.5677490234375,0.65155029296875
1663861895804843000,20.990843017578126,-9.39483642578125,47.71728515625,0.49896240234375
1663861895824832000,21.01083203125,-7.27691650390625,46.954345703125,-0.26397705078125
1663861895844821000,21.030821044921876,-8.31756591796875,48.1689453125,-0.2593994140625
1663861895864810000,21.05081005859375,-5.853271484375,49.23553466796875,-0.55694580078125
1663861895884799000,21.070799072265626,-5.42755126953125,47.7386474609375,2.02789306640625
1663861895904788000,21.0907880859375,-4.8248291015625,47.43804931640625,2.33154296875
1663861895924746500,21.11074658203125,-3.88336181640625,48.6480712890625,1.42364501953125
1663861895944766000,21.130765869140625,-1.28936767578125,48.6663818359375,2.9510498046875
1663861895964755200,21.150755126953126,-0.1312255859375,45.9259033203125,2.02484130859375
1663861895984744200,21.170744140625,1.59149169921875,47.91717529296875,3.55987548828125
1663861896004733200,21.190733154296876,2.67791748046875,48.69232177734375,5.08880615234375
1663861896024722200,21.21072216796875,4.8065185546875,48.39935302734375,5.85174560546875
1663861896044711200,21.230711181640626,6.158447265625,47.4822998046875,4.9346923828125
1663861896064700200,21.2507001953125,11.4776611328125,46.734619140625,4.937744140625
1663861896084689200,21.270689208984376,12.36724853515625,45.53375244140625,6.60858154296875
1663861896104678100,21.29067822265625,15.10467529296875,45.23773193359375,6.7626953125
1663861896124667100,21.310667236328126,15.72265625,45.54443359375,6.9183349609375
1663861896144656100,21.33065625,19.48394775390625,43.414306640625,5.6915283203125
1663861896164645000,21.35064501953125,19.90203857421875,41.607666015625,7.66448974609375
1663861896184634400,21.37063427734375,21.72088623046875,41.015625,9.0362548828125
1663861896204623400,21.390623291015626,24.9114990234375,40.5609130859375,8.42742919921875
1663861896224612400,21.4106123046875,26.397705078125,38.75732421875,10.55450439453125
1663861896244601300,21.430601318359376,29.75616455078125,38.9251708984375,11.47308349609375
1663861896264590300,21.45059033203125,30.15899658203125,36.49444580078125,11.46087646484375
1663861896284579300,21.470579345703126,31.9122314453125,33.1512451171875,11.1419677734375
1663861896304537900,21.490537841796876,33.90960693359375,33.7738037109375,12.36724853515625
1663861896324557300,21.510557373046876,35.65826416015625,30.13916015625,13.41705322265625
1663861896344546300,21.53054638671875,36.541748046875,28.765869140625,12.4969482421875
1663861896364504800,21.5505048828125,38.64593505859375,27.40631103515625,12.95013427734375
1663861896384524300,21.570524169921875,39.61334228515625,23.0072021484375,13.69171142578125
1663861896404513300,21.59051318359375,40.50140380859375,21.79718017578125,14.1448974609375
1663861896424502500,21.61050244140625,41.37115478515625,19.8211669921875,13.983154296875
1663861896444735500,21.630735595703126,42.59490966796875,19.97528076171875,13.83209228515625
1663861896464633000,21.650633056640626,43.4295654296875,16.4794921875,13.66424560546875
1663861896484500000,21.6705,43.73016357421875,16.19110107421875,15.49224853515625
1663861896504489000,21.690489013671876,42.620849609375,14.36767578125,15.7867431640625
1663861896524478000,21.71047802734375,43.17779541015625,11.94610595703125,16.6900634765625
1663861896544436500,21.7304365234375,44.2535400390625,12.38861083984375,14.86358642578125
1663861896564425500,21.750425537109376,45.6085205078125,11.63330078125,15.167236328125
1663861896584384000,21.770384033203126,44.80133056640625,9.6588134765625,15.46173095703125
1663861896604403500,21.790403564453126,45.3857421875,8.58917236328125,14.6942138671875
1663861896624392400,21.810392333984375,46.00372314453125,8.89434814453125,14.697265625
1663861896644381400,21.83038134765625,44.8822021484375,6.46820068359375,15.5975341796875
1663861896664370700,21.85037060546875,44.3023681640625,7.8277587890625,14.68963623046875
1663861896684359700,21.870359619140626,44.90966796875,7.684326171875,15.6036376953125
1663861896704348700,21.8903486328125,45.67413330078125,7.8338623046875,14.996337890625
1663861896724337700,21.910337646484376,46.136474609375,7.99102783203125,15.606689453125
1663861896744296200,21.930296142578126,44.74945068359375,7.37457275390625,14.9932861328125
1663861896764315600,21.950315673828126,44.964599609375,10.11962890625,15.9210205078125
1663861896784304600,21.9703046875,43.96209716796875,12.99285888671875,14.56146240234375
1663861896804293600,21.990293701171876,41.27349853515625,15.4266357421875,15.484619140625
1663861896824282600,22.01028271484375,43.5638427734375,15.58074951171875,15.18402099609375
1663861896844241200,22.0302412109375,40.54412841796875,16.93878173828125,14.72930908203125
1663861896864260600,22.050260498046875,43.36395263671875,20.28350830078125,14.14031982421875
1663861896884249600,22.07024951171875,42.181396484375,21.9482421875,13.690185546875
1663861896904238800,22.09023876953125,41.43524169921875,22.69439697265625,12.16888427734375
1663861896924227800,22.110227783203126,40.7379150390625,25.5828857421875,12.48626708984375
1663861896944216800,22.130216796875,39.6942138671875,26.6357421875,11.42425537109375
1663861896964205800,22.150205810546876,37.0086669921875,29.351806640625,9.75799560546875
1663861896984194800,22.17019482421875,35.83526611328125,31.3323974609375,10.68115234375
1663861897004183800,22.190183837890626,34.503173828125,33.01544189453125,12.36419677734375
1663861897024172800,22.2101728515625,33.90655517578125,33.75244140625,9.77630615234375
1663861897044161800,22.230161865234376,31.68487548828125,36.62567138671875,8.72039794921875
1663861897064150800,22.25015087890625,31.2774658203125,38.89923095703125,8.12225341796875
1663861897084139800,22.270139892578126,28.851318359375,39.501953125,7.96966552734375
1663861897104128800,22.290128662109375,25.34332275390625,39.48516845703125,6.89849853515625
1663861897124117800,22.31011767578125,23.8922119140625,42.68035888671875,7.6751708984375
1663861897144107000,22.33010693359375,22.37701416015625,43.13201904296875,7.5225830078125
1663861897164096000,22.350095947265626,19.66094970703125,44.34967041015625,8.43963623046875
1663861897184085000,22.3700849609375,16.91131591796875,44.183349609375,7.5225830078125
1663861897204074000,22.390073974609376,13.7420654296875,45.68328857421875,6.00128173828125
1663861897224063000,22.41006298828125,12.41455078125,47.65777587890625,6.1614990234375
1663861897244052000,22.430052001953126,10.54229736328125,45.82366943359375,5.389404296875
1663861897264041000,22.450041015625,7.24945068359375,48.54888916015625,4.94232177734375
1663861897284030000,22.470030029296876,5.84869384765625,47.32208251953125,4.0191650390625
1663861897304019000,22.49001904296875,2.35443115234375,47.91717529296875,3.2562255859375
1663861897324313000,22.51031298828125,0.37841796875,48.2177734375,3.4088134765625
1663861897344241200,22.5302412109375,-0.98419189453125,48.66943359375,3.2562255859375
1663861897363986200,22.549986083984376,-4.0618896484375,47.4365234375,2.02789306640625
1663861897383975200,22.56997509765625,-3.45001220703125,47.57843017578125,0.65765380859375
1663861897403964200,22.589964111328126,-5.89447021484375,47.41668701171875,0.04425048828125
1663861897423953200,22.609953125,-7.06939697265625,49.3927001953125,0.3570556640625
1663861897443942100,22.629942138671876,-7.879638671875,47.2625732421875,0.34637451171875
1663861897463931100,22.64993115234375,-7.2601318359375,47.71575927734375,-0.26092529296875
1663861897483920100,22.669920166015626,-7.86590576171875,47.8729248046875,0.65460205078125
1663861897503909000,22.6899091796875,-6.97784423828125,46.66748046875,1.56402587890625
1663861897523898000,22.709898193359376,-7.69195556640625,48.78692626953125,0.811767578125
1663861897543887000,22.72988720703125,-7.40814208984375,47.87750244140625,1.11236572265625
1663861897563876000,22.7498759765625,-7.421875,47.27020263671875,1.10931396484375
1663861897583834600,22.769834716796876,-6.79931640625,47.86224365234375,-0.86822509765625
1663861897603854300,22.789854248046876,-6.82373046875,46.8048095703125,-0.11138916015625
1663861897623843300,22.80984326171875,-5.4107666015625,48.49853515625,2.03094482421875
1663861897643832300,22.829832275390626,-4.9835205078125,47.265625,-0.10833740234375
1663861897663821300,22.8498212890625,-2.972412109375,48.492431640625,0.8148193359375
1663861897683810300,22.869810302734376,-1.0009765625,47.906494140625,2.947998046875
1663861897703792000,22.889792236328127,-2.374267578125,47.900390625,2.48870849609375
1663861897723781000,22.909781005859376,0.8209228515625,47.60284423828125,2.49176025390625
1663861897743739600,22.92973974609375,2.3223876953125,46.54693603515625,2.9449462890625
1663861897763759000,22.949759033203126,4.351806640625,48.54583740234375,5.242919921875
1663861897783748000,22.969748046875,8.00323486328125,48.23760986328125,3.87420654296875
1663861897803706600,22.98970654296875,9.20562744140625,47.344970703125,5.85174560546875
1663861897823726000,23.00972607421875,9.185791015625,46.5728759765625,4.3243408203125
1663861897843715000,23.029715087890626,12.37945556640625,46.136474609375,5.8502197265625
1663861897863704000,23.0497041015625,14.06402587890625,46.44775390625,6.31103515625
1663861897883693000,23.069693115234376,16.015625,45.07904052734375,5.84869384765625
1663861897903682300,23.089682373046877,19.8089599609375,44.1864013671875,7.06787109375
1663861897923671300,23.10967138671875,21.466064453125,43.2830810546875,7.6751708984375
1663861897943660300,23.129660400390627,23.12774658203125,42.66510009765625,6.1492919921875
1663861897963649300,23.149649169921876,24.03411865234375,42.22564697265625,7.82470703125
1663861897983638300,23.16963818359375,25.99029541015625,41.02783203125,9.49859619140625
1663861898003596800,23.1895966796875,29.25262451171875,36.94000244140625,10.54840087890625
1663861898023616300,23.2096162109375,31.512451171875,35.7208251953125,9.62982177734375
1663861898043605200,23.229605224609376,33.76312255859375,34.197998046875,8.55865478515625
1663861898063594200,23.24959423828125,35.27069091796875,33.30841064453125,10.84136962890625
1663861898083583200,23.269583251953126,36.7218017578125,30.11474609375,10.21881103515625
1663861898103572200,23.289572265625,38.51776123046875,28.60107421875,10.51788330078125
1663861898123561200,23.309561279296876,39.892578125,28.6163330078125,12.04376220703125
1663861898143550500,23.329550537109377,38.58642578125,24.81536865234375,12.17498779296875
1663861898163539500,23.34953955078125,40.35186767578125,21.94061279296875,13.23089599609375
1663861898183528400,23.369528564453127,40.91949462890625,20.111083984375,12.4603271484375
1663861898203517400,23.389517333984376,42.8985595703125,19.96917724609375,13.0706787109375
1663861898223811600,23.4098115234375,43.603515625,17.39959716796875,14.58282470703125
1663861898243587000,23.429587158203127,45.1202392578125,17.07916259765625,12.29705810546875
1663861898263484400,23.449484375,43.7103271484375,15.41900634765625,13.96484375
1663861898283503900,23.46950390625,44.84710693359375,11.7706298828125,13.64288330078125
1663861898303462400,23.48946240234375,43.15948486328125,11.3128662109375,13.7908935546875
1663861898323451400,23.509451416015626,45.15380859375,11.7767333984375,14.25323486328125
1663861898343440400,23.5294404296875,46.1578369140625,9.0423583984375,14.08843994140625
1663861898363429400,23.549429443359376,45.8648681640625,9.5062255859375,15.15655517578125
1663861898383418600,23.569418701171877,45.69854736328125,8.89739990234375,15.00091552734375
1663861898403407600,23.58940771484375,44.88067626953125,6.46209716796875,14.83612060546875
1663861898423396600,23.609396728515627,46.28448486328125,7.83233642578125,14.691162109375
1663861898443385600,23.629385498046876,45.9625244140625,7.073974609375,14.99176025390625
1663861898463374600,23.64937451171875,45.3521728515625,7.07244873046875,14.99176025390625
1663861898483333000,23.6693330078125,45.806884765625,6.92596435546875,15.6005859375
1663861898503352600,23.6893525390625,45.54901123046875,9.04541015625,14.544677734375
1663861898523341600,23.709341552734376,44.317626953125,8.58154296875,13.9312744140625
1663861898543330600,23.72933056640625,44.94171142578125,9.05914306640625,16.3726806640625
1663861898563319600,23.749319580078126,44.98138427734375,10.87646484375,15.618896484375
1663861898583278000,23.769278076171876,45.7794189453125,12.5274658203125,12.88604736328125
1663861898603297800,23.7892978515625,43.50433349609375,12.994384765625,14.86663818359375
1663861898623286800,23.809286865234377,42.58575439453125,12.8387451171875,14.7125244140625
1663861898643245000,23.8292451171875,44.1497802734375,14.6514892578125,12.8936767578125
1663861898663264800,23.8492646484375,42.20123291015625,16.0308837890625,14.88037109375
1663861898683253800,23.869253662109376,42.7337646484375,19.36798095703125,13.98162841796875
1663861898703212300,23.88921240234375,42.28057861328125,19.525146484375,14.59197998046875
1663861898723231700,23.909231689453126,43.292236328125,23.785400390625,15.07110595703125
1663861898743220700,23.929220703125,39.34783935546875,24.81689453125,12.176513671875
1663861898763209700,23.949209716796876,38.6505126953125,27.69927978515625,11.73248291015625
1663861898783198700,23.96919873046875,35.772705078125,28.466796875,13.2568359375
1663861898803187700,23.989187744140626,35.968017578125,30.426025390625,11.285400390625
1663861898823176700,24.0091767578125,34.93499755859375,31.95037841796875,12.054443359375
1663861898843166000,24.029166015625,33.43353271484375,33.00018310546875,10.83831787109375
1663861898863155000,24.049155029296877,31.20880126953125,35.7330322265625,11.1541748046875
1663861898883144000,24.06914404296875,29.766845703125,39.373779296875,10.71319580078125
1663861898903133000,24.0891328125,27.1575927734375,38.74664306640625,9.0301513671875
1663861898923152400,24.10915234375,25.52642822265625,40.72113037109375,9.34295654296875
1663861898943111000,24.12911083984375,24.3499755859375,42.68341064453125,7.9803466796875
1663861898963100000,24.149099853515626,21.1578369140625,43.13812255859375,8.587646484375
1663861898983089000,24.1690888671875,19.7845458984375,43.121337890625,7.06329345703125
1663861899003078000,24.189077880859376,16.15753173828125,44.61822509765625,5.23681640625
1663861899023067000,24.20906689453125,13.47503662109375,47.3541259765625,5.85784912109375
1663861899043055900,24.229055908203126,11.5936279296875,45.07904052734375,6.91070556640625
1663861899063044900,24.249044921875,9.9334716796875,45.82977294921875,6.15081787109375
1663861899083034000,24.2690341796875,6.75811767578125,47.0306396484375,5.23834228515625
1663861899103389200,24.28938916015625,5.26123046875,48.37799072265625,3.2623291015625
1663861899123164700,24.30916455078125,0.5157470703125,47.59979248046875,2.18658447265625
1663861899143031600,24.329031494140626,-1.24969482421875,50.47760009765625,1.43585205078125
1663861899163020500,24.3490205078125,-2.83203125,47.88970947265625,1.422119140625
1663861899182979000,24.36897900390625,-5.2459716796875,49.09210205078125,0.35858154296875
1663861899202937600,24.3889375,-5.72967529296875,47.882080078125,1.1138916015625
1663861899222957000,24.40895703125,-8.18634033203125,47.25189208984375,-0.872802734375
1663861899242946000,24.428946044921876,-7.71636962890625,47.723388671875,0.8056640625
1663861899262935000,24.44893505859375,-8.6181640625,48.3184814453125,-0.4119873046875
1663861899282924000,24.468924072265626,-8.78448486328125,47.7203369140625,0.80413818359375
1663861899302913000,24.4889130859375,-8.82415771484375,45.9014892578125,1.25274658203125
1663861899322902300,24.50890234375,-7.733154296875,46.966552734375,1.25885009765625
1663861899342891300,24.528891357421877,-8.7738037109375,48.17352294921875,0.50201416015625
1663861899362880300,24.54888037109375,-10.15777587890625,47.70965576171875,-0.26397705078125
1663861899382869200,24.568869140625,-6.158447265625,49.237060546875,-0.25177001953125
1663861899402858200,24.588858154296876,-6.77032470703125,49.09210205078125,0.66070556640625
1663861899422847200,24.60884716796875,-7.25860595703125,47.723388671875,0.8056640625
1663861899442836200,24.628836181640626,-5.2734375,47.882080078125,1.1138916015625
1663861899462825200,24.6488251953125,-7.2479248046875,48.1903076171875,2.02789306640625
1663861899482814200,24.668814208984376,-3.6224365234375,46.673583984375,1.56707763671875
1663861899502803200,24.68880322265625,-3.28216552734375,48.20404052734375,2.64129638671875
1663861899522792200,24.708792236328126,-1.9195556640625,47.7508544921875,2.64129638671875
1663861899542781200,24.72878125,0.994873046875,48.5198974609375,3.10516357421875
1663861899562739700,24.74873974609375,4.19921875,48.66790771484375,1.73797607421875
1663861899582759400,24.768759521484377,5.5450439453125,47.33123779296875,5.08575439453125
1663861899602748400,24.78874853515625,7.67822265625,47.32666015625,4.022216796875
1663861899622737400,24.8087373046875,8.73565673828125,46.875,4.32586669921875
1663861899642726400,24.828726318359376,11.1663818359375,46.4385986328125,6.0028076171875
1663861899662715400,24.84871533203125,13.7603759765625,46.4569091796875,7.53021240234375
1663861899682704400,24.868704345703126,14.78424072265625,44.6197509765625,5.69305419921875
1663861899702693400,24.888693359375,16.60614013671875,44.183349609375,7.52105712890625
1663861899722682400,24.908682373046876,20.10650634765625,43.87969970703125,6.7626953125
1663861899742671400,24.92867138671875,19.91424560546875,42.07000732421875,8.428955078125
1663861899762660400,24.948660400390626,22.62725830078125,40.70892333984375,8.5784912109375
1663861899782649600,24.968649658203127,26.7181396484375,39.50958251953125,9.490966796875
1663861899802638600,24.988638671875,28.37677001953125,38.60931396484375,10.4034423828125
1663861899822627600,25.008627685546877,30.609130859375,36.18621826171875,10.85052490234375
1663861899842616600,25.028616455078126,32.27386474609375,35.72235107421875,9.63134765625
1663861899862605600,25.04860546875,34.46807861328125,31.48956298828125,11.5936279296875
1663861899882594600,25.068594482421876,35.67657470703125,30.902099609375,13.87939453125
1663861899902583600,25.08858349609375,36.21673583984375,27.86102294921875,13.40789794921875
1663861899922572500,25.108572509765626,37.8662109375,26.6510009765625,13.70849609375
1663861899942531000,25.128531005859376,38.7298583984375,24.3804931640625,14.61181640625
1663861899962550500,25.148550537109376,42.462158203125,20.88775634765625,13.9892578125
1663861899982814200,25.168814208984376,43.536376953125,21.18682861328125,13.23089599609375
1663861900002742300,25.1887421875,41.15753173828125,17.0867919921875,14.12200927734375
1663861900022517800,25.208517822265627,42.242431640625,17.8619384765625,15.65093994140625
1663861900042506800,25.2285068359375,44.48089599609375,15.73028564453125,14.727783203125
1663861900062495700,25.248495849609377,44.622802734375,15.2679443359375,13.812255859375
1663861900082484700,25.268484619140626,44.110107421875,12.83416748046875,13.6474609375
1663861900102473700,25.2884736328125,45.46051025390625,11.79046630859375,15.777587890625
1663861900122462700,25.308462646484376,46.2188720703125,11.63482666015625,15.167236328125
1663861900142451700,25.32845166015625,44.0460205078125,9.9639892578125,15.76690673828125
1663861900162440700,25.348440673828126,45.70465087890625,9.1949462890625,14.24102783203125
1663861900182429700,25.3684296875,44.940185546875,9.05303955078125,15.61126708984375
1663861900202418700,25.388418701171876,45.54290771484375,8.75244140625,15.9149169921875
1663861900222407700,25.40840771484375,44.12689208984375,6.90765380859375,13.77105712890625
1663861900242396700,25.428396728515626,46.2738037109375,7.3822021484375,15.4510498046875
1663861900262386000,25.448385986328127,44.30084228515625,7.82318115234375,14.23187255859375
1663861900282375000,25.468375,44.8974609375,7.220458984375,14.53399658203125
1663861900302364000,25.488364013671877,45.70465087890625,9.197998046875,14.697265625
1663861900322353000,25.508352783203126,45.58258056640625,10.56060791015625,14.09454345703125
1663861900342342000,25.528341796875,46.82464599609375,11.4837646484375,15.0146484375
1663861900362331000,25.548330810546876,44.39239501953125,11.785888671875,15.47088623046875
1663861900382319900,25.56831982421875,43.3746337890625,13.92059326171875,16.546630859375
1663861900402308900,25.588308837890626,41.43829345703125,16.02935791015625,14.87884521484375
1663861900422297900,25.6082978515625,41.5435791015625,20.73211669921875,13.83514404296875
1663861900442286800,25.628286865234376,40.960693359375,21.9390869140625,12.92572021484375
1663861900462275800,25.64827587890625,40.85235595703125,23.90289306640625,11.56463623046875
1663861900482264800,25.668264892578126,38.7939453125,27.24609375,12.0361328125
1663861900502254000,25.688254150390627,38.0859375,29.67071533203125,11.28387451171875
1663861900522243000,25.7082431640625,37.0361328125,30.43365478515625,12.04833984375
1663861900542232000,25.728232177734377,34.20257568359375,33.3038330078125,10.53619384765625
1663861900562221000,25.748220947265626,33.1634521484375,34.51995849609375,10.845947265625
1663861900582179600,25.7681796875,31.37969970703125,36.63482666015625,9.7869873046875
1663861900602199000,25.788198974609376,28.5003662109375,37.38555908203125,9.48333740234375
1663861900622188000,25.80818798828125,25.6011962890625,37.37030029296875,8.41217041015625
1663861900642177000,25.828177001953126,26.30462646484375,41.4764404296875,8.58612060546875
1663861900662166000,25.848166015625,22.64556884765625,41.47796630859375,9.64813232421875
1663861900682185700,25.868185791015627,19.6380615234375,43.29376220703125,9.50164794921875
1663861900702144000,25.88814404296875,15.826416015625,43.42193603515625,7.5164794921875
1663861900722133000,25.908133056640626,14.04876708984375,45.6939697265625,7.06939697265625
1663861900742122200,25.928122314453127,10.83526611328125,45.23468017578125,7.51953125
1663861900762111200,25.948111328125,8.26873779296875,46.42333984375,4.931640625
1663861900782100200,25.968100341796877,5.6884765625,47.01690673828125,3.86505126953125
1663861900802089200,25.988089111328126,3.40728759765625,47.3114013671875,3.25469970703125
1663861900822078200,26.008078125,-0.10833740234375,46.98486328125,1.57318115234375
1663861900842036700,26.02803662109375,-1.15966796875,47.73712158203125,0.81329345703125
1663861900862056200,26.04805615234375,-4.95147705078125,48.638916015625,0.66070556640625
1663861900882350300,26.068350341796876,-3.60870361328125,47.412109375,-1.019287109375
1663861900902095400,26.088095458984377,-6.50482177734375,47.41058349609375,-0.56610107421875
1663861900922023200,26.108023193359376,-8.0108642578125,48.175048828125,0.5035400390625
1663861900942043000,26.12804296875,-6.94580078125,48.162841796875,-1.324462890625
1663861900962001400,26.14800146484375,-7.87506103515625,47.55096435546875,-1.48162841796875
1663861900981959700,26.167959716796876,-7.867431640625,47.8607177734375,-0.8697509765625
1663861901001979400,26.1879794921875,-7.89794921875,46.49200439453125,-0.87738037109375
1663861901021968400,26.207968505859377,-7.23724365234375,48.773193359375,-1.01776123046875
1663861901041957400,26.227957275390626,-8.65325927734375,46.795654296875,-0.8758544921875
1663861901061976800,26.247976806640626,-8.1787109375,47.5555419921875,-0.87127685546875
1663861901081935400,26.267935302734376,-7.26165771484375,47.7020263671875,-1.7852783203125
1663861901101924400,26.28792431640625,-6.83135986328125,46.49505615234375,-0.8758544921875
1663861901121913300,26.307913330078126,-6.48040771484375,48.4771728515625,-0.25634765625
1663861901141902300,26.32790234375,-7.41729736328125,47.54791259765625,-1.9378662109375
1663861901161891300,26.347891357421876,-4.38079833984375,46.95892333984375,-0.56610107421875
1663861901181880300,26.36788037109375,-3.91693115234375,47.26104736328125,-0.86822509765625
1663861901201869600,26.38786962890625,-3.582763671875,48.480224609375,-0.55694580078125
1663861901221858600,26.407858642578127,-0.37994384765625,48.492431640625,0.05645751953125
1663861901241847600,26.42784765625,0.9796142578125,47.76763916015625,3.863525390625
1663861901261806000,26.44780615234375,3.4393310546875,48.6785888671875,3.26080322265625
1663861901281825500,26.467825439453126,4.19464111328125,48.3795166015625,3.56597900390625
1663861901301814500,26.487814453125,6.7413330078125,46.39892578125,2.33917236328125
1663861901321803500,26.507803466796876,9.96856689453125,47.35260009765625,6.61468505859375
1663861901341792500,26.52779248046875,12.10174560546875,47.344970703125,5.0933837890625
1663861901361751000,26.5477509765625,13.09967041015625,44.30389404296875,4.77447509765625
1663861901381770500,26.5677705078125,15.41900634765625,45.6878662109375,6.0028076171875
1663861901401759500,26.587759521484376,18.16558837890625,45.831298828125,4.3304443359375
1663861901421748500,26.60774853515625,19.818115234375,44.63958740234375,6.7657470703125
1663861901441737700,26.62773779296875,22.0458984375,42.05322265625,5.841064453125
1663861901461726700,26.647726806640627,23.431396484375,42.52777099609375,7.82623291015625
1663861901481715700,26.6677158203125,27.19879150390625,40.5609130859375,7.97271728515625
1663861901501704700,26.68770458984375,27.58941650390625,37.542724609375,10.3973388671875
1663861901521693700,26.707693603515626,28.5003662109375,37.39166259765625,10.2447509765625
1663861901541682700,26.7276826171875,31.53533935546875,36.7828369140625,9.33074951171875
1663861901561671700,26.747671630859376,32.55767822265625,34.6771240234375,11.75994873046875
1663861901581660700,26.76766064453125,34.04693603515625,33.15887451171875,11.4501953125
1663861901601649700,26.787649658203126,37.19329833984375,30.596923828125,13.26904296875
1663861901621638700,26.807638671875,36.72332763671875,30.12542724609375,11.590576171875
1663861901641627600,26.827627685546876,39.794921875,24.36370849609375,12.32757568359375
1663861901661616600,26.84761669921875,41.45965576171875,23.760986328125,12.4786376953125
1663861901681606000,26.86760595703125,42.79022216796875,21.94366455078125,12.92877197265625
1663861901701595000,26.887594970703127,42.7276611328125,19.0765380859375,15.50445556640625
1663861901721583900,26.907583984375,43.12744140625,16.4947509765625,15.49224853515625
1663861901741572900,26.92757275390625,42.33856201171875,15.41290283203125,13.65814208984375
1663861901761928000,26.947927978515626,43.5211181640625,13.7542724609375,14.86968994140625
1663861901781703400,26.967703369140626,45.623779296875,12.384033203125,14.10369873046875
1663861901801539800,26.987539794921876,44.5159912109375,10.5621337890625,14.55078125
1663861901821528800,27.00752880859375,44.7845458984375,8.90350341796875,16.0675048828125
1663861901841487400,27.0274873046875,45.99761962890625,8.599853515625,15.7623291015625
1663861901861506800,27.0475068359375,44.873046875,6.15234375,14.0716552734375
1663861901881495800,27.067495849609376,45.3338623046875,6.30950927734375,14.68353271484375
1663861901901484800,27.08748486328125,46.07696533203125,5.401611328125,14.83154296875
1663861901921474000,27.10747412109375,46.52862548828125,5.10406494140625,15.59295654296875
1663861901941463000,27.127463134765627,46.22650146484375,5.25665283203125,15.74554443359375
1663861901961452000,27.1474521484375,45.8740234375,3.13568115234375,16.49627685546875
1663861901981441000,27.16744091796875,46.04644775390625,4.03900146484375,15.58685302734375
1663861902001430000,27.187429931640626,45.16143798828125,5.3985595703125,14.83154296875
1663861902021419000,27.2074189453125,44.36798095703125,4.03289794921875,15.1275634765625
1663861902041408000,27.227407958984376,44.866943359375,5.8563232421875,15.13824462890625
1663861902061397000,27.24739697265625,45.20416259765625,7.2357177734375,16.363525390625
1663861902081386000,27.267385986328126,45.123291015625,10.41259765625,14.703369140625
1663861902101375000,27.287375,45.73211669921875,10.40802001953125,13.94195556640625
1663861902121333500,27.30733349609375,44.24285888671875,11.932373046875,14.862060546875
1663861902141353000,27.32735302734375,44.2596435546875,12.6953125,15.1702880859375
1663861902161342200,27.34734228515625,42.78411865234375,14.82391357421875,15.63720703125
