time,seconds_elapsed,z,y,x
1663861755271063600,0.2630634765625,0.02236461639404297,0.1659102439880371,0.30171751976013184
1663861755280951300,0.272951416015625,0.32236766815185547,0.7425785064697266,0.7115638256072998
1663861755290839000,0.282839111328125,0.8248319625854492,0.8905432224273682,1.0766172409057617
1663861755300696300,0.2926962890625,0.7548866271972656,0.7536637783050537,1.3116704225540161
1663861755310583800,0.302583740234375,0.21560001373291016,0.6396081447601318,1.3912429809570312
1663861755320471600,0.312471435546875,-0.04763507843017578,0.5448191165924072,1.3488644361495972
1663861755330359300,0.322359375,0.10914230346679688,0.22392916679382324,1.2199376821517944
1663861755340277500,0.332277587890625,0.6899595260620117,-0.20302987098693848,0.9380645751953125
1663861755350165200,0.342165283203125,1.7052640914916992,-0.7610912322998047,-0.4619622826576233
1663861755360053000,0.352052978515625,3.0174036026000977,-1.3267533779144287,-3.0764081478118896
1663861755369910000,0.361909912109375,2.020144462585449,-1.634300947189331,-3.706206798553467
1663861755379797800,0.3717978515625,-0.37581920623779297,-1.1772587299346924,-1.398351788520813
1663861755389655000,0.381655029296875,-0.49629878997802734,0.14750170707702637,0.4176410436630249
1663861755399542800,0.391542724609375,0.9036273956298828,1.0560154914855957,1.0108262300491333
1663861755409430300,0.40143017578125,1.3952598571777344,0.8119120597839355,0.8702183961868286
1663861755419318000,0.411318115234375,1.6533374786376953,-0.24165868759155273,0.1609426736831665
1663861755429175300,0.42117529296875,1.9692249298095703,-1.1211674213409424,-0.5677646398544312
1663861755439063000,0.43106298828125,1.7460832595825195,-1.3875746726989746,-0.7985607385635376
1663861755448981200,0.440981201171875,0.7930002212524414,-1.028289794921875,-0.04586052894592285
1663861755458838300,0.45083837890625,-0.11899185180664062,-0.19365310668945312,0.8373134732246399
1663861755468726000,0.46072607421875,-0.17342853546142578,0.6658408641815186,1.1112873554229736
1663861755478583300,0.470583251953125,0.05741405487060547,1.0876200199127197,0.8327322006225586
1663861755488470800,0.480470703125,-0.017066001892089844,0.6479458808898926,0.23365870118141174
1663861755498389000,0.490388916015625,0.2696990966796875,-0.19733548164367676,-0.6604617834091187
1663861755508276700,0.50027685546875,0.5704612731933594,-0.7622544765472412,-1.1488144397735596
1663861755518164500,0.51016455078125,0.3820371627807617,-0.5103557109832764,-0.6867636442184448
1663861755528052200,0.52005224609375,-0.03709888458251953,0.30194902420043945,-0.11077302694320679
1663861755537940000,0.52993994140625,-0.5865983963012695,1.082158088684082,0.26156723499298096
1663861755547827700,0.53982763671875,-1.4027471542358398,1.3825204372406006,0.5546927452087402
1663861755557715200,0.549715087890625,-1.7328357696533203,1.0982303619384766,0.4029269516468048
1663861755567603000,0.55960302734375,-1.655198097229004,0.5182583332061768,0.07497148215770721
1663861755577490700,0.56949072265625,-1.4437570571899414,0.0046427249908447266,-0.30657583475112915
1663861755587317200,0.579317138671875,-1.5219230651855469,0.02011251449584961,-0.5141263008117676
1663861755597205000,0.589205078125,-1.3188533782958984,0.6613197326660156,-0.27474913001060486
1663861755607092700,0.5990927734375,-0.3095970153808594,1.055962085723877,0.11589431762695312
1663861755616980500,0.60898046875,0.5889053344726562,0.3655693531036377,-0.06676477193832397
1663861755626868200,0.6188681640625,0.7225847244262695,-0.5143578052520752,-0.783769428730011
1663861755636755700,0.628755615234375,0.08653545379638672,-0.5252375602722168,-0.9888569712638855
1663861755646643500,0.6386435546875,-0.4351472854614258,-0.24396467208862305,-0.6097524166107178
1663861755656531200,0.64853125,-0.43736934661865234,-0.20122289657592773,-0.2153015434741974
1663861755666419000,0.6584189453125,-0.1904458999633789,0.06632685661315918,-0.08441212773323059
1663861755676306700,0.668306640625,-0.19664859771728516,0.31629180908203125,0.25086110830307007
1663861755686194200,0.678194091796875,0.09409046173095703,0.39200472831726074,0.19893045723438263
1663861755696051500,0.688051513671875,0.18068981170654297,0.423877477645874,0.15197962522506714
1663861755705908700,0.69790869140625,-0.04527473449707031,0.03505539894104004,-0.1760120540857315
1663861755715765800,0.707765869140625,0.05898284912109375,-0.1495668888092041,-0.5979244112968445
1663861755725684000,0.71768408203125,0.14488887786865234,-0.10268807411193848,-0.6331422924995422
1663861755735571700,0.72757177734375,0.30877685546875,-0.029813289642333984,-0.4016856551170349
1663861755745459500,0.73745947265625,0.6009140014648438,0.18588638305664062,-0.28657403588294983
1663861755755316500,0.74731640625,0.3691987991333008,0.07280969619750977,-0.7359978556632996
1663861755765173800,0.757173828125,-0.22159194946289062,-0.011708498001098633,-0.8266870379447937
1663861755775092000,0.767092041015625,-0.0040073394775390625,-0.09447693824768066,0.1405748426914215
1663861755784949200,0.77694921875,0.3070344924926758,-0.21498465538024902,0.5926755666732788
1663861755794867500,0.786867431640625,-0.0043582916259765625,-0.020313501358032227,0.3382312059402466
1663861755804755200,0.796755126953125,-0.4282798767089844,0.04654335975646973,0.1751229166984558
1663861755814642700,0.806642578125,-0.10045909881591797,-0.1916358470916748,0.2383405566215515
1663861755824530400,0.816530517578125,0.4976463317871094,-0.36025452613830566,0.30636805295944214
1663861755834418200,0.826418212890625,0.6235027313232422,-0.39086437225341797,0.2078976333141327
1663861755844306000,0.836305908203125,0.3197641372680664,-0.36737513542175293,-0.03868520259857178
1663861755854163000,0.846162841796875,-0.0757455825805664,-0.35558652877807617,-0.13462381064891815
1663861755864050700,0.85605078125,-0.12903594970703125,-0.32815027236938477,-0.28121230006217957
1663861755873938400,0.8659384765625,-0.09242534637451172,-0.43697237968444824,-0.5282713174819946
1663861755883826200,0.875826171875,-0.4002342224121094,-0.5051455497741699,-0.24842022359371185
1663861755893713700,0.885713623046875,-0.7861185073852539,0.08253312110900879,0.552443265914917
1663861755903601400,0.895601318359375,-1.3165016174316406,0.6415615081787109,1.4144256114959717
1663861755913489200,0.9054892578125,-1.6850042343139648,0.760246992111206,1.4553914070129395
1663861755923377000,0.915376953125,-1.7388858795166016,0.287320613861084,0.6603509187698364
1663861755933234000,0.92523388671875,-1.4542360305786133,-0.4723386764526367,-0.21082711219787598
1663861755943121700,0.93512158203125,-1.0713834762573242,-0.7130300998687744,-0.3465169072151184
1663861755953009400,0.945009521484375,-0.678776741027832,-0.42276644706726074,0.0045945048332214355
1663861755962897200,0.954897216796875,-0.3438701629638672,-0.10902786254882812,0.31794261932373047
1663861755972785000,0.964784912109375,-0.20509624481201172,0.15376996994018555,0.6730534434318542
1663861755982672400,0.97467236328125,-0.017960548400878906,0.21001791954040527,1.068259835243225
1663861755992529700,0.98452978515625,0.028982162475585938,0.06272053718566895,1.132951021194458
1663861756002417400,0.99441748046875,-0.021776199340820312,-0.08960247039794922,0.8495988845825195
1663861756012305200,1.00430517578125,-0.07516860961914062,-0.11507916450500488,0.5588346719741821
1663861756022192600,1.014192626953125,-0.3505115509033203,-0.09030914306640625,0.42131364345550537
1663861756032080400,1.024080322265625,-0.47696399688720703,0.009256362915039062,0.3548687696456909
1663861756041968000,1.033968017578125,-0.5669183731079102,-0.0896461009979248,0.4651585817337036
1663861756051825400,1.043825439453125,-0.4737510681152344,-0.19054341316223145,0.4217890501022339
1663861756061682400,1.053682373046875,-0.36631202697753906,-0.20262527465820312,0.2807941436767578
1663861756071570200,1.063570068359375,-0.2840709686279297,-0.16602277755737305,0.2818746566772461
1663861756081458000,1.0734580078125,-0.46071720123291016,-0.13142037391662598,0.23298406600952148
1663861756091345700,1.083345703125,-0.7770938873291016,-0.28098583221435547,0.19684278964996338
1663861756101202700,1.09320263671875,-1.0345344543457031,-0.5531437397003174,0.09827935695648193
1663861756111090400,1.10309033203125,-1.1126461029052734,-0.7634716033935547,-0.1993783712387085
1663861756120978200,1.112978271484375,-1.0241899490356445,-0.9245805740356445,-0.4587787389755249
1663861756130866000,1.122865966796875,-0.7173318862915039,-1.0381639003753662,-0.4682348966598511
1663861756140753700,1.132753662109375,-0.3169670104980469,-0.996009111404419,-0.34255552291870117
1663861756150641200,1.14264111328125,0.08348751068115234,-0.7963423728942871,-0.16779685020446777
1663861756160529000,1.15252880859375,0.17340373992919922,-0.5887963771820068,-0.05624699592590332
1663861756170416600,1.162416748046875,-0.28197669982910156,-0.5937230587005615,0.03814816474914551
1663861756180274000,1.17227392578125,-1.1210870742797852,-0.6662952899932861,0.1317901611328125
1663861756190131000,1.182130859375,-1.5444831848144531,-0.7929670810699463,-0.2857339382171631
1663861756200018700,1.192018798828125,-1.4774398803710938,-1.1617746353149414,-0.9548182487487793
1663861756209906400,1.201906494140625,-1.512282371520996,-1.9289178848266602,-1.5956499576568604
1663861756219824600,1.21182470703125,-1.469888687133789,-2.9481728076934814,-2.0200836658477783
1663861756229712400,1.22171240234375,-1.6042394638061523,-3.9365315437316895,-2.366642951965332
1663861756239569400,1.2315693359375,-1.7951903343200684,-4.508334159851074,-2.2959671020507812
1663861756249457200,1.24145703125,-2.245398998260498,-4.713374137878418,-2.3658876419067383
1663861756259314400,1.251314453125,-3.064070701599121,-4.724188804626465,-3.191387176513672
1663861756269232600,1.261232666015625,-3.6799778938293457,-4.751655578613281,-3.7870383262634277
1663861756279089700,1.271089599609375,-4.423327445983887,-4.707343101501465,-3.861581802368164
1663861756288977400,1.280977294921875,-5.125083923339844,-4.60374641418457,-4.339822292327881
1663861756298865200,1.290865234375,-5.3732781410217285,-4.606013298034668,-5.247580051422119
1663861756308753000,1.3007529296875,-5.46710729598999,-5.161626815795898,-6.475723743438721
1663861756318640400,1.310640380859375,-5.702704906463623,-6.566045761108398,-7.713784694671631
1663861756328528100,1.320528076171875,-5.6767144203186035,-8.431217193603516,-8.219135284423828
1663861756338385400,1.330385498046875,-7.229122161865234,-9.805882453918457,-7.570566177368164
1663861756348273200,1.340273193359375,-11.06757926940918,-10.413858413696289,-4.8317179679870605
1663861756358161000,1.350160888671875,-8.850334167480469,-10.422046661376953,-2.9812965393066406
1663861756368048400,1.36004833984375,-3.4181199073791504,-10.260536193847656,-3.4545984268188477
1663861756377936100,1.36993603515625,-1.4128549098968506,-10.30419921875,-3.300663948059082
1663861756387823900,1.379823974609375,-2.388782262802124,-10.224268913269043,-1.8649249076843262
1663861756397681200,1.38968115234375,-3.53139591217041,-10.238527297973633,0.13608741760253906
1663861756407568600,1.399568603515625,-2.8285210132598877,-10.1502103805542,1.6453518867492676
1663861756417456400,1.409456298828125,-1.4677730798721313,-10.463861465454102,2.1950249671936035
1663861756427344100,1.41934423828125,-1.1477515697479248,-9.97834300994873,4.672459125518799
1663861756437231900,1.42923193359375,-0.9575835466384888,-8.495475769042969,7.064348220825195
1663861756447119600,1.43911962890625,-0.5877749919891357,-7.407574653625488,8.689210891723633
1663861756457007000,1.449007080078125,-0.6425485610961914,-6.480323791503906,10.838092803955078
1663861756466894800,1.458894775390625,-1.2293567657470703,-5.200063228607178,11.983768463134766
1663861756476782600,1.468782470703125,-1.3364285230636597,-4.415283203125,12.036043167114258
1663861756486639900,1.478639892578125,-1.5204335451126099,-4.314386367797852,11.035249710083008
1663861756496497000,1.488496826171875,-1.1859246492385864,-4.026601791381836,11.13049030303955
1663861756506415000,1.4984150390625,-1.3423235416412354,-2.9936885833740234,12.876556396484375
1663861756516302800,1.508302734375,-3.5391714572906494,-0.967806339263916,15.534137725830078
1663861756526160100,1.51816015625,-5.849037170410156,1.2166028022766113,17.48088836669922
1663861756536047600,1.528047607421875,-6.909194469451904,2.1342830657958984,17.100736618041992
1663861756545905000,1.53790478515625,-7.28827428817749,2.1964235305786133,15.119287490844727
1663861756555823000,1.547822998046875,-7.310886383056641,1.7858080863952637,13.068679809570312
1663861756565710800,1.5577109375,-6.659023284912109,1.299570083618164,11.376537322998047
1663861756575598600,1.5675986328125,-5.0109710693359375,0.8204808235168457,9.712204933166504
1663861756585486300,1.577486328125,-3.0489754676818848,0.601128101348877,7.482544898986816
1663861756595373800,1.587373779296875,-2.0625717639923096,-0.0033926963806152344,4.319272518157959
1663861756605261600,1.597261474609375,-1.5184693336486816,0.09369134902954102,2.468852996826172
1663861756615149300,1.6071494140625,-0.15150713920593262,0.3741145133972168,1.8461980819702148
1663861756625037000,1.617037109375,1.5459922552108765,0.9399614334106445,2.4003868103027344
1663861756634924800,1.6269248046875,2.966008186340332,2.0180888175964355,3.5144853591918945
1663861756644781800,1.63678173828125,3.390923500061035,3.005655288696289,4.398391246795654
1663861756654669600,1.646669677734375,2.5478999614715576,4.024212837219238,4.741866111755371
1663861756664557300,1.656557373046875,1.7335000038146973,4.466865539550781,4.244449138641357
1663861756674445000,1.666445068359375,1.7932915687561035,4.961836814880371,4.040929794311523
1663861756684332500,1.67633251953125,-0.44707775115966797,5.255639553070068,4.732361316680908
1663861756694220300,1.68622021484375,-2.8451483249664307,6.315986156463623,5.5592145919799805
1663861756704077600,1.69607763671875,-2.8131093978881836,6.559704780578613,5.963373184204102
1663861756713965300,1.70596533203125,-1.0183361768722534,5.670376777648926,4.989259719848633
1663861756723852800,1.715852783203125,-0.22532212734222412,4.847860336303711,3.313077926635742
1663861756733740500,1.725740478515625,-1.2595009803771973,4.097861289978027,1.0596933364868164
1663861756743628300,1.735628173828125,-3.136530876159668,3.607760429382324,-1.7950916290283203
1663861756753516000,1.74551611328125,-3.131998062133789,3.878891944885254,-4.512172698974609
1663861756763373000,1.755373046875,-5.072854518890381,3.0661892890930176,-5.763544082641602
1663861756773260800,1.7652607421875,-7.383937835693359,2.327833414077759,-5.9903154373168945
1663861756783148500,1.7751484375,-7.1808319091796875,0.8914568424224854,-6.317728042602539
1663861756793036300,1.785036376953125,-5.426168441772461,-1.0521419048309326,-6.278837203979492
1663861756802924000,1.794924072265625,-4.112058162689209,-1.9817590713500977,-6.50173282623291
1663861756812781000,1.804781005859375,-2.7375192642211914,-1.9967143535614014,-7.176023483276367
1663861756822668800,1.814668701171875,-4.124325275421143,-2.556694746017456,-2.6716041564941406
1663861756832556500,1.824556640625,-0.23599104583263397,-3.4914627075195312,-4.097382545471191
1663861756842444300,1.8344443359375,7.937855243682861,4.471189498901367,-4.242204666137695
1663861756852332000,1.84433203125,2.2763638496398926,0.32679271697998047,4.874056816101074
1663861756862219500,1.854219482421875,-0.18394652009010315,-1.2151241302490234,0.5909757614135742
1663861756872107300,1.864107177734375,0.7059881091117859,0.24225521087646484,-0.7386808395385742
1663861756881964500,1.873964599609375,0.23171579837799072,-0.2135753631591797,0.12545204162597656
1663861756891821600,1.883821533203125,-0.5631560683250427,-0.44878625869750977,2.9871673583984375
1663861756901709300,1.893709228515625,1.3982884883880615,-1.11307954788208,4.718257904052734
1663861756911597000,1.90359716796875,-2.6829874515533447,0.6448988914489746,3.0847911834716797
1663861756921484800,1.91348486328125,-2.954957962036133,-2.223865032196045,-2.2887673377990723
1663861756931372500,1.92337255859375,0.6282280087471008,-5.001328468322754,-4.443270206451416
1663861756941260000,1.933260009765625,1.0720553398132324,-6.374545574188232,-3.499782085418701
1663861756951147800,1.943147705078125,-2.906383991241455,-7.516332149505615,-4.4375810623168945
1663861756961035500,1.953035400390625,-2.1637496948242188,-8.517354965209961,-4.557827949523926
1663861756970923300,1.96292333984375,-0.23901867866516113,-8.522701263427734,-0.41309356689453125
1663861756980811000,1.97281103515625,2.4180314540863037,-7.862107753753662,5.712426662445068
1663861756990698500,1.982698486328125,1.6835310459136963,-5.585688591003418,6.179050922393799
1663861757000555800,1.9925556640625,-1.4383918046951294,-3.876239776611328,6.273584365844727
1663861757010443500,2.002443603515625,-3.367719888687134,-3.0043983459472656,3.9393744468688965
1663861757020331300,2.012331298828125,-1.2750022411346436,-2.6487045288085938,0.6248350143432617
1663861757030218800,2.02221875,0.6635265350341797,-2.297909736633301,-1.4634160995483398
1663861757040106500,2.0321064453125,-0.6853443384170532,-4.786701202392578,-5.1883416175842285
1663861757049963800,2.0419638671875,1.150807499885559,-5.018226623535156,-5.180510997772217
1663861757059851500,2.0518515625,-3.551262855529785,0.2771921157836914,1.9902796745300293
1663861757069739300,2.0617392578125,-6.140900135040283,2.3312153816223145,3.849067211151123
1663861757079626800,2.071626708984375,1.7717528343200684,3.5299768447875977,2.4094347953796387
1663861757089514500,2.081514404296875,2.863694906234741,0.691828727722168,-2.3005571365356445
1663861757099402200,2.09140234375,-1.1917014122009277,-1.519719123840332,-5.2584614753723145
1663861757109259500,2.101259521484375,-0.7748055458068848,0.03550243377685547,-1.5480337142944336
1663861757119147000,2.11114697265625,1.2971234321594238,0.6852102279663086,2.0197157859802246
1663861757129034800,2.12103466796875,3.289877414703369,0.17650222778320312,3.034900665283203
1663861757138922500,2.130922607421875,-1.4189716577529907,-0.7809834480285645,0.5947737693786621
1663861757148810200,2.140810302734375,-1.9389097690582275,0.4398980140686035,-0.13900375366210938
1663861757158667300,2.150667236328125,-0.06346780061721802,0.9679985046386719,-1.8353962898254395
1663861757168524500,2.160524658203125,-0.3056577444076538,-0.1806321144104004,-2.439876079559326
1663861757178412300,2.170412353515625,-0.06024295091629028,-1.2675132751464844,-1.4395947456359863
1663861757188300000,2.180300048828125,-0.23886704444885254,-1.9508352279663086,-0.28546953201293945
1663861757198187500,2.1901875,0.11321896314620972,-1.7929363250732422,-0.691138744354248
1663861757208075300,2.2000751953125,-1.5647039413452148,-0.5949678421020508,-0.26092052459716797
1663861757217963000,2.209962890625,-2.1392483711242676,0.030118942260742188,-0.03693389892578125
1663861757227850800,2.219850830078125,-0.35387805104255676,-0.7205228805541992,-1.3914008140563965
1663861757237707800,2.229707763671875,1.7926859855651855,-0.8202247619628906,-1.2096691131591797
1663861757247565000,2.23956494140625,0.05011016130447388,-1.605020523071289,-0.9256753921508789
1663861757257483300,2.249483154296875,-3.106539011001587,1.1711597442626953,0.39389467239379883
1663861757267371000,2.25937109375,-1.4497069120407104,2.909259796142578,1.0343875885009766
1663861757277258800,2.2692587890625,0.5372520685195923,2.201329231262207,0.3565354347229004
1663861757287146200,2.279146240234375,0.237005352973938,5.950047492980957,-2.028301239013672
1663861757297003500,2.28900341796875,3.3617095947265625,8.979551315307617,-6.054259777069092
1663861757306891300,2.298891357421875,4.747326374053955,5.080950736999512,1.1389179229736328
1663861757316779000,2.308779052734375,-2.548123836517334,1.2475757598876953,3.2331972122192383
1663861757326666800,2.318666748046875,-1.8273850679397583,1.7905864715576172,2.8169798851013184
1663861757336554200,2.32855419921875,1.186474084854126,-0.21216106414794922,0.7367410659790039
1663861757346442000,2.33844189453125,-1.8337888717651367,-1.8153457641601562,0.06995820999145508
1663861757356299300,2.34829931640625,-0.019317984580993652,-2.1655168533325195,-0.554469108581543
1663861757366156300,2.35815625,-2.914226531982422,-2.431550979614258,-2.202547550201416
1663861757376074500,2.368074462890625,-1.9195764064788818,-4.799314498901367,-2.394474744796753
1663861757385962200,2.377962158203125,1.364851951599121,-4.39134407043457,-3.0648856163024902
1663861757395819500,2.387819580078125,-0.24250155687332153,-5.1084442138671875,-4.346214294433594
1663861757405707300,2.397707275390625,-4.287876605987549,-2.615385055541992,-3.076828956604004
1663861757415594800,2.4075947265625,-0.48118889331817627,-1.434666633605957,0.8558142185211182
1663861757425482500,2.417482421875,2.6908726692199707,-2.054905891418457,1.405332088470459
1663861757435370200,2.427370361328125,3.800628662109375,0.7651042938232422,3.316106081008911
1663861757445227500,2.4372275390625,1.8954317569732666,2.065662384033203,3.3859779834747314
1663861757455145700,2.447145751953125,-0.35620254278182983,0.48192691802978516,0.9492872953414917
1663861757465033200,2.457033203125,-2.9945871829986572,-0.49155521392822266,-2.5903522968292236
1663861757474921000,2.4669208984375,-2.458889961242676,-0.056326866149902344,-4.69584846496582
1663861757484778200,2.4767783203125,2.088165760040283,0.5784711837768555,-6.2368998527526855
1663861757494635300,2.48663525390625,2.2072551250457764,1.4676523208618164,-5.2382307052612305
1663861757504523000,2.49652294921875,-0.9581236839294434,2.9653701782226562,-2.727332830429077
1663861757514441200,2.506441162109375,-2.066176414489746,3.575406074523926,-3.158444881439209
1663861757524329000,2.516328857421875,-0.8590131402015686,2.844132423400879,-3.4049551486968994
1663861757534216700,2.526216796875,0.3920673429965973,2.222781181335449,-3.3430886268615723
1663861757544104400,2.5361044921875,1.1065013408660889,1.7488431930541992,-2.1526992321014404
1663861757553992200,2.5459921875,0.24435093998908997,-0.6396398544311523,-1.8014636039733887
1663861757563879700,2.555879638671875,-0.12417230010032654,-1.6528844833374023,0.2759058475494385
1663861757573737000,2.565737060546875,0.04384946823120117,-1.3802576065063477,1.687447190284729
1663861757583594200,2.57559423828125,-0.6287059783935547,-1.9148693084716797,1.9643034934997559
1663861757593451300,2.585451171875,-0.6746671795845032,-4.881949424743652,1.0537688732147217
1663861757603369500,2.595369384765625,-1.7330234050750732,-13.307004928588867,-0.09836488962173462
1663861757613257200,2.60525732421875,-2.3208067417144775,-25.989974975585938,1.5805846452713013
1663861757623145000,2.61514501953125,1.854750156402588,-12.554553031921387,4.516611099243164
1663861757633032700,2.62503271484375,1.283794641494751,3.3699846267700195,4.770946979522705
1663861757642920200,2.634920166015625,-0.9569978713989258,3.4524364471435547,1.3059049844741821
1663861757652808000,2.644807861328125,-0.5985357761383057,0.05049896240234375,-2.1419715881347656
1663861757662695700,2.65469580078125,-0.9624679088592529,-2.23201847076416,-3.7950387001037598
1663861757672575500,2.664575439453125,-0.65102219581604,-1.8177337646484375,-3.3099594116210938
1663861757682432800,2.674432861328125,-0.2364649772644043,-0.7536439895629883,-1.476622462272644
1663861757692290000,2.6842900390625,-0.3577296733856201,-0.9043188095092773,-0.3878600597381592
1663861757702177500,2.694177490234375,-0.4662281274795532,-1.542618751525879,-0.6228337287902832
1663861757712065300,2.704065185546875,-0.1244509220123291,-1.2937288284301758,-0.7077715396881104
1663861757721922600,2.713922607421875,-0.5508233308792114,-0.8512697219848633,-0.8227190971374512
1663861757731840800,2.7238408203125,-1.1556587219238281,-0.9375677108764648,-1.6959296464920044
1663861757741728500,2.733728515625,-1.599333643913269,-0.8401527404785156,-1.8104708194732666
1663861757751616000,2.743615966796875,-0.7968807220458984,-0.0010423660278320312,-0.809380054473877
1663861757761503700,2.753503662109375,0.5935482978820801,0.7858028411865234,0.32514381408691406
1663861757771391500,2.7633916015625,1.0326920747756958,0.769099235534668,1.011918306350708
1663861757781279200,2.773279296875,0.6745901107788086,0.19181156158447266,1.0281949043273926
1663861757791136300,2.78313623046875,0.1498037576675415,-0.4262199401855469,0.6942758560180664
1663861757801024000,2.79302392578125,-0.04191768169403076,-0.8322114944458008,0.31623661518096924
1663861757810911700,2.802911865234375,-0.044064342975616455,-1.010239601135254,0.12349534034729004
1663861757820799500,2.812799560546875,-0.06462287902832031,-0.9681243896484375,-0.08883190155029297
1663861757830687200,2.822687255859375,0.030414819717407227,-0.8307428359985352,-0.18918144702911377
1663861757840574700,2.83257470703125,0.13521501421928406,-0.7344789505004883,-0.3305619955062866
1663861757850462500,2.84246240234375,-0.09362626075744629,-0.9491844177246094,-0.5914607048034668
1663861757860350200,2.85235009765625,-0.30503275990486145,-0.8544235229492188,-0.6224521398544312
1663861757870207500,2.86220751953125,-0.32626578211784363,-0.20545578002929688,-0.579923152923584
1663861757880095200,2.87209521484375,-0.30339622497558594,0.4697837829589844,-0.7809062004089355
1663861757889952300,2.8819521484375,-0.2818351686000824,0.602330207824707,-1.4471205472946167
1663861757899840000,2.891840087890625,-0.37075918912887573,0.27750205993652344,-1.8085581064224243
1663861757909727700,2.901727783203125,-0.19823861122131348,-0.2774801254272461,-1.5635428428649902
1663861757919615500,2.911615478515625,0.10494217276573181,-0.8433084487915039,-0.72926926612854
1663861757929472500,2.921472412109375,0.04710415005683899,-1.1601219177246094,0.21577823162078857
1663861757939360300,2.9313603515625,0.0027225613594055176,-1.0275630950927734,0.6595231294631958
1663861757949217500,2.941217529296875,-0.10400697588920593,-0.859065055847168,0.3520181179046631
1663861757959135700,2.9511357421875,-0.27765148878097534,-0.7102460861206055,-0.10398244857788086
1663861757969023200,2.961023193359375,-0.3612757623195648,-0.5535602569580078,-0.27076947689056396
1663861757978911000,2.970910888671875,-0.27930083870887756,-0.5874929428100586,-0.06706762313842773
1663861757988768300,2.980768310546875,0.05747506022453308,-0.5834856033325195,0.06984400749206543
1663861757998656000,2.990656005859375,0.32764238119125366,0.5369300842285156,0.3554840087890625
1663861758008513000,3.000512939453125,0.30351725220680237,1.6388435363769531,-1.043088674545288
1663861758018431200,3.01043115234375,-0.9941429495811462,2.4370288848876953,-0.27961266040802
1663861758028319000,3.020319091796875,-1.3385729789733887,0.5676565170288086,-1.1991609334945679
1663861758038176300,3.03017626953125,-1.2959182262420654,-0.8232526779174805,-2.221315622329712
1663861758048063700,3.040063720703125,-0.9269840717315674,-1.978133201599121,-1.925550937652588
1663861758057951500,3.049951416015625,-0.60636305809021,-3.5360536575317383,-1.2845815420150757
1663861758067839200,3.059839111328125,-0.5980115532875061,-2.7336854934692383,-0.03930974006652832
1663861758077696500,3.069696533203125,-0.2577509880065918,-1.331441879272461,0.31751441955566406
1663861758087584000,3.079583984375,-0.08900511264801025,-0.6527166366577148,-0.2974975109100342
1663861758097471700,3.0894716796875,-0.2411714792251587,-0.3590679168701172,-1.061995267868042
1663861758107359500,3.099359375,-0.5399177074432373,-0.3951148986816406,-1.779275894165039
1663861758117247200,3.109247314453125,-0.625165581703186,-0.3071632385253906,-1.6894664764404297
1663861758127135000,3.119135009765625,-0.19543302059173584,-0.3620328903198242,-1.0287827253341675
1663861758137022700,3.129022705078125,0.0011942386627197266,-1.311202049255371,-0.6617188453674316
1663861758146910200,3.13891015625,-0.30931830406188965,-1.5852279663085938,-0.06441342830657959
1663861758156798000,3.1487978515625,0.0005023479461669922,-1.3109188079833984,-0.33550357818603516
1663861758166685700,3.158685791015625,0.12750470638275146,-1.018707275390625,-0.8809387683868408
1663861758176573400,3.168573486328125,-0.0029897689819335938,-0.7333993911743164,-1.0748902559280396
1663861758186461200,3.178461181640625,-0.06556195020675659,-0.5488100051879883,-1.1514562368392944
1663861758196318200,3.188318115234375,-0.12063902616500854,-0.5891838073730469,-1.1345030069351196
1663861758206206000,3.1982060546875,-0.11466926336288452,-0.7581939697265625,-1.0396281480789185
1663861758216093700,3.20809375,-0.18448972702026367,-0.8854818344116211,-0.850871205329895
1663861758225981400,3.2179814453125,-0.17656826972961426,-0.8848257064819336,-0.6426892280578613
1663861758235869000,3.227868896484375,-0.038011789321899414,-0.6251735687255859,-0.4202415943145752
1663861758245726200,3.237726318359375,0.0693129301071167,2.29779052734375,2.0998196601867676
1663861758255614000,3.247614013671875,0.9061139225959778,1.4508275985717773,-2.021085500717163
1663861758265501700,3.257501708984375,-0.5886226892471313,-1.1981391906738281,-4.690012454986572
1663861758275389200,3.26738916015625,-1.5359306335449219,-1.0978765487670898,-1.668908715248108
1663861758285277000,3.27727685546875,-1.1422346830368042,-0.6751232147216797,0.9048538208007812
1663861758295164700,3.28716455078125,0.16397255659103394,-0.29274845123291016,3.2208986282348633
1663861758305052400,3.297052490234375,1.2617228031158447,-0.05952167510986328,4.563952445983887
1663861758314909400,3.306909423828125,0.999910831451416,-0.6117744445800781,2.712266206741333
1663861758324797200,3.316797119140625,-0.18789106607437134,-0.9285125732421875,0.007467031478881836
1663861758334685000,3.326684814453125,-1.064650058746338,-0.6550769805908203,-1.2773716449737549
1663861758344542200,3.336542236328125,-1.2100120782852173,-0.37839317321777344,-1.4308933019638062
1663861758354429700,3.3464296875,-0.7724841833114624,-0.3771085739135742,-1.1596060991287231
1663861758364317400,3.3563173828125,-0.5480307340621948,-0.6000804901123047,-0.7582887411117554
1663861758374205200,3.366205078125,-0.10178220272064209,-0.6911163330078125,-0.3077361583709717
1663861758384093000,3.376093017578125,-0.286332368850708,-0.6908931732177734,-0.146994948387146
1663861758393950200,3.3859501953125,-0.43644046783447266,-0.6212215423583984,-0.32731711864471436
1663861758403837700,3.395837646484375,-0.26043546199798584,-0.4207286834716797,-0.344879150390625
1663861758413725400,3.405725341796875,-0.13364934921264648,-0.34525108337402344,-0.28695952892303467
1663861758423613200,3.41561328125,-0.13894104957580566,-0.46592044830322266,-0.3377894163131714
1663861758433501000,3.4255009765625,-0.23527008295059204,-0.5648603439331055,-0.34376633167266846
1663861758443388700,3.435388671875,-0.28598445653915405,-0.7086849212646484,-0.4654538631439209
1663861758453276200,3.445276123046875,-0.2590057849884033,-0.6848125457763672,-0.6031146049499512
1663861758463164000,3.455163818359375,-0.19716161489486694,-0.5988702774047852,-0.681739330291748
1663861758473051600,3.4650517578125,-0.14573079347610474,-0.6162576675415039,-0.4780392646789551
1663861758482939400,3.474939453125,-0.19382637739181519,-0.4163999557495117,-0.23980605602264404
1663861758492827100,3.4848271484375,-0.0559956431388855,-0.44844532012939453,-0.35512495040893555
1663861758502714600,3.494714599609375,-0.032816946506500244,-0.4398479461669922,-0.23811602592468262
1663861758512602400,3.504602294921875,0.04650181531906128,-0.4287681579589844,-0.26734495162963867
1663861758522459600,3.514459716796875,-0.01930290460586548,-0.43679332733154297,-0.33938705921173096
1663861758532316700,3.524316650390625,-0.08510023355484009,-0.4495878219604492,-0.4349867105484009
1663861758542204400,3.534204345703125,-0.11814713478088379,-0.44333744049072266,-0.5183013677597046
1663861758552092200,3.544092041015625,-0.12091869115829468,-0.4610462188720703,-0.5677659511566162
1663861758561980000,3.55397998046875,-0.13151514530181885,-0.45969676971435547,-0.6144297122955322
1663861758571867600,3.56386767578125,-0.16350483894348145,-0.42500782012939453,-0.6078603267669678
1663861758581755100,3.573755126953125,-0.1549127697944641,-0.4120140075683594,-0.5242990255355835
1663861758591643000,3.583642822265625,-0.1538921594619751,-0.4229869842529297,-0.4287177324295044
1663861758601500200,3.593500244140625,-0.20595574378967285,-0.4244050979614258,-0.3527188301086426
1663861758611357400,3.603357421875,-0.2355642318725586,-0.47641754150390625,-0.25930356979370117
1663861758621275600,3.613275634765625,-0.23171603679656982,-0.4969635009765625,-0.19561386108398438
1663861758631132700,3.623132568359375,-0.2374395728111267,-0.5030450820922852,-0.14706909656524658
1663861758641020400,3.6330205078125,-0.2831345200538635,-0.5113601684570312,-0.1348048448562622
1663861758650908200,3.642908203125,-0.3280375599861145,-0.5171537399291992,-0.13244962692260742
1663861758660796000,3.6527958984375,-0.3322349786758423,-0.49911975860595703,-0.1488630771636963
1663861758670653000,3.66265283203125,-0.37190818786621094,-0.4691801071166992,-0.13436591625213623
1663861758680540700,3.672540771484375,-0.38508284091949463,-0.4631681442260742,-0.13672137260437012
1663861758690428400,3.682428466796875,-0.3338553309440613,-0.4739208221435547,-0.1197580099105835
1663861758700316200,3.692316162109375,-0.32084721326828003,-0.4440746307373047,-0.12420439720153809
1663861758710173200,3.702173095703125,-0.3079001307487488,-0.4572944641113281,-0.11197865009307861
1663861758720091400,3.71209130859375,-0.3117107152938843,-0.4824190139770508,-0.13317060470581055
1663861758729948700,3.72194873046875,-0.29137665033340454,-0.47641563415527344,-0.14717376232147217
1663861758739867000,3.731866943359375,-0.2278660535812378,-0.48950958251953125,-0.1897902488708496
1663861758749724000,3.741723876953125,-0.22402602434158325,-0.48111534118652344,-0.22732198238372803
1663861758759611600,3.751611572265625,-0.16748201847076416,-0.47319889068603516,-0.26818835735321045
1663861758769469000,3.761468994140625,-0.1657428741455078,-0.4747953414916992,-0.30369889736175537
1663861758779387100,3.77138720703125,-0.11205834150314331,-0.43164825439453125,-0.31032872200012207
1663861758789275000,3.78127490234375,-0.075833261013031,-0.36803150177001953,-0.31440770626068115
1663861758799162400,3.791162353515625,-0.0780097246170044,-0.3549222946166992,-0.3278540372848511
1663861758809050000,3.801050048828125,-0.06624001264572144,-0.3514547348022461,-0.32001256942749023
1663861758818937900,3.810937744140625,-0.026534676551818848,-0.3315763473510742,-0.3122866153717041
1663861758828795100,3.820795166015625,-0.03954857587814331,-0.3379173278808594,-0.3400840759277344
1663861758838682600,3.8306826171875,0.022690296173095703,-0.3441743850708008,-0.3486921787261963
1663861758848540000,3.840539794921875,0.055638909339904785,-0.3432502746582031,-0.3972355127334595
1663861758858458000,3.8504580078125,0.031368136405944824,-0.3400239944458008,-0.4400871992111206
1663861758868345900,3.860345947265625,0.01933455467224121,-0.32015323638916016,-0.48663759231567383
1663861758878233600,3.870233642578125,0.021803200244903564,-0.3194084167480469,-0.5237584114074707
1663861758888121300,3.880121337890625,0.0147552490234375,-0.33063507080078125,-0.5486811399459839
1663861758897978400,3.889978271484375,-0.008856713771820068,-0.32512474060058594,-0.5805513858795166
1663861758907835600,3.899835693359375,0.01307898759841919,-0.3387317657470703,-0.5454181432723999
1663861758917723400,3.909723388671875,-0.03164893388748169,-0.3189239501953125,-0.5147820711135864
1663861758927641600,3.9196416015625,-0.04521656036376953,-0.3326129913330078,-0.47702133655548096
1663861758937498600,3.92949853515625,-0.039738595485687256,-0.3414726257324219,-0.4322463274002075
1663861758947356000,3.93935595703125,-0.08189493417739868,-0.32883739471435547,-0.3923236131668091
1663861758957243600,3.94924365234375,-0.0962868332862854,-0.33763599395751953,-0.3524876832962036
1663861758967161900,3.959161865234375,-0.10787808895111084,-0.3392210006713867,-0.32274889945983887
1663861758977019000,3.969018798828125,-0.09564656019210815,-0.33368968963623047,-0.3053992986679077
1663861758986937000,3.97893701171875,-0.1168333888053894,-0.3329744338989258,-0.2883538007736206
1663861758996794400,3.98879443359375,-0.19641315937042236,-0.3157806396484375,-0.29979825019836426
1663861759006682000,3.99868212890625,-0.21323353052139282,-0.32477283477783203,-0.31341564655303955
1663861759016569600,4.008569580078125,-0.2178504467010498,-0.3218069076538086,-0.30327069759368896
1663861759026457300,4.018457275390625,-0.2245253324508667,-0.3259429931640625,-0.2792789936065674
1663861759036345000,4.028344970703125,-0.21451175212860107,-0.3253059387207031,-0.24144434928894043
1663861759046232800,4.03823291015625,-0.18565410375595093,-0.3152503967285156,-0.23717880249023438
1663861759056120600,4.04812060546875,-0.19016355276107788,-0.3218202590942383,-0.1978360414505005
1663861759066008000,4.058008056640625,-0.22514426708221436,-0.3141469955444336,-0.1968059539794922
1663861759075895800,4.067895751953125,-0.2453036904335022,-0.3254241943359375,-0.207566499710083
1663861759085783600,4.077783447265625,-0.26039886474609375,-0.29180049896240234,-0.22038066387176514
1663861759095640800,4.087640869140625,-0.2609468698501587,-0.28229713439941406,-0.22574138641357422
1663861759105528600,4.097528564453125,-0.2404646873474121,-0.2753143310546875,-0.20983850955963135
1663861759115416000,4.107416015625,-0.22279781103134155,-0.2543344497680664,-0.18480753898620605
1663861759125273300,4.1172734375,-0.21016526222229004,-0.2454671859741211,-0.1696103811264038
1663861759135161000,4.1271611328125,-0.17904901504516602,-0.255584716796875,-0.14066839218139648
1663861759145018000,4.13701806640625,-0.1696670651435852,-0.23726367950439453,-0.13342463970184326
1663861759154936300,4.146936279296875,-0.1607305407524109,-0.24285030364990234,-0.11669015884399414
1663861759164793600,4.156793701171875,-0.15215027332305908,-0.22948741912841797,-0.1404106616973877
1663861759174681300,4.166681396484375,-0.16732341051101685,-0.23517799377441406,-0.1403273344039917
1663861759184569000,4.176569091796875,-0.13059979677200317,-0.23843955993652344,-0.15899372100830078
1663861759194426000,4.186426025390625,-0.14175015687942505,-0.25101280212402344,-0.19181692600250244
1663861759204344300,4.19634423828125,-0.11738801002502441,-0.2586965560913086,-0.2145613431930542
1663861759214232000,4.206232177734375,-0.10027176141738892,-0.24266624450683594,-0.24173498153686523
1663861759224119800,4.216119873046875,-0.09491181373596191,-0.20568180084228516,-0.2732621431350708
1663861759234007600,4.226007568359375,-0.07528376579284668,-0.19992542266845703,-0.2688485383987427
1663861759243895000,4.23589501953125,-0.09127962589263916,-0.21547603607177734,-0.24560010433197021
1663861759253782800,4.24578271484375,-0.10006296634674072,-0.22133541107177734,-0.23922693729400635
1663861759263670500,4.25567041015625,-0.08966249227523804,-0.22947216033935547,-0.20695233345031738
1663861759273527800,4.26552783203125,-0.14285653829574585,-0.24921417236328125,-0.20120418071746826
1663861759283415300,4.275415283203125,-0.11705940961837769,-0.24033164978027344,-0.1862480640411377
1663861759293303000,4.285302978515625,-0.07723027467727661,-0.22220325469970703,-0.15012633800506592
1663861759303190800,4.295190673828125,-0.061501502990722656,-0.22082805633544922,-0.1617882251739502
1663861759313078500,4.30507861328125,-0.01771688461303711,-0.20534229278564453,-0.15206575393676758
1663861759322966300,4.31496630859375,-0.03101348876953125,-0.17829513549804688,-0.18514931201934814
1663861759332854000,4.32485400390625,-0.04618954658508301,-0.1398916244506836,-0.2060098648071289
1663861759342711000,4.3347109375,0.0026023387908935547,-0.1068582534790039,-0.21702909469604492
1663861759352598800,4.344598876953125,0.014938414096832275,-0.11440658569335938,-0.17835724353790283
1663861759362486500,4.354486572265625,-0.006440997123718262,-0.13129329681396484,-0.12850618362426758
1663861759372343600,4.364343505859375,-0.006846189498901367,-0.13385963439941406,-0.08391225337982178
1663861759382231300,4.374231201171875,0.01844334602355957,-0.15285396575927734,-0.05899453163146973
1663861759392119000,4.384119140625,0.040695130825042725,-0.17153263092041016,-0.039392709732055664
1663861759402006800,4.3940068359375,0.03216898441314697,-0.1592693328857422,-0.06010329723358154
1663861759411894500,4.40389453125,0.01898777484893799,-0.15192890167236328,-0.08045601844787598
1663861759421782000,4.413781982421875,0.03180122375488281,-0.14707279205322266,-0.11695706844329834
1663861759431669800,4.423669677734375,0.01348501443862915,-0.16115665435791016,-0.15996336936950684
1663861759441557500,4.4335576171875,0.002472221851348877,-0.1350078582763672,-0.14319884777069092
1663861759451445200,4.4434453125,-0.0011808276176452637,-0.15400981903076172,-0.12204921245574951
1663861759461302300,4.45330224609375,-0.009511113166809082,-0.14211273193359375,-0.10345220565795898
1663861759471190000,4.46318994140625,-0.015368282794952393,-0.137481689453125,-0.0922236442565918
1663861759481077800,4.473077880859375,-0.018617868423461914,-0.13761615753173828,-0.06950390338897705
1663861759490965500,4.482965576171875,-0.007388293743133545,-0.1518545150756836,-0.07067298889160156
1663861759500853200,4.492853271484375,-0.045733630657196045,-0.15878772735595703,-0.09544181823730469
1663861759510710300,4.502710205078125,-0.04328501224517822,-0.1491250991821289,-0.07730114459991455
1663861759520598000,4.512597900390625,-0.022082746028900146,-0.1561126708984375,-0.08774399757385254
1663861759530485800,4.52248583984375,-0.01526564359664917,-0.13943862915039062,-0.08142471313476562
1663861759540373500,4.53237353515625,-0.02248936891555786,-0.1301116943359375,-0.09170067310333252
1663861759550261200,4.54226123046875,-0.05997824668884277,-0.14680957794189453,-0.11356890201568604
1663861759560148700,4.552148681640625,-0.028414249420166016,-0.11847114562988281,-0.10694265365600586
1663861759570036500,4.562036376953125,-0.014126121997833252,-0.11417770385742188,-0.1215277910232544
1663861759579893800,4.571893798828125,-0.021191656589508057,-0.1193380355834961,-0.08665001392364502
1663861759589750800,4.581750732421875,-0.018733859062194824,-0.11734485626220703,-0.08298397064208984
1663861759599638500,4.591638427734375,-0.011745035648345947,-0.10362911224365234,-0.06749558448791504
1663861759609526300,4.6015263671875,-0.014103710651397705,-0.1042470932006836,-0.08064329624176025
1663861759619414000,4.6114140625,-0.00705409049987793,-0.09070777893066406,-0.08432400226593018
1663861759629301800,4.6213017578125,-0.014258623123168945,-0.0797576904296875,-0.12784743309020996
1663861759639189200,4.631189208984375,-0.03305554389953613,-0.09017467498779297,-0.13539540767669678
1663861759649046500,4.641046630859375,-0.035080909729003906,-0.10747051239013672,-0.14990520477294922
1663861759658934300,4.650934326171875,-0.018260061740875244,-0.0962076187133789,-0.15249145030975342
1663861759668791300,4.660791259765625,-0.027671873569488525,-0.1110687255859375,-0.14081215858459473
1663861759678709500,4.67070947265625,-0.03455400466918945,-0.09978675842285156,-0.12212944030761719
1663861759688597200,4.68059716796875,-0.0436059832572937,-0.11224555969238281,-0.12251114845275879
1663861759698454500,4.69045458984375,-0.02868962287902832,-0.09149932861328125,-0.09482252597808838
1663861759708342300,4.70034228515625,-0.054053664207458496,-0.08994674682617188,-0.08867788314819336
1663861759718229800,4.710229736328125,-0.08356720209121704,-0.09783649444580078,-0.10382401943206787
1663861759728117500,4.720117431640625,-0.10084497928619385,-0.08437538146972656,-0.09763383865356445
1663861759738005200,4.730005126953125,-0.08261674642562866,-0.10175514221191406,-0.0750654935836792
1663861759747862500,4.739862548828125,-0.08804410696029663,-0.10705757141113281,-0.08825099468231201
1663861759757750000,4.74975,-0.07680386304855347,-0.10283088684082031,-0.09659469127655029
1663861759767607300,4.759607177734375,-0.07971423864364624,-0.08690547943115234,-0.10946977138519287
1663861759777525500,4.769525390625,-0.10138595104217529,-0.07358646392822266,-0.12214136123657227
1663861759787413200,4.779413330078125,-0.09674721956253052,-0.07695579528808594,-0.12530171871185303
1663861759797301000,4.789301025390625,-0.09448862075805664,-0.08738231658935547,-0.11633515357971191
1663861759807188700,4.799188720703125,-0.08287924528121948,-0.09760189056396484,-0.09587180614471436
1663861759817045800,4.809045654296875,-0.09490048885345459,-0.08178138732910156,-0.07562291622161865
1663861759826933500,4.81893359375,-0.07853806018829346,-0.05680656433105469,-0.05807685852050781
1663861759836821200,4.8288212890625,-0.06497645378112793,-0.060479164123535156,-0.0810316801071167
1663861759846709000,4.838708984375,-0.06350773572921753,-0.0852508544921875,-0.07309985160827637
1663861759856566000,4.84856591796875,-0.03852260112762451,-0.09079360961914062,-0.07236599922180176
1663861759866484200,4.858484130859375,-0.07503360509872437,-0.09154415130615234,-0.09273755550384521
1663861759876341500,4.868341552734375,-0.06858360767364502,-0.06402873992919922,-0.12687766551971436
1663861759886198500,4.878198486328125,-0.04368793964385986,-0.07230472564697266,-0.12281179428100586
1663861759896116700,4.88811669921875,-0.03339254856109619,-0.04512214660644531,-0.07646167278289795
1663861759906004500,4.89800439453125,-0.06110525131225586,-0.049007415771484375,-0.07563519477844238
1663861759915892200,4.907892333984375,-0.045968472957611084,-0.06462669372558594,-0.05813753604888916
1663861759925780000,4.917780029296875,-0.047731637954711914,-0.07526874542236328,-0.06218981742858887
1663861759935667700,4.927667724609375,-0.07511800527572632,-0.092803955078125,-0.061466217041015625
1663861759945555200,4.93755517578125,-0.03599560260772705,-0.1005849838256836,-0.04909014701843262
1663861759955443000,4.94744287109375,-0.03509640693664551,-0.08470344543457031,-0.03926122188568115
1663861759965330700,4.95733056640625,0.003449082374572754,-0.05496978759765625,-0.041269540786743164
1663861759975188000,4.96718798828125,-0.01742655038833618,-0.04925727844238281,-0.07393372058868408
1663861759985075500,4.977075439453125,-0.014307379722595215,-0.02714061737060547,-0.10380411148071289
1663861759994963200,4.986963134765625,0.0005233883857727051,-0.028934478759765625,-0.1002119779586792
1663861760004851000,4.996850830078125,0.005560457706451416,-0.030721664428710938,-0.0942307710647583
1663861760014738700,5.00673876953125,-0.015857219696044922,-0.020725250244140625,-0.04599452018737793
1663861760024626400,5.01662646484375,-0.01827847957611084,-0.025075912475585938,-0.0007015466690063477
1663861760034514200,5.02651416015625,-0.01357501745223999,-0.03875923156738281,0.024906635284423828
1663861760044401700,5.036401611328125,-0.0370979905128479,-0.05926704406738281,0.021870136260986328
1663861760054259000,5.046259033203125,-0.03204458951950073,-0.06531047821044922,0.007169008255004883
1663861760064146700,5.056146728515625,-0.05747497081756592,-0.06653404235839844,-0.021491646766662598
1663861760074034400,5.066034423828125,-0.051817476749420166,-0.08183002471923828,-0.05930352210998535
1663861760083922000,5.075921875,-0.02268117666244507,-0.06388568878173828,-0.06827652454376221
1663861760093809700,5.0858095703125,-0.01055818796157837,-0.058035850524902344,-0.06994712352752686
1663861760103697400,5.095697509765625,-0.031619369983673096,-0.0499420166015625,-0.08100366592407227
1663861760113554700,5.1055546875,-0.005227923393249512,-0.03964805603027344,-0.09402966499328613
1663861760123411700,5.11541162109375,-0.02375692129135132,-0.06481647491455078,-0.06453812122344971
1663861760133299500,5.125299560546875,-0.032450854778289795,-0.03307056427001953,-0.03779566287994385
1663861760143187200,5.135187255859375,-0.01982855796813965,-0.05132579803466797,-0.049070000648498535
1663861760153075000,5.145074951171875,-0.002724945545196533,-0.07397937774658203,-0.020101070404052734
1663861760162962400,5.15496240234375,-0.002255737781524658,-0.06328392028808594,-0.03162026405334473
1663861760172850200,5.16485009765625,0.007754266262054443,-0.08105087280273438,-0.038028836250305176
1663861760182738000,5.174738037109375,0.034087538719177246,-0.06319808959960938,-0.04208028316497803
1663861760192625700,5.184625732421875,0.031902432441711426,-0.024412155151367188,-0.029691338539123535
1663861760202482700,5.194482666015625,0.010572254657745361,-0.012237548828125,-0.03380024433135986
1663861760212370400,5.204370361328125,0.029615283012390137,-0.0025653839111328125,-0.02630782127380371
1663861760222258200,5.214258056640625,0.015303432941436768,-0.018938064575195312,-0.021515727043151855
1663861760232146000,5.22414599609375,0.06480681896209717,-0.023262977600097656,-0.023729443550109863
1663861760242033700,5.23403369140625,0.05701369047164917,-0.04868125915527344,-0.0426100492477417
1663861760251921200,5.243921142578125,0.03992551565170288,-0.04542827606201172,-0.056419968605041504
1663861760261809000,5.253808837890625,0.03731203079223633,-0.044602394104003906,-0.07929372787475586
1663861760271696600,5.263696533203125,0.025196492671966553,-0.032050132751464844,-0.0734332799911499
1663861760281584400,5.27358447265625,0.00619584321975708,-0.033843994140625,-0.06993257999420166
1663861760291441700,5.283441650390625,0.03928917646408081,-0.026203155517578125,-0.038152456283569336
1663861760301298700,5.293298583984375,0.034119486808776855,-0.03284168243408203,-0.03740274906158447
1663861760311186400,5.3031865234375,-0.006321847438812256,-0.02286243438720703,0.0032438039779663086
1663861760321074200,5.31307421875,-0.006002366542816162,-0.043669700622558594,0.010326623916625977
1663861760330962000,5.3229619140625,-0.017572104930877686,-0.02881336212158203,0.021912336349487305
1663861760340849400,5.332849365234375,-0.02413231134414673,-0.037705421447753906,0.02602696418762207
1663861760350737200,5.342737060546875,-0.04224133491516113,-0.0464630126953125,0.009082436561584473
1663861760360625000,5.352625,-0.05549556016921997,-0.04801177978515625,0.03468489646911621
1663861760370512600,5.3625126953125,-0.04742854833602905,-0.049498558044433594,0.03843975067138672
1663861760380400400,5.372400390625,-0.05822378396987915,-0.039193153381347656,0.05401015281677246
1663861760390288000,5.382287841796875,-0.04503268003463745,-0.045533180236816406,0.01749873161315918
1663861760400175600,5.392175537109375,-0.048625290393829346,-0.042349815368652344,0.014560580253601074
1663861760410002400,5.40200244140625,-0.00507354736328125,-0.04632282257080078,-0.004586338996887207
1663861760419890000,5.411889892578125,-0.02104008197784424,-0.038451194763183594,-0.00221097469329834
1663861760429777700,5.421777587890625,-0.04151970148086548,-0.03308391571044922,-0.004498481750488281
1663861760439665400,5.43166552734375,-0.023898601531982422,-0.030165672302246094,-0.00208282470703125
1663861760449522700,5.441522705078125,-0.016188502311706543,-0.01788043975830078,-0.004343867301940918
1663861760459441000,5.45144091796875,-0.020507872104644775,-0.019951820373535156,-0.0017900466918945312
1663861760469328400,5.461328369140625,-0.03890728950500488,-0.010210990905761719,0.02896857261657715
1663861760479216000,5.471216064453125,-0.017145156860351562,-0.0124053955078125,0.05438840389251709
1663861760489073400,5.481073486328125,0.00158613920211792,0.0019121170043945312,0.03692889213562012
1663861760498930400,5.490930419921875,-0.0036750435829162598,0.013622283935546875,0.07168257236480713
1663861760508818200,5.500818115234375,-0.03021228313446045,0.020363807678222656,0.05191338062286377
1663861760518736400,5.510736328125,-0.037602245807647705,0.034015655517578125,0.0445781946182251
1663861760528624000,5.5206240234375,-0.06650835275650024,0.014399528503417969,0.06119537353515625
1663861760538512000,5.530511962890625,-0.08825111389160156,-0.021431922912597656,0.11539804935455322
1663861760548399600,5.540399658203125,-0.0978543758392334,-0.042578697204589844,0.15720069408416748
1663861760558287400,5.550287353515625,-0.06256651878356934,-0.06807899475097656,0.20534491539001465
1663861760568174800,5.5601748046875,-0.10561490058898926,-0.07196712493896484,0.21971356868743896
1663861760578032000,5.5700322265625,-0.11711758375167847,-0.07807445526123047,0.22170114517211914
1663861760587920000,5.579919921875,-0.11398255825042725,-0.08871936798095703,0.25403881072998047
1663861760597807600,5.5898076171875,-0.11562639474868774,-0.10387039184570312,0.24555456638336182
1663861760607695000,5.599695068359375,-0.10760760307312012,-0.14934921264648438,0.24895596504211426
1663861760617582800,5.609582763671875,-0.1558576226234436,-0.14461708068847656,0.21703457832336426
1663861760627440000,5.619440185546875,-0.1581832766532898,-0.09994983673095703,0.17176032066345215
1663861760637328000,5.629327880859375,-0.14383572340011597,-0.10786628723144531,0.15101301670074463
1663861760647215400,5.63921533203125,-0.09427636861801147,-0.09912586212158203,0.1280810832977295
1663861760657103000,5.64910302734375,-0.07824265956878662,-0.07170295715332031,0.10328114032745361
1663861760666990800,5.658990966796875,-0.08559799194335938,-0.037662506103515625,0.06477200984954834
1663861760676848000,5.66884814453125,-0.06422477960586548,-0.02062511444091797,0.019820809364318848
1663861760686735600,5.678735595703125,-0.04531437158584595,-0.00390625,0.02054154872894287
1663861760696593000,5.688593017578125,-0.007719755172729492,0.01722240447998047,0.021442532539367676
1663861760706480600,5.698480712890625,0.0076639652252197266,0.0026569366455078125,0.022417068481445312
1663861760716368400,5.708368408203125,-0.013148069381713867,0.025943756103515625,0.030534029006958008
1663861760726255900,5.718255859375,-0.03825664520263672,0.018182754516601562,0.008260250091552734
1663861760736143600,5.7281435546875,-0.043805480003356934,0.03167533874511719,-0.003663778305053711
1663861760746031400,5.73803125,-0.01663064956665039,0.035452842712402344,0.015417933464050293
1663861760755888600,5.747888671875,-0.03265190124511719,0.010878562927246094,0.04850804805755615
1663861760765776400,5.7577763671875,-0.03200638294219971,0.0008220672607421875,0.10706305503845215
1663861760775633400,5.76763330078125,0.020196497440338135,0.0073699951171875,0.14114344120025635
1663861760785551600,5.777551513671875,0.01245427131652832,-0.0026073455810546875,0.16962730884552002
1663861760795439400,5.787439453125,0.04717797040939331,-0.01944446563720703,0.17846369743347168
1663861760805296600,5.797296630859375,0.07427549362182617,-0.007748603820800781,0.15900158882141113
1663861760815184100,5.80718408203125,0.0794873833656311,0.00612640380859375,0.09718787670135498
1663861760825071900,5.81707177734375,0.06311267614364624,-0.015552520751953125,0.05054128170013428
1663861760834959600,5.826959716796875,0.027791976928710938,-0.02742767333984375,0.011502981185913086
1663861760844817000,5.83681689453125,-0.009521961212158203,-0.0038213729858398438,-0.024491310119628906
1663861760854704400,5.846704345703125,-0.013517916202545166,0.007605552673339844,-0.04108166694641113
1663861760864592100,5.856592041015625,-0.04327833652496338,0.007031440734863281,-0.05944955348968506
1663861760874479900,5.86647998046875,-0.016128897666931152,0.02291584014892578,-0.04434645175933838
1663861760884367600,5.87636767578125,0.0178411602973938,0.007861137390136719,-0.02913367748260498
1663861760894255400,5.88625537109375,0.03483849763870239,0.014224052429199219,-0.018663883209228516
1663861760904112400,5.8961123046875,0.05177944898605347,0.0039615631103515625,-0.041080594062805176
1663861760914030600,5.906030517578125,0.03561633825302124,-0.0014352798461914062,-0.01589226722717285
1663861760923918300,5.91591845703125,0.06912839412689209,0.005019187927246094,0.004236936569213867
1663861760933806000,5.92580615234375,0.06898641586303711,-0.005115509033203125,0.04755759239196777
1663861760943693800,5.93569384765625,0.06179404258728027,-0.026876449584960938,0.07603931427001953
1663861760953581300,5.945581298828125,0.06906414031982422,-0.05997657775878906,0.0685281753540039
1663861760963438600,5.9554384765625,0.055117905139923096,-0.047786712646484375,0.06336522102355957
1663861760973326300,5.965326416015625,0.0626535415649414,-0.047530174255371094,0.043982505798339844
1663861760983183400,5.975183349609375,0.06060534715652466,-0.03783607482910156,0.03420233726501465
1663861760993071000,5.985071044921875,0.05610615015029907,-0.042446136474609375,0.0034137964248657227
1663861761002958800,5.994958740234375,0.06547963619232178,-0.04933452606201172,-0.05759871006011963
1663861761012846600,6.0048466796875,0.07973974943161011,-0.05138111114501953,-0.10345125198364258
1663861761022734300,6.014734375,0.05894356966018677,-0.05808544158935547,-0.16253387928009033
1663861761032622000,6.0246220703125,0.05986928939819336,-0.02470874786376953,-0.19922137260437012
1663861761042509600,6.034509521484375,0.04430341720581055,0.019843101501464844,-0.23963844776153564
1663861761052397300,6.044397216796875,0.038662493228912354,0.042418479919433594,-0.25558197498321533
1663861761062285000,6.05428515625,0.005189061164855957,0.0245208740234375,-0.2708045244216919
1663861761072142300,6.064142333984375,0.0171816349029541,0.013947486877441406,-0.25950372219085693
1663861761081999400,6.073999267578125,0.026852428913116455,-0.0012607574462890625,-0.20077717304229736
1663861761091887000,6.08388720703125,0.022541344165802002,-0.028049468994140625,-0.14255774021148682
1663861761101805300,6.093805419921875,0.020976543426513672,-0.03793525695800781,-0.09682393074035645
1663861761111693000,6.103693115234375,0.062138497829437256,-0.038238525390625,-0.037698984146118164
1663861761121580800,6.113580810546875,0.09817612171173096,-0.012636184692382812,-0.01951587200164795
1663861761131468300,6.12346826171875,0.06539160013198853,0.01961231231689453,-0.0017768144607543945
1663861761141356000,6.13335595703125,0.04729199409484863,0.034928321838378906,-0.003534078598022461
1663861761151243800,6.143243896484375,0.06199747323989868,0.035866737365722656,0.008619189262390137
1663861761161131500,6.153131591796875,0.03829061985015869,0.02269268035888672,0.0013849735260009766
1663861761170988500,6.162988525390625,0.01932758092880249,0.033321380615234375,0.015190958976745605
1663861761180876300,6.172876220703125,0.0453457236289978,0.017818450927734375,0.017188429832458496
1663861761190764000,6.182763916015625,0.07105088233947754,0.02373981475830078,0.012299895286560059
1663861761200651800,6.19265185546875,0.05617338418960571,0.024855613708496094,0.01212167739868164
1663861761210508800,6.2025087890625,0.04586535692214966,0.01883697509765625,-0.009103059768676758
1663861761220366000,6.212365966796875,0.04987072944641113,0.020033836364746094,-0.030252933502197266
1663861761230253800,6.22225390625,0.04200005531311035,0.02355480194091797,-0.05336892604827881
1663861761240141600,6.2321416015625,0.024679362773895264,0.0058040618896484375,-0.05017542839050293
1663861761250029300,6.242029296875,0.02142810821533203,-0.014032363891601562,-0.05401885509490967
1663861761259916800,6.251916748046875,0.013372182846069336,-0.014718055725097656,-0.0531001091003418
1663861761269804500,6.261804443359375,0.005587279796600342,-0.048370361328125,-0.10388267040252686
1663861761279661800,6.271661865234375,-0.0066252946853637695,-0.050848960876464844,-0.13489603996276855
1663861761289549600,6.281549560546875,-0.03764146566390991,-0.048699378967285156,-0.12963974475860596
1663861761299437000,6.29143701171875,-0.025572597980499268,-0.065460205078125,-0.15238440036773682
1663861761309324800,6.30132470703125,-0.06955116987228394,-0.06548023223876953,-0.12505865097045898
1663861761319212500,6.311212646484375,-0.08879691362380981,-0.06075763702392578,-0.11000680923461914
1663861761329100300,6.321100341796875,-0.07939577102661133,-0.08427143096923828,-0.10042357444763184
1663861761338988000,6.330988037109375,-0.04840588569641113,-0.08844280242919922,-0.15505623817443848
1663861761348875500,6.34087548828125,-0.0550084114074707,-0.08306217193603516,-0.19949698448181152
1663861761358732800,6.35073291015625,-0.07277572154998779,-0.030570030212402344,-0.25311923027038574
1663861761368620500,6.36062060546875,-0.1131935715675354,0.009251594543457031,-0.2655757665634155
1663861761378508300,6.37050830078125,-0.1265771985054016,0.03423118591308594,-0.25623464584350586
1663861761388365300,6.380365234375,-0.08281666040420532,0.025793075561523438,-0.19262313842773438
1663861761398253000,6.390253173828125,-0.08636146783828735,0.04098320007324219,-0.14846491813659668
1663861761408140800,6.400140869140625,-0.06844699382781982,0.008715629577636719,-0.05738520622253418
1663861761427916000,6.419916015625,-0.017895638942718506,-0.016872406005859375,0.03800082206726074
1663861761437803800,6.4298037109375,-0.012614250183105469,-0.036337852478027344,0.06914281845092773
1663861761447691500,6.43969140625,-0.0025762319564819336,-0.02948284149169922,0.08977627754211426
1663861761457548800,6.449548828125,-0.04247927665710449,-0.010824203491210938,0.05284571647644043
1663861761467436300,6.459436279296875,-0.01824718713760376,0.026343345642089844,0.023516178131103516
1663861761477324000,6.469323974609375,0.0007191896438598633,0.008807182312011719,-0.01739501953125
1663861761487211800,6.479211669921875,0.061344265937805176,-0.01313018798828125,-0.031948089599609375
1663861761497069000,6.489069091796875,0.06625282764434814,-0.02769756317138672,-0.0649881362915039
1663861761506956800,6.498956787109375,0.06154632568359375,0.014485359191894531,-0.09274888038635254
1663861761516844300,6.50884423828125,0.08046278357505798,0.025358200073242188,-0.11308670043945312
1663861761526732000,6.51873193359375,0.08029663562774658,0.038387298583984375,-0.13063645362854004
1663861761536619800,6.528619873046875,0.07295498251914978,0.07006359100341797,-0.14096355438232422
1663861761546477000,6.53847705078125,0.11977452039718628,0.04466438293457031,-0.13449478149414062
1663861761556364500,6.548364501953125,0.170704185962677,0.024297714233398438,-0.11348867416381836
1663861761566252300,6.558252197265625,0.20431169867515564,-0.026473045349121094,-0.12044286727905273
1663861761576140000,6.56814013671875,0.24952542781829834,-0.05757713317871094,-0.1436460018157959
1663861761586027800,6.57802783203125,0.2661812901496887,-0.06934833526611328,-0.1638660430908203
1663861761595915500,6.58791552734375,0.24522024393081665,-0.062104225158691406,-0.18136858940124512
1663861761605772500,6.5977724609375,0.21525275707244873,-0.045447349548339844,-0.19433355331420898
1663861761615660300,6.607660400390625,0.18109485507011414,0.003996849060058594,-0.17233657836914062
1663861761625548000,6.617548095703125,0.1827392578125,0.0032224655151367188,-0.16507482528686523
1663861761635435800,6.627435791015625,0.18396413326263428,0.002407073974609375,-0.1577908992767334
1663861761645323300,6.6373232421875,0.18492937088012695,0.0015516281127929688,-0.15044832229614258
1663861761655211000,6.6472109375,0.18592312932014465,0.0007524490356445312,-0.14342880249023438
1663861761665098800,6.6570986328125,0.18743884563446045,0.00002288818359375,-0.13668584823608398
1663861761684843500,6.676843505859375,0.19188761711120605,-0.04370307922363281,-0.09023189544677734
1663861761694731300,6.686731201171875,0.14291197061538696,-0.031828880310058594,-0.12455177307128906
1663861761704619000,6.696618896484375,0.15308910608291626,0.017496109008789062,-0.15838217735290527
1663861761714476300,6.706476318359375,0.152978777885437,-0.021065711975097656,-0.14259576797485352
1663861761724364000,6.716364013671875,0.13603782653808594,-0.04954814910888672,-0.1130988597869873
1663861761734251500,6.72625146484375,0.13816869258880615,-0.05630970001220703,-0.10552287101745605
1663861761744139300,6.73613916015625,0.14994323253631592,-0.06769084930419922,-0.10977864265441895
1663861761754027000,6.746027099609375,0.14578711986541748,-0.06471920013427734,-0.12572121620178223
1663861761763914800,6.755914794921875,0.10231068730354309,-0.02411937713623047,-0.12246084213256836
1663861761773771800,6.765771728515625,0.10509055852890015,-0.012436866760253906,-0.14514374732971191
1663861761783659500,6.775659423828125,0.07328271865844727,-0.045703887939453125,-0.16484737396240234
1663861761793547300,6.78554736328125,0.061404675245285034,-0.06666946411132812,-0.20047831535339355
1663861761803435000,6.79543505859375,0.02413564920425415,-0.11324501037597656,-0.24228286743164062
1663861761813322800,6.80532275390625,-0.028812646865844727,-0.14506053924560547,-0.27338337898254395
1663861761823210200,6.815210205078125,-0.05303207039833069,-0.1552724838256836,-0.27057600021362305
1663861761833098000,6.825097900390625,0.014586269855499268,-0.13007354736328125,-0.19937896728515625
1663861761842955300,6.834955322265625,0.009989380836486816,-0.07706737518310547,-0.1599738597869873
1663861761852843000,6.844843017578125,-0.1266346573829651,-0.02497100830078125,-0.17770624160766602
1663861761862730500,6.85473046875,-0.2624301314353943,-0.0796823501586914,-0.20447707176208496
1663861761872618200,6.8646181640625,-0.31204676628112793,-0.11879444122314453,-0.23835444450378418
1663861761882506000,6.874506103515625,-0.25039932131767273,-0.10299301147460938,-0.16396522521972656
1663861761892363300,6.88436328125,-0.16071346402168274,-0.0036983489990234375,-0.08972692489624023
1663861761902250800,6.894250732421875,-0.22270962595939636,0.07390499114990234,0.022130489349365234
1663861761912108000,6.90410791015625,-0.24411821365356445,0.12755775451660156,0.15458297729492188
1663861761921995800,6.913995849609375,-0.11671960353851318,0.14059829711914062,0.281404972076416
1663861761931883500,6.923883544921875,0.01744195818901062,0.1297779083251953,0.39090418815612793
1663861761941771000,6.93377099609375,0.026569753885269165,0.12863540649414062,0.3945345878601074
1663861761951658800,6.94365869140625,0.03438812494277954,0.1275615692138672,0.3976876735687256
1663861761961546500,6.95354638671875,0.04109868407249451,0.1264820098876953,0.400723934173584
1663861761971434200,6.963434326171875,0.0475924015045166,0.1253986358642578,0.4037301540374756
1663861761981322000,6.973322021484375,0.054563283920288086,0.12427902221679688,0.40691447257995605
1663861761991209700,6.983209716796875,0.061589062213897705,0.12315082550048828,0.41011714935302734
1663861762001097200,6.99309716796875,-0.4781835377216339,0.012105941772460938,-0.1619415283203125
1663861762010985000,7.00298486328125,-0.39804697036743164,0.008762359619140625,-0.08287525177001953
1663861762020842200,7.01284228515625,-0.10505031049251556,-0.01849842071533203,0.012904882431030273
1663861762030730000,7.02272998046875,0.08252577483654022,-0.0051975250244140625,0.11603450775146484
1663861762040617500,7.032617431640625,-0.06743539869785309,-0.006267547607421875,0.07800483703613281
1663861762050505200,7.042505126953125,-0.398932546377182,-0.0026073455810546875,-0.05294036865234375
1663861762060393000,7.05239306640625,-0.4551084339618683,-0.04199028015136719,-0.1762254238128662
1663861762070250200,7.062250244140625,-0.30839598178863525,-0.10512065887451172,-0.25647473335266113
1663861762080137700,7.0721376953125,-0.3271988034248352,-0.12976551055908203,-0.2319645881652832
1663861762090025500,7.082025390625,-0.6232268214225769,-0.16150379180908203,-0.19567370414733887
1663861762099913200,7.091913330078125,-0.7886239290237427,-0.188446044921875,-0.11619782447814941
1663861762109801000,7.101801025390625,-0.8011677265167236,-0.15569210052490234,0.011253833770751953
1663861762119688700,7.111688720703125,-0.5657069683074951,-0.08003044128417969,0.16707229614257812
1663861762129576200,7.121576171875,-0.3511925935745239,-0.08087444305419922,0.1763753890991211
1663861762139464000,7.1314638671875,-0.3647458255290985,-0.1819620132446289,0.09693241119384766
1663861762149351700,7.1413515625,-0.6921228766441345,-0.30907344818115234,-0.01581406593322754
1663861762159209000,7.151208984375,-1.1041359901428223,-0.39530181884765625,-0.08044719696044922
1663861762169096400,7.161096435546875,-1.3403946161270142,-0.3976125717163086,-0.0164186954498291
1663861762178984200,7.170984130859375,-1.2284797430038452,-0.34239673614501953,0.11347699165344238
1663861762188872000,7.180871826171875,-0.6891877055168152,-0.19643497467041016,0.3378915786743164
1663861762198759700,7.190759765625,-0.4895438849925995,-0.04584312438964844,0.5559422969818115
1663861762208647400,7.2006474609375,-0.7639666795730591,0.023427963256835938,0.53578782081604
1663861762218504400,7.21050439453125,-0.9835098385810852,0.11891937255859375,0.4314911365509033
1663861762228392200,7.22039208984375,-0.918605387210846,0.19512653350830078,0.3724501132965088
1663861762238249500,7.23024951171875,-0.563238799571991,0.2974061965942383,0.37549567222595215
1663861762248167700,7.240167724609375,-0.4234294891357422,0.33498191833496094,0.40939974784851074
1663861762258055400,7.250055419921875,-0.5001769661903381,0.21497631072998047,0.4044380187988281
1663861762277800200,7.26980029296875,-0.6042271256446838,-0.00307464599609375,0.5652086734771729
1663861762287688000,7.27968798828125,-0.2116970270872116,0.06571102142333984,0.7964706420898438
1663861762297575700,7.28957568359375,0.058101311326026917,0.2571706771850586,0.9441099166870117
1663861762307463200,7.299463134765625,-0.02003803849220276,0.32970333099365234,0.9393341541290283
1663861762317351000,7.309350830078125,-0.09814378619194031,0.3691720962524414,0.7269251346588135
1663861762327238700,7.31923876953125,-0.039694175124168396,0.26060962677001953,0.4045131206512451
1663861762337096000,7.329095947265625,0.21130388975143433,0.10211658477783203,0.05928158760070801
1663861762346983400,7.3389833984375,0.2299637794494629,-0.015603065490722656,-0.24347472190856934
1663861762356840700,7.3488408203125,0.026448845863342285,-0.05230903625488281,-0.48145151138305664
1663861762366698000,7.358697998046875,-0.16809727251529694,-0.00351715087890625,-0.5923795700073242
1663861762376616200,7.3686162109375,-0.15126030147075653,0.13301849365234375,-0.6364495754241943
1663861762386503700,7.378503662109375,0.040029555559158325,0.28082942962646484,-0.5787501335144043
1663861762396391400,7.388391357421875,0.12250860035419464,0.3301982879638672,-0.4560098648071289
1663861762406279200,7.398279052734375,0.11879764497280121,0.4030914306640625,-0.29438209533691406
1663861762416136400,7.408136474609375,0.19154873490333557,0.4493589401245117,-0.17294788360595703
1663861762426024000,7.41802392578125,0.370671808719635,0.4905738830566406,-0.07026362419128418
1663861762435911700,7.42791162109375,0.4078719913959503,0.4648599624633789,-0.13758611679077148
1663861762445799400,7.43779931640625,0.21869346499443054,0.25760555267333984,-0.39780378341674805
1663861762455687200,7.447687255859375,0.03501700609922409,-0.047451019287109375,-0.643622875213623
1663861762465544400,7.45754443359375,-0.07136953622102737,-0.3259134292602539,-0.7459607124328613
1663861762475401500,7.4674013671875,-0.07422439008951187,-0.3245515823364258,-0.7464427947998047
1663861762485289200,7.477289306640625,-0.07630147784948349,-0.32317543029785156,-0.747046947479248
1663861762495177000,7.487177001953125,-0.0774703398346901,-0.3214988708496094,-0.7490737438201904
1663861762505064700,7.497064697265625,-0.07799805700778961,-0.3195219039916992,-0.7525248527526855
1663861762514952200,7.5069521484375,-0.07844356447458267,-0.3173084259033203,-0.7570767402648926
1663861762524809500,7.5168095703125,-0.07970472425222397,-0.3149547576904297,-0.7622668743133545
1663861762544615400,7.536615478515625,0.002865239977836609,0.03070831298828125,-0.05180525779724121
1663861762554503200,7.546503173828125,-0.1150464415550232,-0.005850791931152344,-0.08336520195007324
1663861762564390700,7.556390625,-0.14497187733650208,-0.006501197814941406,-0.03838610649108887
1663861762574278400,7.5662783203125,-0.053353533148765564,0.03588294982910156,0.03969860076904297
1663861762584166100,7.576166259765625,-0.045601800084114075,0.05673980712890625,0.10044384002685547
1663861762594023400,7.5860234375,-0.05404409021139145,0.044173240661621094,0.11294054985046387
1663861762603941600,7.595941650390625,-0.07028898596763611,0.07950687408447266,0.12479925155639648
1663861762613798700,7.605798583984375,-0.14997431635856628,0.08385372161865234,0.08339905738830566
1663861762623716900,7.615716796875,-0.19230571389198303,0.06196117401123047,0.05617213249206543
1663861762633604600,7.6256044921875,-0.12051240354776382,0.032797813415527344,0.034459590911865234
1663861762643492400,7.635492431640625,-0.04675423726439476,-0.0010995864868164062,0.08934688568115234
1663861762653380000,7.645380126953125,-0.06379234790802002,-0.03492546081542969,0.13682198524475098
1663861762663237000,7.655237060546875,-0.07372628152370453,-0.04714202880859375,0.14338970184326172
1663861762673094400,7.665094482421875,-0.043674927204847336,-0.04489898681640625,0.15169191360473633
1663861762683012600,7.6750126953125,0.045539796352386475,-0.02096080780029297,0.14212727546691895
1663861762692900400,7.684900390625,0.12707233428955078,0.0292816162109375,0.05795550346374512
1663861762702788000,7.6947880859375,0.07628249377012253,0.0412445068359375,-0.05747103691101074
1663861762712675600,7.704675537109375,-0.16095535457134247,0.014883041381835938,-0.1485118865966797
1663861762722532900,7.714532958984375,-0.19879454374313354,-0.04262065887451172,-0.19328832626342773
1663861762732420600,7.724420654296875,-0.0035524070262908936,-0.038079261779785156,-0.1773223876953125
1663861762742277600,7.734277587890625,0.04165065288543701,-0.024196624755859375,-0.18427419662475586
1663861762752195800,7.74419580078125,-0.11577158421278,0.003864288330078125,-0.18833541870117188
1663861762762083600,7.75408349609375,-0.2292376160621643,-0.03757667541503906,-0.16772472858428955
1663861762771971300,7.763971435546875,-0.169651061296463,-0.08387279510498047,-0.06499278545379639
1663861762781859000,7.773859130859375,-0.04934892803430557,-0.12593746185302734,0.07033991813659668
1663861762791716000,7.783716064453125,0.01963561773300171,-0.13668441772460938,0.1679443120956421
1663861762801603800,7.793603759765625,0.035653337836265564,-0.10477828979492188,0.21159422397613525
1663861762811461000,7.803461181640625,-0.08019004762172699,-0.06617069244384766,0.1664670705795288
1663861762821348900,7.813348876953125,-0.08969414234161377,-0.023342132568359375,0.062342047691345215
1663861762831206000,7.823205810546875,-0.13613636791706085,0.011677742004394531,0.04019498825073242
1663861762841124000,7.8331240234375,-0.2284337729215622,0.02721881866455078,0.02807176113128662
1663861762850981400,7.8429814453125,-0.1821466088294983,0.03534412384033203,0.05910813808441162
1663861762860899600,7.852899658203125,-0.14103476703166962,0.005603790283203125,0.12755441665649414
1663861762870756600,7.862756591796875,-0.10976918041706085,-0.018965721130371094,0.12438452243804932
1663861762880644400,7.872644287109375,-0.1374984234571457,-0.03839683532714844,0.09998083114624023
1663861762890501600,7.882501708984375,-0.07691732048988342,-0.04572582244873047,0.07599234580993652
1663861762900419800,7.892419921875,-0.05012328922748566,-0.04121875762939453,0.04551088809967041
1663861762910307600,7.9023076171875,-0.16801217198371887,-0.017965316772460938,0.015648365020751953
1663861762920195300,7.9121953125,-0.22736917436122894,-0.0045909881591796875,-0.013442277908325195
1663861762930082800,7.922082763671875,-0.16949306428432465,-0.014987945556640625,0.014619588851928711
1663861762939940000,7.931940185546875,-0.052778616547584534,-0.008787155151367188,0.05425870418548584
1663861762949827800,7.941827880859375,-0.024465039372444153,0.009103775024414062,0.0649949312210083
1663861762959715600,7.951715576171875,0.0035405904054641724,0.024335861206054688,0.035472989082336426
1663861762969572600,7.961572509765625,0.08230620622634888,0.04639148712158203,0.00862109661102295
1663861762979490800,7.97149072265625,-0.02446076273918152,0.04926109313964844,-0.027330994606018066
1663861762989378600,7.981378662109375,-0.13135868310928345,0.02617168426513672,-0.07203054428100586
1663861762999266300,7.991266357421875,-0.1983260214328766,0.04106426239013672,-0.04487133026123047
1663861763009123300,8.001123291015626,-0.08495697379112244,0.03911399841308594,0.022466540336608887
1663861763018980600,8.010980712890625,0.0379500687122345,0.053587913513183594,0.0867539644241333
1663861763028868400,8.020868408203125,0.09214651584625244,0.08195304870605469,0.12398004531860352
1663861763038786600,8.03078662109375,0.11647674441337585,0.08635616302490234,0.10603964328765869
1663861763048643600,8.0406435546875,0.06694190204143524,0.09546279907226562,0.0737907886505127
1663861763058531300,8.05053125,-0.0034077465534210205,0.09505558013916016,0.06986045837402344
1663861763068388600,8.060388671875,-0.009352266788482666,0.10169410705566406,0.09661853313446045
1663861763078306800,8.070306884765625,0.08323487639427185,0.09409332275390625,0.13709771633148193
1663861763088194600,8.080194580078125,0.1850985437631607,0.0959634780883789,0.18175292015075684
1663861763098082000,8.09008203125,0.15921609103679657,0.0884389877319336,0.168748140335083
1663861763107939300,8.099939208984376,0.07635904848575592,0.0692281723022461,0.13469433784484863
1663861763117796600,8.109796630859375,0.006414636969566345,0.07622909545898438,0.11296713352203369
1663861763127714800,8.11971484375,-0.012965023517608643,0.06426429748535156,0.11285126209259033
1663861763137602300,8.129602294921876,0.02628299593925476,0.06891059875488281,0.08931756019592285
1663861763147490000,8.139489990234376,0.08564749360084534,0.033432960510253906,0.07101178169250488
1663861763157377800,8.149377685546876,0.04955899715423584,0.02907848358154297,0.04385209083557129
1663861763167265500,8.159265625,-0.0141182541847229,0.02710437774658203,0.01970851421356201
1663861763177153300,8.1691533203125,-0.05956748127937317,0.025171279907226562,0.0054013729095458984
1663861763187041000,8.179041015625,0.06318783760070801,0.044422149658203125,-0.001301884651184082
1663861763196928500,8.188928466796876,0.06599080562591553,0.044455528259277344,0.041763901710510254
1663861763206816300,8.198816162109376,-0.04439094662666321,-0.004998207092285156,0.03006613254547119
1663861763216704000,8.2087041015625,-0.0019022226333618164,-0.013628005981445312,0.061241745948791504
1663861763236418300,8.228418212890626,-0.011846989393234253,-0.05667400360107422,0.07651591300964355
1663861763246306000,8.23830615234375,0.01384204626083374,-0.026782989501953125,0.053050875663757324
1663861763256193800,8.24819384765625,-0.038444072008132935,0.0002269744873046875,0.020824790000915527
1663861763266050800,8.25805078125,-0.07320356369018555,0.0008697509765625,-0.04604625701904297
1663861763275938600,8.2679384765625,-0.041398853063583374,-0.031528472900390625,-0.014754414558410645
1663861763285826300,8.277826416015625,-0.09526669979095459,-0.011661529541015625,-0.002567768096923828
1663861763295714000,8.287714111328125,-0.15029320120811462,-0.0038890838623046875,-0.0070264339447021484
1663861763305601800,8.297601806640625,-0.09280166029930115,-0.012797355651855469,0.050394415855407715
1663861763315489300,8.3074892578125,-0.07341599464416504,-0.04982471466064453,0.15895724296569824
1663861763325346600,8.3173466796875,-0.05443599820137024,-0.039173126220703125,0.22101235389709473
1663861763335234300,8.327234375,-0.07314041256904602,-0.012159347534179688,0.2581695318222046
1663861763345122000,8.3371220703125,-0.046214938163757324,-0.009074211120605469,0.2190697193145752
1663861763355009500,8.347009521484376,0.025231391191482544,0.012787818908691406,0.1877148151397705
1663861763364897300,8.356897216796876,-0.031953364610672,0.013083457946777344,0.1262822151184082
1663861763374754600,8.366754638671875,-0.08807554841041565,-0.012564659118652344,0.10385596752166748
1663861763384642300,8.376642333984375,-0.04166001081466675,-0.018967628479003906,0.11973285675048828
1663861763394529800,8.38652978515625,-0.10447508096694946,0.0029554367065429688,0.11658334732055664
1663861763404417500,8.39641748046875,-0.10019493103027344,-0.01554107666015625,0.11367535591125488
1663861763414305300,8.40630517578125,-0.034328073263168335,-0.031360626220703125,0.12504518032073975
1663861763424193000,8.416193115234375,-0.03305894136428833,0.0048770904541015625,0.07739698886871338
1663861763434080800,8.426080810546875,-0.03360828757286072,0.005218505859375,0.07284355163574219
1663861763443937800,8.435937744140626,-0.03393593430519104,0.0055255889892578125,0.06861519813537598
1663861763453825500,8.445825439453126,-0.034170836210250854,0.005789756774902344,0.06473684310913086
1663861763463713300,8.45571337890625,-0.03400421142578125,0.006056785583496094,0.06096673011779785
1663861763483488800,8.47548876953125,0.022519171237945557,0.025487899780273438,0.12542212009429932
1663861763493345800,8.485345703125,0.07367992401123047,0.0042171478271484375,0.08314383029937744
1663861763503233500,8.495233642578125,0.03709155321121216,-0.000225067138671875,0.07224059104919434
1663861763513121300,8.505121337890625,0.05051898956298828,-0.018732070922851562,0.042803287506103516
1663861763523009000,8.515009033203125,0.03496846556663513,-0.053436279296875,-0.016775131225585938
1663861763532866000,8.524865966796876,-0.06730976700782776,-0.06402397155761719,-0.03044736385345459
1663861763542784300,8.5347841796875,-0.06575819849967957,-0.04852294921875,-0.06743144989013672
1663861763552672000,8.544672119140625,0.011638790369033813,0.011455535888671875,-0.08006489276885986
1663861763562559700,8.554559814453125,0.043071359395980835,0.05158519744873047,-0.11125731468200684
1663861763572447500,8.564447509765625,-0.022763460874557495,0.09575653076171875,-0.14200150966644287
1663861763582335000,8.5743349609375,-0.07792958617210388,0.10855770111083984,-0.07773041725158691
1663861763592192300,8.584192138671876,-0.030716776847839355,0.11870765686035156,-0.018693089485168457
1663861763602080000,8.594080078125,0.05312836170196533,0.07454204559326172,0.05349838733673096
1663861763611967700,8.6039677734375,0.06951668858528137,0.04757404327392578,0.065665602684021
1663861763621855200,8.613855224609376,0.026299655437469482,0.011603355407714844,0.03537166118621826
1663861763631743000,8.623742919921876,-0.035188376903533936,0.01857757568359375,0.005840420722961426
1663861763641630700,8.633630615234376,-0.03001844882965088,0.04897308349609375,0.0520930290222168
1663861763651518500,8.6435185546875,-0.013365387916564941,0.048277854919433594,0.08321988582611084
1663861763661406200,8.65340625,-0.016090422868728638,0.012280464172363281,0.054845452308654785
1663861763671263200,8.66326318359375,0.007190436124801636,0.016962051391601562,0.0360255241394043
1663861763681120500,8.67312060546875,0.051673948764801025,0.035709381103515625,0.015095114707946777
1663861763691038700,8.683038818359375,0.0344490110874176,0.05179405212402344,-0.01948845386505127
1663861763700926500,8.692926513671875,-0.0013548731803894043,0.029901504516601562,-0.04854404926300049
1663861763710814200,8.702814208984375,-0.043778568506240845,-0.0034236907958984375,-0.06995713710784912
1663861763720701700,8.71270166015625,-0.10458600521087646,-0.0244293212890625,-0.0603640079498291
1663861763730589400,8.72258935546875,-0.07707071304321289,-0.0285797119140625,-0.05816376209259033
1663861763740446700,8.73244677734375,0.004772782325744629,0.0003108978271484375,-0.020586490631103516
1663861763750303700,8.7423037109375,0.05481550097465515,0.02869129180908203,0.0072138309478759766
1663861763760191500,8.75219140625,0.04487854242324829,0.06597328186035156,-0.04768931865692139
1663861763770079200,8.762079345703125,0.06101346015930176,0.017885208129882812,-0.061611175537109375
1663861763779936500,8.7719365234375,-0.010145306587219238,-0.0011587142944335938,-0.06579267978668213
1663861763789824000,8.781823974609376,-0.042112112045288086,0.013083457946777344,-0.10761654376983643
1663861763799742200,8.7917421875,-0.04026871919631958,0.008288383483886719,-0.08532345294952393
1663861763809630000,8.8016298828125,-0.007940739393234253,0.034149169921875,-0.04435431957244873
1663861763819517700,8.811517578125,0.061123549938201904,0.043099403381347656,-0.0064765214920043945
1663861763829375000,8.821375,0.06749328970909119,0.049587249755859375,-0.019085049629211426
1663861763839262500,8.831262451171876,0.023956716060638428,0.020635604858398438,-0.024430036544799805
1663861763849150200,8.841150146484376,-0.03748318552970886,-0.007837295532226562,-0.05077695846557617
1663861763859038000,8.851037841796876,-0.10696780681610107,-0.02876758575439453,-0.06014096736907959
1663861763868895200,8.860895263671875,-0.05711981654167175,0.0001049041748046875,-0.03401541709899902
1663861763878783000,8.870782958984375,0.006029278039932251,0.030862808227539062,-0.029595017433166504
1663861763888670500,8.88067041015625,0.051673680543899536,0.05171012878417969,-0.04662430286407471
1663861763898558200,8.89055810546875,0.06159377098083496,0.07458782196044922,-0.08932220935821533
1663861763908446000,8.900446044921875,0.08541989326477051,0.06645965576171875,-0.17122304439544678
1663861763918333700,8.910333740234375,0.014050066471099854,0.046639442443847656,-0.18082547187805176
1663861763928221400,8.920221435546875,-0.19789817929267883,-0.03883075714111328,-0.12411284446716309
1663861763938109000,8.93010888671875,-0.19387561082839966,-0.08284473419189453,0.0071163177490234375
1663861763947966200,8.93996630859375,-0.005947083234786987,-0.041365623474121094,0.08200526237487793
1663861763957854000,8.94985400390625,0.1263977289199829,0.04420948028564453,0.04686999320983887
1663861763967741700,8.95974169921875,0.06585749983787537,0.11429977416992188,-0.02590632438659668
1663861763977629200,8.969629150390626,0.0188370943069458,0.09613895416259766,-0.08329951763153076
1663861763987486500,8.979486572265625,-0.005823016166687012,0.08530330657958984,-0.09233736991882324
1663861763997374200,8.989374267578125,0.021627306938171387,0.053404808044433594,-0.07491660118103027
1663861764007262000,8.999261962890625,0.07378160953521729,0.017319679260253906,-0.06960511207580566
1663861764017149400,9.0091494140625,-0.0006270706653594971,-0.020545005798339844,-0.08570241928100586
1663861764027037200,9.019037109375,-0.07819867134094238,-0.04831218719482422,-0.06646728515625
1663861764036925000,9.028925048828125,-0.04298439621925354,-0.02610492706298828,-0.04541194438934326
1663861764046812700,9.038812744140625,0.07157990336418152,-0.008986473083496094,-0.008295893669128418
1663861764056700400,9.048700439453125,0.018732190132141113,0.050230979919433594,-0.042595505714416504
1663861764066588000,9.058587890625,0.002214193344116211,0.05669403076171875,-0.09543240070343018
1663861764076475600,9.0684755859375,0.003367304801940918,0.046591758728027344,-0.12596213817596436
1663861764086333000,9.0783330078125,0.002521514892578125,0.07191658020019531,-0.12263047695159912
1663861764096220700,9.088220703125,0.013671785593032837,0.05913543701171875,-0.07215666770935059
1663861764106077700,9.09807763671875,-0.02752441167831421,0.048941612243652344,-0.05558788776397705
1663861764115965400,9.10796533203125,-0.01893863081932068,0.022446632385253906,-0.03717470169067383
1663861764125822700,9.11782275390625,0.010129988193511963,0.0128936767578125,0.01592886447906494
1663861764135741000,9.127740966796875,0.03845953941345215,0.029405593872070312,0.03976643085479736
1663861764145628700,9.137628662109375,0.040567219257354736,0.029198646545410156,0.058298707008361816
1663861764155485700,9.147485595703126,0.014349550008773804,0.047850608825683594,0.05289769172668457
1663861764165373400,9.15737353515625,-0.0019224584102630615,0.03325366973876953,0.03787565231323242
1663861764175261200,9.16726123046875,-0.02279910445213318,0.016597747802734375,0.0015745162963867188
1663861764185118200,9.1771181640625,-0.04615172743797302,-0.0139007568359375,-0.02491605281829834
1663861764195036400,9.187036376953126,-0.02480679750442505,-0.03917407989501953,-0.07701575756072998
1663861764204924200,9.196924072265626,-0.06773203611373901,-0.026372909545898438,-0.11650216579437256
1663861764214781400,9.206781494140625,-0.0980195701122284,-0.025557518005371094,-0.1293196678161621
1663861764224669200,9.216669189453125,-0.11330369114875793,-0.02476978302001953,-0.13939356803894043
1663861764234556700,9.226556640625,-0.08337095379829407,0.004183769226074219,-0.13690698146820068
1663861764244444400,9.2364443359375,-0.06307762861251831,0.04201316833496094,-0.07740771770477295
1663861764254332200,9.246332275390625,-0.03826913237571716,0.04623222351074219,-0.05408036708831787
1663861764264220000,9.256219970703125,-0.04669630527496338,0.04565620422363281,-0.009818673133850098
1663861764274077000,9.266076904296876,-0.04778379201889038,0.019194602966308594,0.02665233612060547
1663861764283995100,9.2759951171875,-0.02070412039756775,-0.0067996978759765625,0.01993560791015625
1663861764293852400,9.285852294921876,0.015434890985488892,-0.008760452270507812,-0.02241802215576172
1663861764303709700,9.295709716796875,0.02505996823310852,-0.02009868621826172,-0.061807990074157715
1663861764313628000,9.3056279296875,0.013404250144958496,-0.005343437194824219,-0.11223316192626953
1663861764323485000,9.31548486328125,-0.009816586971282959,0.03032398223876953,-0.14524829387664795
1663861764333403100,9.325403076171876,-0.03998321294784546,0.048890113830566406,-0.118560791015625
1663861764343260400,9.335260498046875,-0.027587562799453735,0.024723052978515625,-0.06386256217956543
1663861764353148200,9.345148193359375,0.02700313925743103,0.0009288787841796875,-0.01468205451965332
1663861764363036000,9.355035888671875,0.03372669219970703,-0.0035791397094726562,-0.01594364643096924
1663861764372923400,9.36492333984375,-0.001724153757095337,0.017905235290527344,-0.05974125862121582
1663861764382811100,9.37481103515625,0.010882139205932617,-0.00800323486328125,-0.07485306262969971
1663861764392699000,9.384698974609375,0.027980804443359375,-0.024049758911132812,-0.10401749610900879
1663861764402586600,9.394586669921875,0.014121979475021362,-0.004481315612792969,-0.11395025253295898
1663861764412474400,9.404474365234375,0.019295424222946167,0.01708698272705078,-0.13774895668029785
1663861764422361900,9.41436181640625,0.02224069833755493,0.017116546630859375,-0.15410256385803223
1663861764432249600,9.42424951171875,0.05109107494354248,0.012448310852050781,-0.15849852561950684
1663861764442107000,9.43410693359375,0.06095021963119507,0.026709556579589844,-0.14865374565124512
1663861764451994600,9.44399462890625,0.03769221901893616,0.038318634033203125,-0.16217803955078125
1663861764461882000,9.453882080078126,-0.008331328630447388,0.028542518615722656,-0.15887987613677979
1663861764471769900,9.463769775390626,0.007417559623718262,0.0047893524169921875,-0.12022292613983154
1663861764481657600,9.47365771484375,0.003968775272369385,0.0073413848876953125,-0.08230268955230713
1663861764491545300,9.48354541015625,0.01940864324569702,-0.020772933959960938,-0.06375813484191895
1663861764501433000,9.49343310546875,0.06304043531417847,0.005738258361816406,-0.03845655918121338
1663861764511320600,9.503320556640626,0.05175700783729553,0.0365447998046875,-0.0020102262496948242
1663861764521208300,9.513208251953126,0.019361823797225952,0.05743694305419922,-0.027566909790039062
1663861764531065600,9.523065673828125,0.015795201063156128,0.023871421813964844,-0.05053567886352539
1663861764540953300,9.532953369140625,0.0217418372631073,0.0261993408203125,-0.08040320873260498
1663861764550840800,9.5428408203125,0.020493239164352417,0.037896156311035156,-0.0909348726272583
1663861764560728600,9.552728515625,-0.01599159836769104,0.058768272399902344,-0.08677184581756592
1663861764570616300,9.5626162109375,0.01617562770843506,0.05574321746826172,-0.05441761016845703
1663861764580504000,9.572504150390625,0.031132042407989502,0.03864288330078125,-0.04614222049713135
1663861764590361300,9.582361328125,-0.0035365819931030273,0.03361797332763672,-0.04525911808013916
1663861764600248800,9.592248779296876,-0.004738807678222656,0.005146980285644531,-0.04215812683105469
1663861764610136600,9.602136474609376,0.0077179670333862305,-0.0087432861328125,-0.04841196537017822
1663861764620024300,9.6120244140625,0.012749254703521729,0.019967079162597656,-0.012210726737976074
1663861764629912000,9.621912109375,0.008288055658340454,0.03169536590576172,0.01408243179321289
1663861764639799800,9.6317998046875,-0.005671262741088867,0.036156654357910156,0.016495347023010254
1663861764649656800,9.64165673828125,0.00873371958732605,0.03113079071044922,0.01640605926513672
1663861764659514000,9.65151416015625,0.013430893421173096,0.016821861267089844,-0.0028516054153442383
1663861764669371100,9.66137109375,-0.0006619691848754883,0.0027379989624023438,-0.021773219108581543
1663861764679289300,9.671289306640626,-0.00028201937675476074,-0.013446807861328125,-0.01449441909790039
1663861764689177000,9.681177001953126,-0.002225816249847412,0.005928993225097656,-0.03077101707458496
1663861764699064800,9.69106494140625,0.014945566654205322,0.001445770263671875,-0.011446952819824219
1663861764708922000,9.700922119140625,0.0013249218463897705,-0.010026931762695312,-0.004098773002624512
1663861764718809600,9.7108095703125,0.02337092161178589,-0.0024738311767578125,-0.018076062202453613
1663861764728697300,9.720697265625,0.0263080894947052,-0.011507034301757812,-0.022614121437072754
1663861764738585000,9.730585205078125,0.019864141941070557,0.007880210876464844,-0.0036281347274780273
1663861764748472800,9.740472900390625,0.03483301401138306,0.019881248474121094,0.010419130325317383
1663861764758329900,9.750329833984376,0.07523053884506226,0.043437957763671875,0.012479066848754883
1663861764768217600,9.760217529296876,0.08874130249023438,0.010072708129882812,0.0122450590133667
1663861764778075000,9.770074951171875,0.07847905158996582,0.03141307830810547,0.0049591064453125
1663861764787993000,9.7799931640625,0.09431445598602295,0.050057411193847656,0.026040196418762207
1663861764797880800,9.789880859375,0.0649401843547821,0.035376548767089844,0.03287184238433838
1663861764807768300,9.799768310546876,0.04053959250450134,0.03742408752441406,0.05370652675628662
1663861764817656000,9.809656005859376,0.0657697319984436,0.03003406524658203,0.04101693630218506
1663861764827543800,9.819543701171876,0.06658366322517395,0.025124549865722656,0.04266810417175293
1663861764837431600,9.829431640625,0.05294284224510193,0.022626876831054688,0.04664909839630127
1663861764847319300,9.8393193359375,0.04885619878768921,0.03898429870605469,0.036543846130371094
1663861764857207000,9.84920703125,0.03747549653053284,0.022108078002929688,0.010140299797058105
1663861764867094500,9.859094482421876,0.0354139506816864,0.028990745544433594,0.022163867950439453
1663861764876951800,9.868951904296875,0.044902801513671875,0.038094520568847656,0.05775141716003418
1663861764886809000,9.87880908203125,0.014040470123291016,0.032906532287597656,0.10921037197113037
1663861764896696600,9.888696533203126,0.02830713987350464,0.02310466766357422,0.1221320629119873
1663861764906584300,9.898584228515626,0.025949478149414062,0.004016876220703125,0.12082445621490479
1663861764916472000,9.90847216796875,0.02562651038169861,-0.0029449462890625,0.12167370319366455
1663861764926359800,9.91835986328125,-0.019568324089050293,-0.014521598815917969,0.1060112714767456
1663861764936247600,9.92824755859375,-0.038076043128967285,-0.009413719177246094,0.08354592323303223
1663861764946104600,9.9381044921875,-0.030355751514434814,-0.013823509216308594,0.09449112415313721
1663861764955992300,9.947992431640625,-0.06279018521308899,-0.025237083435058594,0.09121286869049072
1663861764965880000,9.957880126953125,-0.05460110306739807,-0.0034799575805664062,0.09975481033325195
1663861764985624800,9.977624755859376,-0.04842096567153931,-0.019649505615234375,0.08775103092193604
1663861764995512600,9.9875126953125,-0.047551244497299194,0.0019664764404296875,0.08012580871582031
1663861765005400300,9.997400390625,-0.08219650387763977,-0.007376670837402344,0.0820232629776001
1663861765015288000,10.0072880859375,-0.08565440773963928,-0.021287918090820312,0.07915353775024414
1663861765025175600,10.017175537109376,-0.07008868455886841,-0.037314414978027344,0.062297821044921875
1663861765035032800,10.02703271484375,-0.099357008934021,-0.06250286102294922,0.06463181972503662
1663861765044920600,10.036920654296875,-0.043435364961624146,-0.05196380615234375,0.07645285129547119
1663861765054808300,10.046808349609375,-0.01197555661201477,-0.051011085510253906,0.0761955976486206
1663861765064695800,10.05669580078125,-0.020953655242919922,-0.03117847442626953,0.040094971656799316
1663861765074583600,10.06658349609375,-0.015023797750473022,-0.0116424560546875,-0.02610790729522705
1663861765084440800,10.07644091796875,-0.036570966243743896,0.009937286376953125,-0.06520533561706543
1663861765094328600,10.08632861328125,-0.029109477996826172,0.038214683532714844,-0.07284009456634521
1663861765104216300,10.09621630859375,-0.04541826248168945,0.04950428009033203,-0.054118990898132324
1663861765114103800,10.106103759765626,-0.024019479751586914,0.04641437530517578,-0.04708290100097656
1663861765123991600,10.115991455078126,0.03932902216911316,0.022147178649902344,-0.0021463632583618164
1663861765133848800,10.125848876953125,0.030741095542907715,0.017091751098632812,0.020968079566955566
1663861765143736600,10.135736572265625,0.017513543367385864,0.000354766845703125,0.029572606086730957
1663861765153624000,10.1456240234375,0.051368772983551025,-0.009058952331542969,0.028619050979614258
1663861765163511800,10.15551171875,0.05402541160583496,-0.018303871154785156,0.07231307029724121
1663861765173399600,10.165399658203125,0.05205583572387695,-0.017943382263183594,0.07033014297485352
1663861765183287300,10.175287353515625,0.05023762583732605,-0.01758575439453125,0.06838440895080566
1663861765193144300,10.185144287109376,0.048545777797698975,-0.017206192016601562,0.06625783443450928
1663861765203032000,10.195031982421876,0.0469854474067688,-0.016829490661621094,0.0641639232635498
1663861765212919800,10.204919921875,0.045699477195739746,-0.01645183563232422,0.062116384506225586
1663861765222807600,10.2148076171875,0.0443667471408844,-0.01605987548828125,0.05990314483642578
1663861765232695300,10.2246953125,-0.03452020883560181,0.0008182525634765625,-0.015265822410583496
1663861765242582800,10.234582763671876,-0.04375311732292175,0.019735336303710938,-0.05129075050354004
1663861765252440000,10.244440185546875,-0.03162962198257446,0.012413978576660156,-0.055906057357788086
1663861765262327800,10.254327880859375,-0.02689504623413086,0.00045299530029296875,-0.026955008506774902
1663861765272215600,10.264215576171875,-0.00586932897567749,0.014557838439941406,0.0251619815826416
1663861765282103000,10.27410302734375,0.0241888165473938,0.014296531677246094,0.06473100185394287
1663861765291990800,10.28399072265625,0.035272806882858276,0.028184890747070312,0.07305407524108887
1663861765301878500,10.29387841796875,0.02262696623802185,0.008898735046386719,0.05972182750701904
1663861765311766300,10.303766357421875,0.022064268589019775,0.02294158935546875,0.06288671493530273
1663861765321654000,10.313654052734375,0.023722738027572632,0.013190269470214844,0.0471569299697876
1663861765331541800,10.323541748046875,0.034514009952545166,0.02715015411376953,0.0481492280960083
1663861765341398800,10.333398681640626,0.028551161289215088,0.010266304016113281,0.041927218437194824
1663861765351286500,10.34328662109375,0.03187251091003418,-0.0016298294067382812,0.03354990482330322
1663861765361174300,10.35317431640625,0.018697589635849,0.007843017578125,0.027683377265930176
1663861765371031300,10.36303125,0.03177592158317566,-0.006378173828125,-0.0015169382095336914
1663861765380919000,10.3729189453125,0.02119392156600952,0.0008153915405273438,0.00519871711730957
1663861765390806800,10.382806884765625,-0.017499208450317383,0.017297744750976562,-0.004687786102294922
1663861765400694500,10.392694580078125,0.0197259783744812,0.01230621337890625,-0.014333605766296387
1663861765410582300,10.402582275390625,0.05160978436470032,-0.030275344848632812,-0.0048743486404418945
1663861765420469800,10.4124697265625,0.02683582901954651,-0.01798725128173828,-0.01921665668487549
1663861765430327000,10.4223271484375,0.040137141942977905,0.008230209350585938,-0.030948281288146973
1663861765440214800,10.43221484375,0.03455963730812073,-0.006035804748535156,-0.011583566665649414
1663861765450133000,10.442133056640625,0.04577788710594177,-0.015346527099609375,-0.013834595680236816
1663861765460020700,10.452020751953125,0.03560781478881836,-0.008013725280761719,-0.01840341091156006
1663861765469908200,10.461908203125,0.042178988456726074,-0.04082965850830078,-0.022904157638549805
1663861765479796000,10.4717958984375,0.056037843227386475,-0.011869430541992188,-0.03202223777770996
1663861765489683700,10.48168359375,0.05553150177001953,0.009540557861328125,-0.033936262130737305
1663861765499571500,10.491571533203125,0.05042865872383118,0.02588939666748047,-0.045134782791137695
1663861765509459200,10.501459228515625,0.06656038761138916,0.01604175567626953,-0.027785181999206543
1663861765519346700,10.5113466796875,0.07986852526664734,0.015760421752929688,-0.015340685844421387
1663861765529204000,10.521203857421876,0.06955590844154358,0.022554397583007812,-0.02428257465362549
1663861765539061200,10.531061279296875,0.07845529913902283,0.0151214599609375,-0.05199325084686279
1663861765548918300,10.540918212890626,0.07779857516288757,0.019591331481933594,-0.06513786315917969
1663861765558836500,10.55083642578125,0.06778609752655029,0.007472038269042969,-0.044872283935546875
1663861765568724200,10.56072412109375,0.0814654529094696,0.0073451995849609375,-0.05564606189727783
1663861765578612000,10.570612060546875,0.10678961873054504,-0.002170562744140625,-0.0640099048614502
1663861765588499700,10.580499755859375,0.07514771819114685,0.007275581359863281,-0.06976926326751709
1663861765598356700,10.590356689453126,0.08854970335960388,0.03775787353515625,-0.0730966329574585
1663861765608244500,10.600244384765626,0.09456884860992432,0.03002643585205078,-0.029066920280456543
1663861765618132200,10.61013232421875,0.09089097380638123,0.00830841064453125,-0.01645946502685547
1663861765628020000,10.62002001953125,0.09403461217880249,0.015181541442871094,-0.006322264671325684
1663861765637907700,10.62990771484375,0.09029650688171387,0.036080360412597656,-0.005859971046447754
1663861765647795200,10.639795166015626,0.09818392992019653,0.03543567657470703,-0.03129887580871582
1663861765657683000,10.649682861328126,0.08467477560043335,0.023035049438476562,-0.05630946159362793
1663861765667570700,10.65957080078125,0.07612460851669312,-0.0032930374145507812,-0.08324635028839111
1663861765677458400,10.66945849609375,0.06299328804016113,0.017913818359375,-0.07687985897064209
1663861765687346200,10.67934619140625,0.05241435766220093,0.024621963500976562,-0.08689391613006592
1663861765697233700,10.689233642578126,0.0608275830745697,0.010004997253417969,-0.08958256244659424
1663861765707091000,10.699091064453125,0.04333701729774475,0.014481544494628906,-0.06397044658660889
1663861765716978700,10.708978759765625,0.04726827144622803,0.01652240753173828,-0.04347801208496094
1663861765726866400,10.718866455078125,0.048749059438705444,0.02086925506591797,-0.03024899959564209
1663861765736723500,10.728723388671876,0.017382949590682983,0.022779464721679688,-0.043036818504333496
1663861765746611200,10.738611083984376,0.012531667947769165,-0.008328437805175781,-0.02948760986328125
1663861765756499000,10.7484990234375,0.01263532042503357,-0.027146339416503906,-0.03267097473144531
1663861765766356000,10.75835595703125,0.022096484899520874,-0.01976299285888672,-0.0002943277359008789
1663861765776243700,10.76824365234375,0.019652873277664185,-0.024251937866210938,0.03600645065307617
1663861765786131500,10.77813134765625,0.00321197509765625,-0.016870498657226562,0.0833660364151001
1663861765796019200,10.788019287109375,0.06010401248931885,-0.00958251953125,0.06851601600646973
1663861765805876500,10.79787646484375,0.07628163695335388,-0.00711822509765625,0.030377864837646484
1663861765815794700,10.807794677734375,0.049925655126571655,0.028283119201660156,-0.023818016052246094
1663861765825682200,10.81768212890625,0.01948109269142151,0.016046524047851562,-0.10312461853027344
1663861765835570000,10.82756982421875,0.011023998260498047,0.018120765686035156,-0.12439835071563721
1663861765845457700,10.837457763671875,0.021447211503982544,0.034236907958984375,-0.1096944808959961
1663861765855345400,10.847345458984375,0.0054434239864349365,0.02884674072265625,-0.05961024761199951
1663861765865202400,10.857202392578126,-0.024761170148849487,0.042366981506347656,-0.003195524215698242
1663861765875090200,10.867090087890626,0.023164182901382446,0.02267742156982422,0.031108975410461426
1663861765884978000,10.87697802734375,0.04660147428512573,0.0033092498779296875,0.03435969352722168
1663861765894865700,10.88686572265625,0.027326643466949463,0.0007648468017578125,0.035004615783691406
1663861765904753400,10.89675341796875,0.0131758451461792,-0.008772850036621094,0.007280588150024414
1663861765914641000,10.906640869140626,0.04172798991203308,-0.032280921936035156,-0.036464571952819824
1663861765924528600,10.916528564453126,0.011009663343429565,-0.02006244659423828,-0.058519601821899414
1663861765934386000,10.926385986328125,-0.007403284311294556,-0.0033321380615234375,-0.08259451389312744
1663861765944273700,10.936273681640625,-0.0114268958568573,-0.010395050048828125,-0.066367506980896
1663861765954161200,10.9461611328125,0.01518365740776062,0.008524894714355469,-0.07381081581115723
1663861765964049000,10.956048828125,0.024953186511993408,0.015353202819824219,-0.09514808654785156
1663861765973936600,10.9659365234375,-0.012500077486038208,0.014974594116210938,-0.10411262512207031
1663861765983824400,10.975824462890625,0.007338166236877441,0.03105449676513672,-0.08682012557983398
1663861765993681400,10.985681396484376,0.005668371915817261,0.03509044647216797,-0.08382546901702881
1663861766003569200,10.995569091796876,-0.02913498878479004,0.022546768188476562,-0.052512288093566895
1663861766013426400,11.005426513671875,-0.023445308208465576,0.010223388671875,-0.014663338661193848
1663861766023314200,11.015314208984375,0.02199670672416687,0.007508277893066406,0.010760664939880371
1663861766033171200,11.025171142578126,0.014860838651657104,0.007221221923828125,0.028464436531066895
1663861766043089400,11.03508935546875,0.005368411540985107,-0.007187843322753906,0.010469675064086914
1663861766052946700,11.04494677734375,-0.0037156343460083008,-0.016582489013671875,-0.005181550979614258
1663861766062804000,11.054803955078125,-0.01248958706855774,-0.016396522521972656,-0.034799933433532715
1663861766072722200,11.06472216796875,-0.011718928813934326,-0.0138702392578125,-0.0802915096282959
1663861766082579200,11.0745791015625,-0.03924375772476196,0.01682758331298828,-0.05409693717956543
1663861766092497400,11.084497314453126,-0.019115686416625977,0.02581501007080078,-0.05658447742462158
1663861766102385200,11.09438525390625,0.0003446340560913086,0.011139869689941406,-0.0286407470703125
1663861766112273000,11.10427294921875,-0.00430026650428772,-0.0009708404541015625,0.0012896060943603516
1663861766122160600,11.11416064453125,0.00771525502204895,-0.005835533142089844,0.01679527759552002
1663861766132017700,11.124017578125,0.0005654692649841309,0.00118255615234375,0.0012280941009521484
1663861766141875000,11.133875,-0.003910750150680542,0.0057621002197265625,0.002180933952331543
1663861766151762700,11.1437626953125,-0.031838566064834595,-0.020343780517578125,0.029018521308898926
1663861766161681000,11.153680908203125,-0.007746249437332153,-0.013072967529296875,-0.015111684799194336
1663861766171568400,11.163568359375,-0.014651268720626831,-0.005949974060058594,-0.02073967456817627
1663861766181456100,11.1734560546875,-0.028519898653030396,0.005806922912597656,-0.03120434284210205
1663861766191343900,11.18334375,-0.03973686695098877,0.005566596984863281,-0.017734646797180176
1663861766201231600,11.193231689453125,-0.04596257209777832,-0.004116058349609375,-0.0019403696060180664
1663861766211119400,11.203119384765625,-0.061439573764801025,-0.015974044799804688,0.0018110275268554688
1663861766221006800,11.2130068359375,-0.024665415287017822,-0.004085540771484375,0.01010119915008545
1663861766230864100,11.222864013671876,-0.012195229530334473,0.0029172897338867188,0.004001140594482422
1663861766240751900,11.232751953125,-0.02565571665763855,-0.0137176513671875,0.04262900352478027
1663861766250639600,11.2426396484375,-0.0011378228664398193,-0.0042018890380859375,0.024206995964050293
1663861766260527400,11.25252734375,0.0017715990543365479,-0.023070335388183594,0.02951037883758545
1663861766270414800,11.262414794921876,-0.01655539870262146,-0.013357162475585938,0.0040291547775268555
1663861766280302600,11.272302490234376,0.00793030858039856,-0.00617218017578125,-0.013956308364868164
1663861766290190300,11.2821904296875,-0.01262924075126648,0.0032672882080078125,-0.005748152732849121
1663861766300047600,11.292047607421875,-0.021083533763885498,0.00311279296875,0.0000667572021484375
1663861766309935000,11.30193505859375,-0.003339797258377075,-0.022942543029785156,0.0011698007583618164
1663861766319822800,11.31182275390625,0.0072550177574157715,-0.017960548400878906,-0.0023545026779174805
1663861766329680100,11.32168017578125,0.024735212326049805,-0.00833892822265625,-0.006030082702636719
1663861766339567900,11.33156787109375,0.03488856554031372,-0.008272171020507812,-0.00032067298889160156
1663861766349455400,11.341455322265626,0.042382270097732544,0.005936622619628906,-0.030137062072753906
1663861766359312600,11.351312744140625,0.04749944806098938,-0.0036296844482421875,-0.0572129487991333
1663861766369170000,11.361169921875,0.0312252938747406,0.012857437133789062,-0.09785473346710205
1663861766379088100,11.371088134765625,0.03854185342788696,0.01961040496826172,-0.10004639625549316
1663861766388945200,11.380945068359376,0.062052756547927856,0.04978656768798828,-0.07855141162872314
1663861766398833000,11.3908330078125,0.04024302959442139,0.058238983154296875,-0.057174086570739746
1663861766408751000,11.400751220703125,-0.009478986263275146,0.031238555908203125,-0.05038571357727051
1663861766418638800,11.410638916015625,-0.006311297416687012,0.011763572692871094,-0.041327834129333496
1663861766428496000,11.420495849609376,-0.0033044517040252686,-0.007419586181640625,-0.015843629837036133
1663861766438353200,11.430353271484375,0.0066922008991241455,-0.023926734924316406,-0.03541433811187744
1663861766448271400,11.440271240234376,0.006930530071258545,-0.018953323364257812,-0.043088436126708984
1663861766458128600,11.450128662109375,0.00476604700088501,0.00476837158203125,-0.04123044013977051
1663861766468016000,11.46001611328125,0.02849489450454712,-0.014278411865234375,-0.03705573081970215
1663861766477873400,11.469873291015626,0.000031828880310058594,-0.004782676696777344,-0.03520393371582031
1663861766487761200,11.47976123046875,0.012181967496871948,-0.007205963134765625,-0.028667807579040527
1663861766497679400,11.489679443359375,-0.017992645502090454,-0.004879951477050781,-0.0292128324508667
1663861766507567000,11.499567138671875,-0.05232846736907959,-0.0049724578857421875,-0.029555559158325195
1663861766517454800,11.509454833984375,-0.04125666618347168,-0.01678180694580078,-0.01136934757232666
1663861766527312000,11.519311767578126,0.009594172239303589,-0.01662158966064453,-0.040679335594177246
1663861766537199600,11.52919970703125,0.04541614651679993,-0.028260231018066406,-0.06466436386108398
1663861766547087400,11.53908740234375,0.028929799795150757,-0.004384040832519531,-0.045857906341552734
1663861766556975000,11.54897509765625,0.04339677095413208,-0.02325153350830078,-0.060506582260131836
1663861766566862600,11.558862548828126,0.013224214315414429,-0.015909194946289062,-0.11247503757476807
1663861766576750300,11.568750244140626,-0.004375934600830078,-0.008680343627929688,-0.12365758419036865
1663861766586607600,11.578607666015625,0.004285931587219238,0.017263412475585938,-0.09689521789550781
1663861766596495400,11.588495361328125,-0.00582316517829895,0.014500617980957031,-0.07743752002716064
1663861766606382800,11.5983828125,0.0008453726768493652,0.011759757995605469,-0.013234496116638184
1663861766616270600,11.6082705078125,-0.000017464160919189453,0.016099929809570312,0.028609395027160645
1663861766626158300,11.618158447265625,0.03665325045585632,-0.0031671524047851562,0.050943732261657715
1663861766636046000,11.628046142578125,0.037251174449920654,0.0038194656372070312,0.05141556262969971
1663861766645933800,11.637933837890625,0.0262739360332489,0.006028175354003906,0.04449141025543213
1663861766655821300,11.6478212890625,0.02721509337425232,0.029386520385742188,0.014148116111755371
1663861766665709000,11.657708984375,0.0017631351947784424,0.03587913513183594,-0.008758306503295898
1663861766675596800,11.6675966796875,-0.02342739701271057,0.02104473114013672,-0.033547282218933105
1663861766685484500,11.677484619140625,-0.024656087160110474,-0.002979278564453125,-0.06477940082550049
1663861766695372300,11.687372314453125,-0.004784137010574341,0.0016326904296875,-0.04123365879058838
1663861766705229300,11.697229248046876,0.024191677570343018,-0.0008993148803710938,-0.046334147453308105
1663861766715117000,11.707116943359376,0.02905261516571045,0.017778396606445312,-0.015915274620056152
1663861766725004800,11.7170048828125,0.008161485195159912,0.029100418090820312,0.0022367238998413086
1663861766734892500,11.726892578125,0.001631617546081543,0.021384239196777344,-0.01289379596710205
1663861766744780300,11.7367802734375,-0.04038357734680176,0.020852088928222656,-0.011275172233581543
1663861766754667800,11.746667724609376,-0.04180175065994263,0.006191253662109375,0.011605262756347656
1663861766764525000,11.756525146484375,-0.024500787258148193,0.00115203857421875,0.029607653617858887
1663861766774412800,11.766412841796875,-0.0006473064422607422,-0.008551597595214844,0.04279613494873047
1663861766784300500,11.776300537109375,-0.007935106754302979,-0.013358116149902344,0.07910382747650146
1663861766794188000,11.78618798828125,-0.02446046471595764,-0.02511882781982422,0.04168903827667236
1663861766804075800,11.79607568359375,-0.019417941570281982,-0.0013599395751953125,0.028348565101623535
1663861766813963500,11.805963623046875,-0.02857932448387146,-0.00860595703125,0.005811333656311035
1663861766823820800,11.81582080078125,-0.04923120141029358,-0.011015892028808594,0.00012362003326416016
1663861766833708300,11.825708251953126,-0.06264957785606384,-0.013390541076660156,0.011007308959960938
1663861766843596000,11.835595947265626,-0.03579312562942505,0.0031528472900390625,0.012056708335876465
1663861766853453300,11.845453369140625,-0.03052273392677307,-0.013555526733398438,0.027193307876586914
1663861766863341000,11.855341064453125,-0.020613938570022583,-0.008769989013671875,0.018448233604431152
1663861766873198000,11.865197998046876,-0.008380025625228882,0.0030069351196289062,0.014549016952514648
1663861766883116300,11.8751162109375,-0.026901334524154663,-0.001903533935546875,-0.005735278129577637
1663861766892973600,11.8849736328125,-0.03821590542793274,0.01914501190185547,-0.009100675582885742
1663861766902861300,11.894861328125,-0.06113496422767639,0.0021657943725585938,-0.005236387252807617
1663861766912748800,11.904748779296876,-0.05313578248023987,-0.009863853454589844,0.008169412612915039
1663861766922606000,11.914606201171875,-0.021679311990737915,-0.0075550079345703125,0.03310811519622803
1663861766932493800,11.924493896484375,-0.018967032432556152,-0.014704704284667969,0.06704115867614746
1663861766942381600,11.934381591796875,0.004976630210876465,-0.01937580108642578,0.072151780128479
1663861766952238600,11.944238525390626,-0.039749473333358765,-0.0027523040771484375,0.046457648277282715
1663861766962126300,11.954126220703126,0.01021277904510498,0.011244773864746094,0.020980358123779297
1663861766972044500,11.96404443359375,0.030875325202941895,0.01794910430908203,0.043015241622924805
1663861766981901800,11.97390185546875,-0.014824926853179932,0.02221202850341797,0.005617499351501465
1663861766991820000,11.983820068359375,-0.026981353759765625,0.019303321838378906,-0.02625727653503418
1663861767001707800,11.993707763671875,-0.031697601079940796,-0.014173507690429688,-0.01983630657196045
1663861767011595300,12.00359521484375,-0.008188873529434204,0.011781692504882812,0.002850055694580078
1663861767021483000,12.01348291015625,-0.020272105932235718,0.0043277740478515625,-0.007697105407714844
1663861767031370800,12.023370849609375,-0.03213939070701599,-0.012409210205078125,0.000777125358581543
1663861767041258500,12.033258544921875,-0.005844235420227051,-0.017093658447265625,-0.016791105270385742
1663861767051146200,12.043146240234375,-0.010717719793319702,-0.02167510986328125,-0.029585838317871094
1663861767061003300,12.053003173828126,0.010373473167419434,-0.03794384002685547,-0.028039932250976562
1663861767070891000,12.06289111328125,0.01708430051803589,-0.013906478881835938,-0.045455336570739746
1663861767080778800,12.07277880859375,0.00950440764427185,-0.011455535888671875,-0.04376065731048584
1663861767090666500,12.08266650390625,-0.005123019218444824,-0.004353523254394531,-0.03727841377258301
1663861767100554000,12.092553955078126,-0.010102182626724243,0.000286102294921875,-0.03334689140319824
1663861767110441700,12.102441650390626,0.02267688512802124,0.0001373291015625,-0.02711808681488037
1663861767120299000,12.112299072265625,-0.0016579627990722656,0.023529052734375,-0.03747916221618652
1663861767130186800,12.122186767578125,0.007313847541809082,0.041800498962402344,-0.059313058853149414
1663861767140074200,12.13207421875,0.001714169979095459,0.026792526245117188,-0.05006086826324463
1663861767149962000,12.1419619140625,0.019657880067825317,0.02142333984375,-0.06205475330352783
1663861767159849700,12.151849609375,-0.02391582727432251,0.01848316192626953,-0.047833800315856934
1663861767169737500,12.161737548828125,-0.02215638756752014,0.029692649841308594,-0.021984100341796875
1663861767179594500,12.171594482421876,-0.04165443778038025,0.0077667236328125,0.026961088180541992
1663861767189451800,12.18145166015625,-0.03263372182846069,-0.03967761993408203,0.05378758907318115
1663861767199339500,12.191339599609375,0.004622608423233032,-0.020383834838867188,0.05406475067138672
1663861767209227300,12.201227294921875,0.0249653160572052,-0.02020549774169922,0.061189889907836914
1663861767219115000,12.211114990234375,0.012108772993087769,-0.017625808715820312,0.023134350776672363
1663861767229002500,12.22100244140625,-0.005290031433105469,0.015516281127929688,-0.014261245727539062
1663861767238890200,12.23089013671875,-0.017808467149734497,0.02221965789794922,-0.0558699369430542
1663861767248778000,12.240778076171875,-0.020816951990127563,0.016983985900878906,-0.06348717212677002
1663861767258665700,12.250665771484375,-0.05216526985168457,0.009446144104003906,-0.03782463073730469
1663861767268553500,12.260553466796875,-0.05686527490615845,-0.009748458862304688,-0.0359417200088501
1663861767278441000,12.27044091796875,-0.04492312669754028,-0.016901016235351562,-0.005525827407836914
1663861767288328700,12.28032861328125,-0.04039716720581055,-0.016885757446289062,0.057430267333984375
1663861767298186000,12.29018603515625,-0.0029642581939697266,-0.035701751708984375,0.07226276397705078
1663861767308073700,12.30007373046875,0.04317331314086914,-0.021228790283203125,0.07251536846160889
1663861767317930800,12.3099306640625,0.03898337483406067,-0.0186767578125,0.027404308319091797
1663861767327818500,12.319818603515625,0.018627047538757324,-0.004337310791015625,-0.012537240982055664
