time,seconds_elapsed,z,y,x
1663861755271063600,0.2630634765625,9.1658296585083,2.425211191177368,-2.505255937576294
1663861755280951300,0.272951416015625,9.18262767791748,2.53511643409729,-2.328716516494751
1663861755290839000,0.282839111328125,9.214944839477539,2.6346051692962646,-2.07702898979187
1663861755300696300,0.2926962890625,9.248793601989746,2.7083041667938232,-1.8152917623519897
1663861755310583800,0.302583740234375,9.271942138671875,2.7814180850982666,-1.5700932741165161
1663861755320471600,0.312471435546875,9.288290977478027,2.8488736152648926,-1.3348956108093262
1663861755330359300,0.322359375,9.308520317077637,2.879904270172119,-1.1081507205963135
1663861755340277500,0.332277587890625,9.336616516113281,2.859330654144287,-0.9067586660385132
1663861755350165200,0.342165283203125,9.36950397491455,2.7725765705108643,-0.8340281248092651
1663861755360053000,0.352052978515625,9.398104667663574,2.6246378421783447,-0.9784203767776489
1663861755369910000,0.361909912109375,9.409048080444336,2.4899392127990723,-1.2001688480377197
1663861755379797800,0.3717978515625,9.410770416259766,2.4303717613220215,-1.3042523860931396
1663861755389655000,0.381655029296875,9.41075325012207,2.4396703243255615,-1.2868993282318115
1663861755399542800,0.391542724609375,9.413150787353516,2.4690635204315186,-1.2110730409622192
1663861755409430300,0.40143017578125,9.418723106384277,2.483920097351074,-1.1349879503250122
1663861755419318000,0.411318115234375,9.430842399597168,2.461899995803833,-1.0810467004776
1663861755429175300,0.42117529296875,9.445634841918945,2.422797203063965,-1.0394412279129028
1663861755439063000,0.43106298828125,9.456092834472656,2.402493953704834,-0.9903131723403931
1663861755448981200,0.440981201171875,9.458817481994629,2.4282939434051514,-0.8969712257385254
1663861755458838300,0.45083837890625,9.451022148132324,2.504366397857666,-0.7594143748283386
1663861755468726000,0.46072607421875,9.433427810668945,2.6092700958251953,-0.6103667616844177
1663861755478583300,0.470583251953125,9.411130905151367,2.712196111679077,-0.4949738383293152
1663861755488470800,0.480470703125,9.3936767578125,2.782296657562256,-0.43365710973739624
1663861755498389000,0.490388916015625,9.386311531066895,2.809096574783325,-0.42011624574661255
1663861755508276700,0.50027685546875,9.384478569030762,2.8149313926696777,-0.42204320430755615
1663861755518164500,0.51016455078125,9.378314018249512,2.8386008739471436,-0.3999488055706024
1663861755528052200,0.52005224609375,9.362204551696777,2.8976857662200928,-0.3506056070327759
1663861755537940000,0.52993994140625,9.336852073669434,2.984700918197632,-0.291779488325119
1663861755547827700,0.53982763671875,9.307615280151367,3.0792930126190186,-0.23797158896923065
1663861755557715200,0.549715087890625,9.28336238861084,3.1540415287017822,-0.20395177602767944
1663861755567603000,0.55960302734375,9.269634246826172,3.194566011428833,-0.1975216120481491
1663861755577490700,0.56949072265625,9.266105651855469,3.203523874282837,-0.21701909601688385
1663861755587317200,0.579317138671875,9.26558780670166,3.2029497623443604,-0.2457185834646225
1663861755597205000,0.589205078125,9.262656211853027,3.2099993228912354,-0.26362675428390503
1663861755607092700,0.5990927734375,9.260078430175781,3.2173964977264404,-0.2639879882335663
1663861755616980500,0.60898046875,9.262641906738281,3.2101049423217773,-0.2628011405467987
1663861755626868200,0.6188681640625,9.267580032348633,3.194708824157715,-0.2760337293148041
1663861755636755700,0.628755615234375,9.268169403076172,3.1916086673736572,-0.2916608154773712
1663861755646643500,0.6386435546875,9.266265869140625,3.196565628051758,-0.2977711260318756
1663861755656531200,0.64853125,9.266683578491211,3.1956114768981934,-0.29502367973327637
1663861755666419000,0.6584189453125,9.267251968383789,3.194917917251587,-0.28446054458618164
1663861755676306700,0.668306640625,9.26567554473877,3.2019708156585693,-0.2550083100795746
1663861755686194200,0.678194091796875,9.262654304504395,3.2137088775634766,-0.21375294029712677
1663861755696051500,0.688051513671875,9.258487701416016,3.2280232906341553,-0.17514607310295105
1663861755705908700,0.69790869140625,9.257524490356445,3.231671094894409,-0.1579291671514511
1663861755715765800,0.707765869140625,9.260778427124023,3.2219905853271484,-0.16476191580295563
1663861755725684000,0.71768408203125,9.266283988952637,3.2050113677978516,-0.18514318764209747
1663861755735571700,0.72757177734375,9.272052764892578,3.187293291091919,-0.20147086679935455
1663861755745459500,0.73745947265625,9.275135040283203,3.1781578063964844,-0.2038654088973999
1663861755755316500,0.74731640625,9.27501392364502,3.178788900375366,-0.1995098739862442
1663861755765173800,0.757173828125,9.273009300231934,3.1856443881988525,-0.1826801300048828
1663861755775092000,0.767092041015625,9.273945808410645,3.184817314147949,-0.14583022892475128
1663861755784949200,0.77694921875,9.277883529663086,3.174561023712158,-0.11588285118341446
1663861755794867500,0.786867431640625,9.280734062194824,3.166503429412842,-0.10783412307500839
1663861755804755200,0.796755126953125,9.282434463500977,3.1615235805511475,-0.10760422050952911
1663861755814642700,0.806642578125,9.285199165344238,3.1537559032440186,-0.09633497148752213
1663861755824530400,0.816530517578125,9.287396430969238,3.1479694843292236,-0.07024915516376495
1663861755834418200,0.826418212890625,9.286109924316406,3.1523475646972656,-0.03550732508301735
1663861755844306000,0.836305908203125,9.280491828918457,3.1690447330474854,0.00375923328101635
1663861755854163000,0.846162841796875,9.2715482711792,3.194753885269165,0.04813619330525398
1663861755864050700,0.85605078125,9.260921478271484,3.2243032455444336,0.09784459322690964
1663861755873938400,0.8659384765625,9.248998641967773,3.256136417388916,0.15488120913505554
1663861755883826200,0.875826171875,9.233782768249512,3.294546127319336,0.23153938353061676
1663861755893713700,0.885713623046875,9.212050437927246,3.34618878364563,0.33397024869918823
1663861755903601400,0.895601318359375,9.184709548950195,3.406510829925537,0.455193430185318
1663861755913489200,0.9054892578125,9.15693187713623,3.4632303714752197,0.5718635320663452
1663861755923377000,0.915376953125,9.136126518249512,3.501826286315918,0.6624180674552917
1663861755933234000,0.92523388671875,9.127249717712402,3.512944221496582,0.7231460809707642
1663861755943121700,0.93512158203125,9.12701416015625,3.5033798217773438,0.7709181904792786
1663861755953009400,0.945009521484375,9.129813194274902,3.4843244552612305,0.8224194645881653
1663861755962897200,0.954897216796875,9.131877899169922,3.463430404663086,0.8853482007980347
1663861755972785000,0.964784912109375,9.130380630493164,3.446941375732422,0.961842954158783
1663861755982672400,0.97467236328125,9.125350952148438,3.434943675994873,1.0485780239105225
1663861755992529700,0.98452978515625,9.119147300720215,3.4254534244537354,1.1304030418395996
1663861756002417400,0.99441748046875,9.114035606384277,3.4168038368225098,1.1959086656570435
1663861756012305200,1.00430517578125,9.110274314880371,3.408615827560425,1.246849536895752
1663861756022192600,1.014192626953125,9.106410026550293,3.4016406536102295,1.2932589054107666
1663861756032080400,1.024080322265625,9.100586891174316,3.3969130516052246,1.3456157445907593
1663861756041968000,1.033968017578125,9.09276008605957,3.3923330307006836,1.4086084365844727
1663861756051825400,1.043825439453125,9.085586547851562,3.384617567062378,1.4720276594161987
1663861756061682400,1.053682373046875,9.08006477355957,3.3737876415252686,1.529826283454895
1663861756071570200,1.063570068359375,9.074780464172363,3.3617472648620605,1.586631178855896
1663861756081458000,1.0734580078125,9.069046974182129,3.349902868270874,1.6434489488601685
1663861756091345700,1.083345703125,9.062960624694824,3.3367316722869873,1.7027440071105957
1663861756101202700,1.09320263671875,9.05645751953125,3.320396661758423,1.7680288553237915
1663861756111090400,1.10309033203125,9.049660682678223,3.3001492023468018,1.8393027782440186
1663861756120978200,1.112978271484375,9.041494369506836,3.275952100753784,1.9209116697311401
1663861756130866000,1.122865966796875,9.030037879943848,3.2485811710357666,2.0187909603118896
1663861756140753700,1.132753662109375,9.014042854309082,3.22196364402771,2.1298770904541016
1663861756150641200,1.14264111328125,8.993017196655273,3.2016489505767822,2.2462143898010254
1663861756160529000,1.15252880859375,8.96691608428955,3.1925346851348877,2.3606207370758057
1663861756170416600,1.162416748046875,8.93407917022705,3.1967692375183105,2.4765477180480957
1663861756180274000,1.17227392578125,8.89166259765625,3.214421272277832,2.6031181812286377
1663861756190131000,1.182130859375,8.839997291564941,3.2405171394348145,2.7429697513580322
1663861756200018700,1.192018798828125,8.783211708068848,3.2653815746307373,2.8918581008911133
1663861756209906400,1.201906494140625,8.724462509155273,3.280306577682495,3.0485644340515137
1663861756219824600,1.21182470703125,8.661188125610352,3.2797963619232178,3.2244608402252197
1663861756229712400,1.22171240234375,8.586928367614746,3.2661728858947754,3.4303321838378906
1663861756239569400,1.2315693359375,8.491069793701172,3.248511552810669,3.676858901977539
1663861756249457200,1.24145703125,8.365893363952637,3.237008571624756,3.9628264904022217
1663861756259314400,1.251314453125,8.206829071044922,3.2390048503875732,4.2810258865356445
1663861756269232600,1.261232666015625,8.001269340515137,3.254072666168213,4.643391132354736
1663861756279089700,1.271089599609375,7.743343830108643,3.2820441722869873,5.043729782104492
1663861756288977400,1.280977294921875,7.433359622955322,3.3215997219085693,5.466492176055908
1663861756298865200,1.290865234375,7.079250335693359,3.3647499084472656,5.893475532531738
1663861756308753000,1.3007529296875,6.694701194763184,3.3963537216186523,6.310003757476807
1663861756318640400,1.310640380859375,6.290468692779541,3.391463279724121,6.715531349182129
1663861756328528100,1.320528076171875,5.86771297454834,3.3216686248779297,7.12087345123291
1663861756338385400,1.330385498046875,5.410350799560547,3.1712520122528076,7.539339065551758
1663861756348273200,1.340273193359375,4.871518135070801,2.923218011856079,7.993340969085693
1663861756358161000,1.350160888671875,4.301197052001953,2.5651397705078125,8.431496620178223
1663861756368048400,1.36004833984375,3.7733421325683594,2.1188971996307373,8.80014419555664
1663861756377936100,1.36993603515625,3.292149543762207,1.5958420038223267,9.098649024963379
1663861756387823900,1.379823974609375,2.850581169128418,1.0017890930175781,9.32957649230957
1663861756397681200,1.38968115234375,2.4423606395721436,0.35642027854919434,9.490954399108887
1663861756407568600,1.399568603515625,2.0605618953704834,-0.32147541642189026,9.5823335647583
1663861756417456400,1.409456298828125,1.6980130672454834,-1.022412896156311,9.604260444641113
1663861756427344100,1.41934423828125,1.3382582664489746,-1.7275431156158447,9.560075759887695
1663861756437231900,1.42923193359375,0.9867913126945496,-2.4021334648132324,9.456552505493164
1663861756447119600,1.43911962890625,0.668686032295227,-3.026214599609375,9.304045677185059
1663861756457007000,1.449007080078125,0.4050214886665344,-3.5916271209716797,9.116280555725098
1663861756466894800,1.458894775390625,0.20353767275810242,-4.093104839324951,8.909289360046387
1663861756476782600,1.468782470703125,0.06616023182868958,-4.532398223876953,8.696171760559082
1663861756486639900,1.478639892578125,-0.016254255548119545,-4.921335220336914,8.482369422912598
1663861756496497000,1.488496826171875,-0.052891552448272705,-5.265904903411865,8.27271556854248
1663861756506415000,1.4984150390625,-0.04349972680211067,-5.561073303222656,8.077311515808105
1663861756516302800,1.508302734375,-0.002155439928174019,-5.788158416748047,7.916288375854492
1663861756526160100,1.51816015625,0.046613238751888275,-5.935976982116699,7.805920600891113
1663861756536047600,1.528047607421875,0.0970359817147255,-6.016683578491211,7.743415355682373
1663861756545905000,1.53790478515625,0.15824292600154877,-6.047665119171143,7.718230247497559
1663861756555823000,1.547822998046875,0.23414860665798187,-6.046189785003662,7.717458248138428
1663861756565710800,1.5577109375,0.3200245797634125,-6.020869255065918,7.734151840209961
1663861756575598600,1.5675986328125,0.41495802998542786,-5.978070259094238,7.76278829574585
1663861756585486300,1.577486328125,0.5166419148445129,-5.926771640777588,7.795950412750244
1663861756595373800,1.587373779296875,0.6172118782997131,-5.883265495300293,7.821547985076904
1663861756605261600,1.597261474609375,0.7100039720535278,-5.854292869567871,7.835402488708496
1663861756615149300,1.6071494140625,0.7912805676460266,-5.836767673492432,7.840689182281494
1663861756625037000,1.617037109375,0.8597169518470764,-5.823698997497559,7.843201160430908
1663861756634924800,1.6269248046875,0.9175940155982971,-5.8040032386779785,7.8512396812438965
1663861756644781800,1.63678173828125,0.9668567776679993,-5.769216060638428,7.870942115783691
1663861756654669600,1.646669677734375,1.0029135942459106,-5.713742733001709,7.90681266784668
1663861756664557300,1.656557373046875,1.022254467010498,-5.640200138092041,7.956980228424072
1663861756674445000,1.666445068359375,1.0415334701538086,-5.550671577453613,8.017208099365234
1663861756684332500,1.67633251953125,1.0623887777328491,-5.445453643798828,8.086332321166992
1663861756694220300,1.68622021484375,1.07062828540802,-5.318863868713379,8.16907787322998
1663861756704077600,1.69607763671875,1.06385338306427,-5.168793201446533,8.26572322845459
1663861756713965300,1.70596533203125,1.0589326620101929,-5.001221179962158,8.36880111694336
1663861756723852800,1.715852783203125,1.067889928817749,-4.826547622680664,8.469618797302246
1663861756733740500,1.725740478515625,1.0759871006011963,-4.65289831161499,8.565230369567871
1663861756743628300,1.735628173828125,1.0514893531799316,-4.487654209136963,8.655964851379395
1663861756753516000,1.74551611328125,0.9843801259994507,-4.336109161376953,8.740682601928711
1663861756763373000,1.755373046875,0.8713846206665039,-4.211369514465332,8.813366889953613
1663861756773260800,1.7652607421875,0.6989749670028687,-4.120350360870361,8.871557235717773
1663861756783148500,1.7751484375,0.48435574769973755,-4.068365097045898,8.909781455993652
1663861756793036300,1.785036376953125,0.27509546279907227,-4.0561347007751465,8.924263000488281
1663861756802924000,1.794924072265625,0.08447463810443878,-4.079524993896484,8.917439460754395
1663861756812781000,1.804781005859375,-0.06754622608423233,-4.134921550750732,8.892032623291016
1663861756822668800,1.814668701171875,-0.19382484257221222,-4.219781398773193,8.850214004516602
1663861756832556500,1.824556640625,-0.26283323764801025,-4.318666934967041,8.800592422485352
1663861756842444300,1.8344443359375,-0.26393553614616394,-4.419588565826416,8.750312805175781
1663861756852332000,1.84433203125,-0.2844182848930359,-4.522104740142822,8.69713020324707
1663861756862219500,1.854219482421875,-0.37923121452331543,-4.595059394836426,8.655171394348145
1663861756872107300,1.864107177734375,-0.5032699704170227,-4.66792106628418,8.609739303588867
1663861756881964500,1.873964599609375,-0.5894278287887573,-4.747689247131348,8.560514450073242
1663861756891821600,1.883821533203125,-0.6391127705574036,-4.824697017669678,8.513766288757324
1663861756901709300,1.893709228515625,-0.6606800556182861,-4.895700931549072,8.471481323242188
1663861756911597000,1.90359716796875,-0.688304603099823,-4.944212913513184,8.44105339050293
1663861756921484800,1.91348486328125,-0.7072904706001282,-5.011290550231934,8.399827003479004
1663861756931372500,1.92337255859375,-0.6790141463279724,-5.126198768615723,8.332551956176758
1663861756941260000,1.933260009765625,-0.626682698726654,-5.285317420959473,8.23669147491455
1663861756951147800,1.943147705078125,-0.6094910502433777,-5.470447063446045,8.116226196289062
1663861756961035500,1.953035400390625,-0.6018681526184082,-5.6804022789001465,7.9712724685668945
1663861756970923300,1.96292333984375,-0.5722079277038574,-5.907560348510742,7.806644916534424
1663861756980811000,1.97281103515625,-0.5384545922279358,-6.1251444816589355,7.639571666717529
1663861756990698500,1.982698486328125,-0.5089503526687622,-6.309117317199707,7.490421295166016
1663861757000555800,1.9925556640625,-0.5043963193893433,-6.458111763000488,7.3626604080200195
1663861757010443500,2.002443603515625,-0.5404161214828491,-6.585222244262695,7.246598720550537
1663861757020331300,2.012331298828125,-0.5942347645759583,-6.723470687866211,7.1142258644104
1663861757030218800,2.02221875,-0.6278243064880371,-6.898047924041748,6.942128658294678
1663861757040106500,2.0321064453125,-0.6268839836120605,-7.129127502441406,6.7046966552734375
1663861757049963800,2.0419638671875,-0.5944506525993347,-7.422338485717773,6.38168478012085
1663861757059851500,2.0518515625,-0.5719807147979736,-7.722733020782471,6.016861438751221
1663861757069739300,2.0617392578125,-0.636796236038208,-7.956181049346924,5.697724342346191
1663861757079626800,2.071626708984375,-0.7359861731529236,-8.086437225341797,5.498931884765625
1663861757089514500,2.081514404296875,-0.7790530920028687,-8.134297370910645,5.421870231628418
1663861757099402200,2.09140234375,-0.7875341176986694,-8.149399757385254,5.397912502288818
1663861757109259500,2.101259521484375,-0.8055360913276672,-8.16686725616455,5.368778705596924
1663861757119147000,2.11114697265625,-0.8137413263320923,-8.18818473815918,5.334963798522949
1663861757129034800,2.12103466796875,-0.7769137024879456,-8.203758239746094,5.316496849060059
1663861757138922500,2.130922607421875,-0.7251043319702148,-8.221399307250977,5.296526908874512
1663861757148810200,2.140810302734375,-0.6976277828216553,-8.239899635314941,5.271408557891846
1663861757158667300,2.150667236328125,-0.679313600063324,-8.246806144714355,5.262994289398193
1663861757168524500,2.160524658203125,-0.6644816398620605,-8.249955177307129,5.259952545166016
1663861757178412300,2.170412353515625,-0.645829439163208,-8.261098861694336,5.244761943817139
1663861757188300000,2.180300048828125,-0.6141258478164673,-8.288111686706543,5.205808639526367
1663861757198187500,2.1901875,-0.5669183731079102,-8.337332725524902,5.132045269012451
1663861757208075300,2.2000751953125,-0.5153182744979858,-8.405425071716309,5.025301933288574
1663861757217963000,2.209962890625,-0.49311956763267517,-8.47456169128418,4.910095691680908
1663861757227850800,2.219850830078125,-0.5121724605560303,-8.530280113220215,4.810652256011963
1663861757237707800,2.229707763671875,-0.5506464242935181,-8.570560455322266,4.734201908111572
1663861757247565000,2.23956494140625,-0.5730220675468445,-8.591570854187012,4.693288803100586
1663861757257483300,2.249483154296875,-0.594312846660614,-8.590821266174316,4.69201135635376
1663861757267371000,2.25937109375,-0.6320622563362122,-8.57950210571289,4.707761764526367
1663861757277258800,2.2692587890625,-0.6720067262649536,-8.565774917602539,4.727187633514404
1663861757287146200,2.279146240234375,-0.7128409147262573,-8.54726505279541,4.754629135131836
1663861757297003500,2.28900341796875,-0.7520654201507568,-8.553376197814941,4.737567901611328
1663861757306891300,2.298891357421875,-0.7330127954483032,-8.588465690612793,4.676679611206055
1663861757316779000,2.308779052734375,-0.692423403263092,-8.620622634887695,4.6233978271484375
1663861757326666800,2.318666748046875,-0.6900511980056763,-8.638225555419922,4.590781211853027
1663861757336554200,2.32855419921875,-0.6869369745254517,-8.655070304870605,4.559414863586426
1663861757346442000,2.33844189453125,-0.6776082515716553,-8.685967445373535,4.501689910888672
1663861757356299300,2.34829931640625,-0.6742016077041626,-8.73057746887207,4.415070533752441
1663861757366156300,2.35815625,-0.7008545398712158,-8.789101600646973,4.293122291564941
1663861757376074500,2.368074462890625,-0.782984733581543,-8.861523628234863,4.126827716827393
1663861757385962200,2.377962158203125,-0.8686319589614868,-8.938268661499023,3.9399499893188477
1663861757395819500,2.387819580078125,-0.9186449646949768,-9.02566909790039,3.723409414291382
1663861757405707300,2.397707275390625,-0.9559695720672607,-9.132948875427246,3.4417660236358643
1663861757415594800,2.4075947265625,-0.9501521587371826,-9.257534980773926,3.092839479446411
1663861757425482500,2.417482421875,-0.8993850350379944,-9.386940956115723,2.6919968128204346
1663861757435370200,2.427370361328125,-0.8363457322120667,-9.494413375854492,2.308032274246216
1663861757445227500,2.4372275390625,-0.7680945992469788,-9.570972442626953,1.994221806526184
1663861757455145700,2.447145751953125,-0.6827535629272461,-9.6231050491333,1.7607040405273438
1663861757465033200,2.457033203125,-0.600862443447113,-9.66018295288086,1.5780388116836548
1663861757474921000,2.4669208984375,-0.530905544757843,-9.694049835205078,1.3834444284439087
1663861757484778200,2.4767783203125,-0.44982945919036865,-9.725603103637695,1.175020694732666
1663861757494635300,2.48663525390625,-0.3601672947406769,-9.753175735473633,0.9571928977966309
1663861757504523000,2.49652294921875,-0.2633964717388153,-9.776057243347168,0.7278107404708862
1663861757514441200,2.506441162109375,-0.15715910494327545,-9.792125701904297,0.509880006313324
1663861757524329000,2.516328857421875,-0.04306771978735924,-9.80170726776123,0.3083314895629883
1663861757534216700,2.526216796875,0.09292788803577423,-9.805485725402832,0.11917020380496979
1663861757544104400,2.5361044921875,0.2545070946216583,-9.80319881439209,-0.053741469979286194
1663861757553992200,2.5459921875,0.399637907743454,-9.796134948730469,-0.21543247997760773
1663861757563879700,2.555879638671875,0.5115413665771484,-9.785950660705566,-0.37929773330688477
1663861757573737000,2.565737060546875,0.6156477332115173,-9.772522926330566,-0.5377479195594788
1663861757583594200,2.57559423828125,0.7172086238861084,-9.756819725036621,-0.6785919070243835
1663861757593451300,2.585451171875,0.8008416891098022,-9.740824699401855,-0.8033609390258789
1663861757603369500,2.595369384765625,0.8607403039932251,-9.724963188171387,-0.9244486093521118
1663861757613257200,2.60525732421875,0.8819478750228882,-9.71087646484375,-1.0447202920913696
1663861757623145000,2.61514501953125,0.9016830921173096,-9.696617126464844,-1.1545476913452148
1663861757633032700,2.62503271484375,0.9701604247093201,-9.681317329406738,-1.2252687215805054
1663861757642920200,2.634920166015625,1.0667670965194702,-9.668173789978027,-1.2485268115997314
1663861757652808000,2.644807861328125,1.1479967832565308,-9.66047477722168,-1.2360080480575562
1663861757662695700,2.65469580078125,1.2029037475585938,-9.656574249267578,-1.2140707969665527
1663861757672575500,2.664575439453125,1.2260195016860962,-9.655444145202637,-1.1998547315597534
1663861757682432800,2.674432861328125,1.2154455184936523,-9.657821655273438,-1.1914494037628174
1663861757692290000,2.6842900390625,1.177593469619751,-9.664131164550781,-1.1782305240631104
1663861757702177500,2.694177490234375,1.1216280460357666,-9.673563957214355,-1.1552101373672485
1663861757712065300,2.704065185546875,1.0510389804840088,-9.685135841369629,-1.1242140531539917
1663861757721922600,2.713922607421875,0.9632993936538696,-9.69819164276123,-1.0897315740585327
1663861757731840800,2.7238408203125,0.8598759174346924,-9.711112976074219,-1.0607898235321045
1663861757741728500,2.733728515625,0.7485037446022034,-9.72138786315918,-1.051066517829895
1663861757751616000,2.743615966796875,0.6557438969612122,-9.727261543273926,-1.058665156364441
1663861757761503700,2.753503662109375,0.6054946780204773,-9.729455947875977,-1.0683897733688354
1663861757771391500,2.7633916015625,0.5925054550170898,-9.73025894165039,-1.0683573484420776
1663861757781279200,2.773279296875,0.5988233089447021,-9.730977058410645,-1.0582484006881714
1663861757791136300,2.78313623046875,0.6064940094947815,-9.73169231414795,-1.0472365617752075
1663861757801024000,2.79302392578125,0.6040674448013306,-9.7321138381958,-1.044721007347107
1663861757810911700,2.802911865234375,0.586572527885437,-9.73231315612793,-1.052809476852417
1663861757820799500,2.812799560546875,0.5561938881874084,-9.73246955871582,-1.0677515268325806
1663861757830687200,2.822687255859375,0.5203115344047546,-9.732588768005371,-1.08461594581604
1663861757840574700,2.83257470703125,0.4843005836009979,-9.732588768005371,-1.101162075996399
1663861757850462500,2.84246240234375,0.45154306292533875,-9.731988906860352,-1.1202162504196167
1663861757860350200,2.85235009765625,0.42784789204597473,-9.729982376098633,-1.1466325521469116
1663861757870207500,2.86220751953125,0.41777974367141724,-9.72673511505127,-1.1774873733520508
1663861757880095200,2.87209521484375,0.41892698407173157,-9.723381042480469,-1.204478144645691
1663861757889952300,2.8819521484375,0.4262639582157135,-9.720998764038086,-1.2210222482681274
1663861757899840000,2.891840087890625,0.43632280826568604,-9.71961784362793,-1.2284270524978638
1663861757909727700,2.901727783203125,0.44824033975601196,-9.718385696411133,-1.2338755130767822
1663861757919615500,2.911615478515625,0.45868170261383057,-9.716575622558594,-1.2442436218261719
1663861757929472500,2.921472412109375,0.4612913131713867,-9.714102745056152,-1.2624526023864746
1663861757939360300,2.9313603515625,0.45273712277412415,-9.711596488952637,-1.2846428155899048
1663861757949217500,2.941217529296875,0.4370475113391876,-9.709600448608398,-1.3050010204315186
1663861757959135700,2.9511357421875,0.42367225885391235,-9.707436561584473,-1.3253517150878906
1663861757969023200,2.961023193359375,0.4234038293361664,-9.704038619995117,-1.3500961065292358
1663861757978911000,2.970910888671875,0.442102313041687,-9.69913101196289,-1.3790600299835205
1663861757988768300,2.980768310546875,0.47187650203704834,-9.693881034851074,-1.405838966369629
1663861757998656000,2.990656005859375,0.4917295575141907,-9.690979957580566,-1.4189794063568115
1663861758008513000,3.000512939453125,0.49943307042121887,-9.689460754394531,-1.4266365766525269
1663861758018431200,3.01043115234375,0.528976321220398,-9.681954383850098,-1.4664033651351929
1663861758028319000,3.020319091796875,0.5796546339988708,-9.671947479248047,-1.5125528573989868
1663861758038176300,3.03017626953125,0.6380476951599121,-9.661022186279297,-1.5581841468811035
1663861758048063700,3.040063720703125,0.7099612951278687,-9.6476469039917,-1.609113097190857
1663861758057951500,3.049951416015625,0.7793872952461243,-9.633321762084961,-1.661944031715393
1663861758067839200,3.059839111328125,0.8282244205474854,-9.619714736938477,-1.7162556648254395
1663861758077696500,3.069696533203125,0.8686389327049255,-9.607522964477539,-1.7639055252075195
1663861758087584000,3.079583984375,0.9131548404693604,-9.59669303894043,-1.8000085353851318
1663861758097471700,3.0894716796875,0.9602013826370239,-9.586825370788574,-1.8278939723968506
1663861758107359500,3.099359375,1.0077234506607056,-9.577200889587402,-1.8525923490524292
1663861758117247200,3.109247314453125,1.057252287864685,-9.567461013793945,-1.8751766681671143
1663861758127135000,3.119135009765625,1.1065456867218018,-9.558650016784668,-1.8916015625
1663861758137022700,3.129022705078125,1.1394644975662231,-9.552900314331055,-1.90108060836792
1663861758146910200,3.13891015625,1.1381374597549438,-9.55158519744873,-1.90846586227417
1663861758156798000,3.1487978515625,1.1173490285873413,-9.553359985351562,-1.9118623733520508
1663861758166685700,3.158685791015625,1.0878816843032837,-9.556829452514648,-1.9115225076675415
1663861758176573400,3.168573486328125,1.0478262901306152,-9.561426162719727,-1.9109042882919312
1663861758186461200,3.178461181640625,1.0021440982818604,-9.566411972045898,-1.91046142578125
1663861758196318200,3.188318115234375,0.9585740566253662,-9.571420669555664,-1.9077285528182983
1663861758206206000,3.1982060546875,0.9185891151428223,-9.5765962600708,-1.9014184474945068
1663861758216093700,3.20809375,0.8777932524681091,-9.582529067993164,-1.8907647132873535
1663861758225981400,3.2179814453125,0.831079363822937,-9.589670181274414,-1.875611424446106
1663861758235869000,3.227868896484375,0.7759197354316711,-9.598155975341797,-1.855729579925537
1663861758245726200,3.237726318359375,0.7144714593887329,-9.611077308654785,-1.8130394220352173
1663861758255614000,3.247614013671875,0.6533280611038208,-9.639001846313477,-1.6832081079483032
1663861758265501700,3.257501708984375,0.6127961874008179,-9.668098449707031,-1.5240494012832642
1663861758275389200,3.26738916015625,0.5997191667556763,-9.68549633026123,-1.4148800373077393
1663861758285277000,3.27727685546875,0.6082004308700562,-9.692577362060547,-1.3617666959762573
1663861758295164700,3.28716455078125,0.6308932304382324,-9.692344665527344,-1.353074550628662
1663861758305052400,3.297052490234375,0.6442008018493652,-9.690104484558105,-1.3628156185150146
1663861758314909400,3.306909423828125,0.6377834677696228,-9.6900053024292,-1.3665298223495483
1663861758324797200,3.316797119140625,0.6234556436538696,-9.691242218017578,-1.3643699884414673
1663861758334685000,3.326684814453125,0.6141651272773743,-9.691762924194336,-1.3648885488510132
1663861758344542200,3.336542236328125,0.6133840680122375,-9.691545486450195,-1.3667784929275513
1663861758354429700,3.3464296875,0.6211127638816833,-9.69131851196289,-1.3648974895477295
1663861758364317400,3.3563173828125,0.633578896522522,-9.69135570526123,-1.3588943481445312
1663861758374205200,3.366205078125,0.6469074487686157,-9.6914644241333,-1.3518249988555908
1663861758384093000,3.376093017578125,0.6541650295257568,-9.691971778869629,-1.3446663618087769
1663861758393950200,3.3859501953125,0.655708372592926,-9.692675590515137,-1.3388361930847168
1663861758403837700,3.395837646484375,0.6567829847335815,-9.693070411682129,-1.3354363441467285
1663861758413725400,3.405725341796875,0.6592124700546265,-9.693192481994629,-1.3333501815795898
1663861758423613200,3.41561328125,0.6620107293128967,-9.693107604980469,-1.3325879573822021
1663861758433501000,3.4255009765625,0.6624539494514465,-9.692946434020996,-1.3335378170013428
1663861758443388700,3.435388671875,0.657938539981842,-9.69290828704834,-1.3360553979873657
1663861758453276200,3.445276123046875,0.6499476432800293,-9.692994117736816,-1.3393404483795166
1663861758463164000,3.455163818359375,0.6430294513702393,-9.693109512329102,-1.3418439626693726
1663861758473051600,3.4650517578125,0.6417427659034729,-9.69287395477295,-1.34415864944458
1663861758482939400,3.474939453125,0.6418707370758057,-9.692723274230957,-1.3451831340789795
1663861758492827100,3.4848271484375,0.6428141593933105,-9.692742347717285,-1.344590663909912
1663861758502714600,3.494714599609375,0.6434850096702576,-9.692769050598145,-1.3440825939178467
1663861758512602400,3.504602294921875,0.6430848240852356,-9.692890167236328,-1.3433951139450073
1663861758522459600,3.514459716796875,0.6417486071586609,-9.693036079406738,-1.3429802656173706
1663861758532316700,3.524316650390625,0.6404168009757996,-9.693129539489746,-1.342941164970398
1663861758542204400,3.534204345703125,0.6398428082466125,-9.69312858581543,-1.3432233333587646
1663861758552092200,3.544092041015625,0.640116810798645,-9.69302749633789,-1.3438224792480469
1663861758561980000,3.55397998046875,0.6410430669784546,-9.692826271057129,-1.344825267791748
1663861758571867600,3.56386767578125,0.6418092846870422,-9.692554473876953,-1.3464181423187256
1663861758581755100,3.573755126953125,0.6427087783813477,-9.692222595214844,-1.3483829498291016
1663861758591643000,3.583642822265625,0.6439775228500366,-9.691859245300293,-1.350390076637268
1663861758601500200,3.593500244140625,0.6456743478775024,-9.691523551940918,-1.3519855737686157
1663861758611357400,3.603357421875,0.6436259746551514,-9.691145896911621,-1.3556687831878662
1663861758621275600,3.613275634765625,0.6416195631027222,-9.69090747833252,-1.3583124876022339
1663861758631132700,3.623132568359375,0.6396068930625916,-9.690777778625488,-1.3601855039596558
1663861758641020400,3.6330205078125,0.6368733644485474,-9.690749168395996,-1.361672043800354
1663861758650908200,3.642908203125,0.6333540081977844,-9.690818786621094,-1.3628251552581787
1663861758660796000,3.6527958984375,0.635054886341095,-9.69068431854248,-1.3629833459854126
1663861758670653000,3.66265283203125,0.6363210082054138,-9.6906099319458,-1.362924575805664
1663861758680540700,3.672540771484375,0.6374425292015076,-9.690555572509766,-1.3627862930297852
1663861758690428400,3.682428466796875,0.6387945413589478,-9.690463066101074,-1.3628119230270386
1663861758700316200,3.692316162109375,0.6400566697120667,-9.69035530090332,-1.3629839420318604
1663861758710173200,3.702173095703125,0.6413772106170654,-9.690258026123047,-1.3630549907684326
1663861758720091400,3.71209130859375,0.642711341381073,-9.690146446228027,-1.3632210493087769
1663861758729948700,3.72194873046875,0.6438283920288086,-9.690046310424805,-1.3634058237075806
1663861758739867000,3.731866943359375,0.6448559165000916,-9.68993854522705,-1.363685131072998
1663861758749724000,3.741723876953125,0.645710825920105,-9.689801216125488,-1.3642576932907104
1663861758759611600,3.751611572265625,0.6436999440193176,-9.689449310302734,-1.3677021265029907
1663861758769469000,3.761468994140625,0.6414231657981873,-9.689040184020996,-1.3716697692871094
1663861758779387100,3.77138720703125,0.6399132013320923,-9.688541412353516,-1.3758823871612549
1663861758789275000,3.78127490234375,0.6391540765762329,-9.68795394897461,-1.3803678750991821
1663861758799162400,3.791162353515625,0.6385089755058289,-9.687322616577148,-1.385086178779602
1663861758809050000,3.801050048828125,0.6382916569709778,-9.686695098876953,-1.3895676136016846
1663861758818937900,3.810937744140625,0.6388663053512573,-9.686026573181152,-1.3939564228057861
1663861758828795100,3.820795166015625,0.6394903063774109,-9.685303688049316,-1.3986929655075073
1663861758838682600,3.8306826171875,0.6414294242858887,-9.684486389160156,-1.4034496545791626
1663861758848540000,3.840539794921875,0.6439220905303955,-9.683525085449219,-1.4089291095733643
1663861758858458000,3.8504580078125,0.6461679935455322,-9.682449340820312,-1.4152848720550537
1663861758868345900,3.860345947265625,0.6485151052474976,-9.682122230529785,-1.4164477586746216
1663861758878233600,3.870233642578125,0.650734543800354,-9.681824684143066,-1.417458415031433
1663861758888121300,3.880121337890625,0.652886152267456,-9.681498527526855,-1.4186952114105225
1663861758897978400,3.889978271484375,0.6548506021499634,-9.68114948272705,-1.4201688766479492
1663861758907835600,3.899835693359375,0.6567530035972595,-9.680811882019043,-1.4215964078903198
1663861758917723400,3.909723388671875,0.6582970023155212,-9.680453300476074,-1.4233235120773315
1663861758927641600,3.9196416015625,0.6597927212715149,-9.68010425567627,-1.425001621246338
1663861758937498600,3.92949853515625,0.6614055037498474,-9.67977523803711,-1.4264938831329346
1663861758947356000,3.93935595703125,0.662777841091156,-9.679466247558594,-1.4279489517211914
1663861758957243600,3.94924365234375,0.6623693704605103,-9.678712844848633,-1.4332417249679565
1663861758967161900,3.959161865234375,0.6615820527076721,-9.678055763244629,-1.4380298852920532
1663861758977019000,3.969018798828125,0.6609049439430237,-9.677448272705078,-1.4424254894256592
1663861758986937000,3.97893701171875,0.6601453423500061,-9.67689037322998,-1.4465128183364868
1663861758996794400,3.98879443359375,0.6579694151878357,-9.676383018493652,-1.4508835077285767
1663861759006682000,3.99868212890625,0.6552910804748535,-9.675878524780273,-1.455458164215088
1663861759016569600,4.008569580078125,0.6523851156234741,-9.675414085388184,-1.459848403930664
1663861759026457300,4.018457275390625,0.6491664052009583,-9.675043106079102,-1.4637314081192017
1663861759036345000,4.028344970703125,0.6460068225860596,-9.674744606018066,-1.4671034812927246
1663861759046232800,4.03823291015625,0.6431742906570435,-9.67442512512207,-1.47044837474823
1663861759056120600,4.04812060546875,0.6401914954185486,-9.674239158630371,-1.4729647636413574
1663861759066008000,4.058008056640625,0.6365956664085388,-9.674089431762695,-1.4755052328109741
1663861759075895800,4.067895751953125,0.6325393319129944,-9.673945426940918,-1.4781972169876099
1663861759085783600,4.077783447265625,0.6282550692558289,-9.673751831054688,-1.4812853336334229
1663861759095640800,4.087640869140625,0.6237998604774475,-9.673521995544434,-1.4846664667129517
1663861759105528600,4.097528564453125,0.6198599338531494,-9.673297882080078,-1.4877740144729614
1663861759115416000,4.107416015625,0.6163720488548279,-9.673099517822266,-1.4905086755752563
1663861759125273300,4.1172734375,0.6131197810173035,-9.672921180725098,-1.4930064678192139
1663861759135161000,4.1271611328125,0.6105263233184814,-9.672795295715332,-1.4948853254318237
1663861759145018000,4.13701806640625,0.6081380844116211,-9.67266845703125,-1.4966750144958496
1663861759154936300,4.146936279296875,0.6061816811561584,-9.672532081604004,-1.498349905014038
1663861759164793600,4.156793701171875,0.6045679450035095,-9.672331809997559,-1.5002949237823486
1663861759174681300,4.166681396484375,0.6027829647064209,-9.672164916992188,-1.502092957496643
1663861759184569000,4.176569091796875,0.6017460823059082,-9.671892166137695,-1.504257082939148
1663861759194426000,4.186426025390625,0.6006703972816467,-9.671595573425293,-1.5065878629684448
1663861759204344300,4.19634423828125,0.5999780297279358,-9.671205520629883,-1.5093666315078735
1663861759214232000,4.206232177734375,0.5993542671203613,-9.67075252532959,-1.5125211477279663
1663861759224119800,4.216119873046875,0.5985618233680725,-9.670230865478516,-1.5161622762680054
1663861759234007600,4.226007568359375,0.5978776216506958,-9.669694900512695,-1.5198487043380737
1663861759243895000,4.23589501953125,0.5968819260597229,-9.669228553771973,-1.5231993198394775
1663861759253782800,4.24578271484375,0.595872700214386,-9.668784141540527,-1.526418685913086
1663861759263670500,4.25567041015625,0.5948128700256348,-9.66840934753418,-1.5292041301727295
1663861759273527800,4.26552783203125,0.5927296876907349,-9.668130874633789,-1.5317639112472534
1663861759283415300,4.275415283203125,0.5906760692596436,-9.667902946472168,-1.5339980125427246
1663861759293303000,4.285302978515625,0.5889756083488464,-9.667703628540039,-1.5359019041061401
1663861759303190800,4.295190673828125,0.5874144434928894,-9.667482376098633,-1.5378955602645874
1663861759313078500,4.30507861328125,0.5865371823310852,-9.667235374450684,-1.539783239364624
1663861759322966300,4.31496630859375,0.5852970480918884,-9.66695785522461,-1.5419871807098389
1663861759332854000,4.32485400390625,0.5836083292961121,-9.666654586791992,-1.5445326566696167
1663861759342711000,4.3347109375,0.5825931429862976,-9.666255950927734,-1.5474133491516113
1663861759352598800,4.344598876953125,0.5821095108985901,-9.66591739654541,-1.5497058629989624
1663861759362486500,4.354486572265625,0.5817893743515015,-9.665693283081055,-1.5512207746505737
1663861759372343600,4.364343505859375,0.5820399522781372,-9.665504455566406,-1.5522969961166382
1663861759382231300,4.374231201171875,0.5828942060470581,-9.665369987487793,-1.5528225898742676
1663861759392119000,4.384119140625,0.5843513011932373,-9.66528606414795,-1.5527985095977783
1663861759402006800,4.3940068359375,0.585493803024292,-9.665157318115234,-1.5531675815582275
1663861759411894500,4.40389453125,0.5864943265914917,-9.664978981018066,-1.553894281387329
1663861759421782000,4.413781982421875,0.5878369212150574,-9.664687156677246,-1.5551998615264893
1663861759431669800,4.423669677734375,0.5891465544700623,-9.664297103881836,-1.5571255683898926
1663861759441557500,4.4335576171875,0.5903864502906799,-9.66391658782959,-1.5590249300003052
1663861759451445200,4.4434453125,0.5914294719696045,-9.663613319396973,-1.5605072975158691
1663861759461302300,4.45330224609375,0.5923770666122437,-9.663333892822266,-1.561876893043518
1663861759471190000,4.46318994140625,0.5932561755180359,-9.663086891174316,-1.563073754310608
1663861759481077800,4.473077880859375,0.5939344763755798,-9.662922859191895,-1.5638256072998047
1663861759490965500,4.482965576171875,0.5944963097572327,-9.662765502929688,-1.5645884275436401
1663861759500853200,4.492853271484375,0.5943586826324463,-9.662599563598633,-1.565657377243042
1663861759510710300,4.502710205078125,0.5941529870033264,-9.662464141845703,-1.5665684938430786
1663861759520598000,4.512597900390625,0.5943185091018677,-9.662286758422852,-1.5676113367080688
1663861759530485800,4.52248583984375,0.5945263504981995,-9.662097930908203,-1.5686906576156616
1663861759540373500,4.53237353515625,0.5944220423698425,-9.661897659301758,-1.5699578523635864
1663861759550261200,4.54226123046875,0.5934860110282898,-9.661700248718262,-1.571534276008606
1663861759560148700,4.552148681640625,0.5929369330406189,-9.661502838134766,-1.572952151298523
1663861759570036500,4.562036376953125,0.5928754806518555,-9.661222457885742,-1.574692964553833
1663861759579893800,4.571893798828125,0.5926308631896973,-9.661081314086914,-1.5756529569625854
1663861759589750800,4.581750732421875,0.5924455523490906,-9.660945892333984,-1.5765528678894043
1663861759599638500,4.591638427734375,0.5925253033638,-9.66081428527832,-1.577329158782959
1663861759609526300,4.6015263671875,0.5923770070075989,-9.660679817199707,-1.5782052278518677
1663861759619414000,4.6114140625,0.5924080610275269,-9.660551071166992,-1.5789878368377686
1663861759629301800,4.6213017578125,0.5923283696174622,-9.660287857055664,-1.5806280374526978
1663861759639189200,4.631189208984375,0.5918831825256348,-9.66004467010498,-1.5822800397872925
1663861759649046500,4.641046630859375,0.5914026498794556,-9.659773826599121,-1.5841110944747925
1663861759658934300,4.650934326171875,0.5912227630615234,-9.659490585327148,-1.585899829864502
1663861759668791300,4.660791259765625,0.5909460186958313,-9.659232139587402,-1.5875813961029053
1663861759678709500,4.67070947265625,0.5905404090881348,-9.659005165100098,-1.5891098976135254
1663861759688597200,4.68059716796875,0.589907169342041,-9.658781051635742,-1.5907033681869507
1663861759698454500,4.69045458984375,0.5892859697341919,-9.658650398254395,-1.5917249917984009
1663861759708342300,4.70034228515625,0.5882571935653687,-9.658543586730957,-1.5927586555480957
1663861759718229800,4.710229736328125,0.5866058468818665,-9.658434867858887,-1.5940278768539429
1663861759728117500,4.720117431640625,0.5847232341766357,-9.658368110656738,-1.5951218605041504
1663861759738005200,4.730005126953125,0.5832080841064453,-9.658344268798828,-1.5958173274993896
1663861759747862500,4.739862548828125,0.5814134478569031,-9.658316612243652,-1.596637487411499
1663861759757750000,4.74975,0.5797189474105835,-9.658272743225098,-1.5975258350372314
1663861759767607300,4.759607177734375,0.5778247117996216,-9.658194541931152,-1.598684310913086
1663861759777525500,4.769525390625,0.5755712389945984,-9.658096313476562,-1.6000843048095703
1663861759787413200,4.779413330078125,0.5733395218849182,-9.658010482788086,-1.6014045476913452
1663861759797301000,4.789301025390625,0.5710852146148682,-9.657905578613281,-1.602843165397644
1663861759807188700,4.799188720703125,0.569046139717102,-9.657864570617676,-1.6038155555725098
1663861759817045800,4.809045654296875,0.5667149424552917,-9.657868385314941,-1.604620337486267
1663861759826933500,4.81893359375,0.5647568106651306,-9.657883644104004,-1.6052157878875732
1663861759836821200,4.8288212890625,0.5631642937660217,-9.65785026550293,-1.6059751510620117
1663861759846709000,4.838708984375,0.5616748332977295,-9.657858848571777,-1.6064422130584717
1663861759856566000,4.84856591796875,0.5605852603912354,-9.65785026550293,-1.60688054561615
1663861759866484200,4.858484130859375,0.5587829947471619,-9.65781021118164,-1.6077485084533691
1663861759876341500,4.868341552734375,0.557124674320221,-9.657660484313965,-1.60922110080719
1663861759886198500,4.878198486328125,0.5561311841011047,-9.657491683959961,-1.6105802059173584
1663861759896116700,4.88811669921875,0.5553852915763855,-9.657421112060547,-1.6112585067749023
1663861759906004500,4.89800439453125,0.5543591380119324,-9.657374382019043,-1.6118954420089722
1663861759915892200,4.907892333984375,0.553566038608551,-9.657331466674805,-1.6124175786972046
1663861759925780000,4.917780029296875,0.5528876781463623,-9.657292366027832,-1.6128913164138794
1663861759935667700,4.927667724609375,0.551514208316803,-9.65729808807373,-1.6133232116699219
1663861759945555200,4.93755517578125,0.5506478548049927,-9.657328605651855,-1.6134377717971802
1663861759955443000,4.94744287109375,0.5497100353240967,-9.657382011413574,-1.6134390830993652
1663861759965330700,4.95733056640625,0.5494199395179749,-9.657362937927246,-1.6136457920074463
1663861759975188000,4.96718798828125,0.5487269163131714,-9.657292366027832,-1.6143070459365845
1663861759985075500,4.977075439453125,0.547997772693634,-9.657153129577637,-1.6153922080993652
1663861759994963200,4.986963134765625,0.54750657081604,-9.65700912475586,-1.6164135932922363
1663861760004851000,4.996850830078125,0.5472305417060852,-9.656856536865234,-1.6174256801605225
1663861760014738700,5.00673876953125,0.5470843315124512,-9.656820297241211,-1.6176913976669312
1663861760024626400,5.01662646484375,0.5470872521400452,-9.6568603515625,-1.617443323135376
1663861760034514200,5.02651416015625,0.5471409559249878,-9.656989097595215,-1.6166597604751587
1663861760044401700,5.036401611328125,0.5466947555541992,-9.657139778137207,-1.6159082651138306
1663861760054259000,5.046259033203125,0.5463895201683044,-9.657238960266113,-1.6154181957244873
1663861760064146700,5.056146728515625,0.5454662442207336,-9.657309532165527,-1.6153113842010498
1663861760074034400,5.066034423828125,0.5445473194122314,-9.65732192993164,-1.6155433654785156
1663861760083922000,5.075921875,0.544096827507019,-9.657282829284668,-1.615930438041687
1663861760093809700,5.0858095703125,0.5438977479934692,-9.657208442687988,-1.6164401769638062
1663861760103697400,5.095697509765625,0.5433818697929382,-9.657119750976562,-1.6171419620513916
1663861760113554700,5.1055546875,0.5432811379432678,-9.656935691833496,-1.6182817220687866
1663861760123411700,5.11541162109375,0.5426096320152283,-9.65688419342041,-1.6188100576400757
1663861760133299500,5.125299560546875,0.541744589805603,-9.656885147094727,-1.6190980672836304
1663861760143187200,5.135187255859375,0.5410650372505188,-9.656835556030273,-1.6196149587631226
1663861760153075000,5.145074951171875,0.5406790375709534,-9.656853675842285,-1.6196377277374268
1663861760162962400,5.15496240234375,0.5401721596717834,-9.656842231750488,-1.6198805570602417
1663861760172850200,5.16485009765625,0.5396736860275269,-9.656784057617188,-1.6203911304473877
1663861760182738000,5.174738037109375,0.5396137833595276,-9.65670108795166,-1.620906114578247
1663861760192625700,5.184625732421875,0.5393860936164856,-9.656661033630371,-1.6212152242660522
1663861760202482700,5.194482666015625,0.5391649603843689,-9.656573295593262,-1.6218162775039673
1663861760212370400,5.204370361328125,0.5392590761184692,-9.656522750854492,-1.6220842599868774
1663861760222258200,5.214258056640625,0.5391941666603088,-9.656534194946289,-1.6220381259918213
1663861760232146000,5.22414599609375,0.5399043560028076,-9.656481742858887,-1.6221156120300293
1663861760242033700,5.23403369140625,0.5404298305511475,-9.656432151794434,-1.622231364250183
1663861760251921200,5.243921142578125,0.5406977534294128,-9.656354904174805,-1.6226036548614502
1663861760261809000,5.253808837890625,0.5408524870872498,-9.65620231628418,-1.623461365699768
1663861760271696600,5.263696533203125,0.5409430861473083,-9.656045913696289,-1.6243582963943481
1663861760281584400,5.27358447265625,0.5407609343528748,-9.655900001525879,-1.6252890825271606
1663861760291441700,5.283441650390625,0.5411397814750671,-9.655786514282227,-1.625832438468933
1663861760301298700,5.293298583984375,0.5414637923240662,-9.65566635131836,-1.6264374256134033
1663861760311186400,5.3031865234375,0.5412030816078186,-9.655701637268066,-1.626319169998169
1663861760321074200,5.31307421875,0.5408626794815063,-9.655753135681152,-1.6261248588562012
1663861760330962000,5.3229619140625,0.5404530167579651,-9.65584945678711,-1.625688076019287
1663861760340849400,5.332849365234375,0.5398289561271667,-9.656006813049316,-1.6249605417251587
1663861760350737200,5.342737060546875,0.5388017892837524,-9.656110763549805,-1.6246817111968994
1663861760360625000,5.352625,0.5377174019813538,-9.656306266784668,-1.6238807439804077
1663861760370512600,5.3625126953125,0.5368306636810303,-9.656538963317871,-1.6227887868881226
1663861760380400400,5.372400390625,0.5356968641281128,-9.656805992126465,-1.6215779781341553
1663861760390288000,5.382287841796875,0.5344941020011902,-9.656984329223633,-1.6209094524383545
1663861760400175600,5.392175537109375,0.5333366394042969,-9.65715217590332,-1.6202958822250366
1663861760410002400,5.40200244140625,0.5328580141067505,-9.657198905944824,-1.6201759576797485
1663861760419890000,5.411889892578125,0.5320767164230347,-9.657261848449707,-1.6200580596923828
1663861760429777700,5.421777587890625,0.531021773815155,-9.657316207885742,-1.620078206062317
1663861760439665400,5.43166552734375,0.5301870107650757,-9.657371520996094,-1.6200206279754639
1663861760449522700,5.441522705078125,0.5296744108200073,-9.65738582611084,-1.620102047920227
1663861760459441000,5.45144091796875,0.5292093753814697,-9.657394409179688,-1.6202021837234497
1663861760469328400,5.461328369140625,0.5284788608551025,-9.657495498657227,-1.6198426485061646
1663861760479216000,5.471216064453125,0.5282853245735168,-9.657649993896484,-1.618979573249817
1663861760489073400,5.481073486328125,0.5286900401115417,-9.657736778259277,-1.6183301210403442
1663861760498930400,5.490930419921875,0.529158890247345,-9.657885551452637,-1.6172897815704346
1663861760508818200,5.500818115234375,0.5293757915496826,-9.65795612335205,-1.6167957782745361
1663861760518736400,5.510736328125,0.5296061635017395,-9.657950401306152,-1.616754174232483
1663861760528624000,5.5206240234375,0.5297957062721252,-9.657949447631836,-1.616697907447815
1663861760538512000,5.530511962890625,0.5299857258796692,-9.658076286315918,-1.6158814430236816
1663861760548399600,5.540399658203125,0.5300105810165405,-9.658284187316895,-1.6146281957626343
1663861760558287400,5.550287353515625,0.5305703282356262,-9.658605575561523,-1.612520456314087
1663861760568174800,5.5601748046875,0.530504584312439,-9.659002304077148,-1.6101609468460083
1663861760578032000,5.5700322265625,0.5300227403640747,-9.659485816955566,-1.607419729232788
1663861760587920000,5.579919921875,0.5292853713035583,-9.660109519958496,-1.603910207748413
1663861760597807600,5.5898076171875,0.5285220742225647,-9.660758018493652,-1.6002525091171265
1663861760607695000,5.599695068359375,0.5276440978050232,-9.661444664001465,-1.5963901281356812
1663861760617582800,5.609582763671875,0.5256317257881165,-9.662097930908203,-1.5931010246276855
1663861760627440000,5.619440185546875,0.523235559463501,-9.662595748901367,-1.5908641815185547
1663861760637328000,5.629327880859375,0.5209210515022278,-9.663002967834473,-1.5891529321670532
1663861760647215400,5.63921533203125,0.5192663073539734,-9.663337707519531,-1.587662696838379
1663861760657103000,5.64910302734375,0.517632782459259,-9.663579940795898,-1.586717128753662
1663861760666990800,5.658990966796875,0.5155133008956909,-9.663735389709473,-1.5864607095718384
1663861760676848000,5.66884814453125,0.5133898258209229,-9.663769721984863,-1.5869330167770386
1663861760686735600,5.678735595703125,0.5113435387611389,-9.663765907287598,-1.5876224040985107
1663861760696593000,5.688593017578125,0.5097696781158447,-9.66369915008545,-1.5885322093963623
1663861760706480600,5.698480712890625,0.5088008642196655,-9.663596153259277,-1.5894731283187866
1663861760716368400,5.708368408203125,0.5081303715705872,-9.663469314575195,-1.5904524326324463
1663861760726255900,5.718255859375,0.5069814920425415,-9.663259506225586,-1.5920913219451904
1663861760736143600,5.7281435546875,0.5054672956466675,-9.662944793701172,-1.5944898128509521
1663861760746031400,5.73803125,0.5047028064727783,-9.662601470947266,-1.5968009233474731
1663861760755888600,5.747888671875,0.5040088295936584,-9.662322044372559,-1.5987181663513184
1663861760765776400,5.7577763671875,0.5034120082855225,-9.662172317504883,-1.599806308746338
1663861760775633400,5.76763330078125,0.5038832426071167,-9.6620454788208,-1.6004270315170288
1663861760785551600,5.777551513671875,0.5044311881065369,-9.6620454788208,-1.6002553701400757
1663861760795439400,5.787439453125,0.5055732727050781,-9.662099838256836,-1.599566102027893
1663861760805296600,5.797296630859375,0.5071385502815247,-9.662060737609863,-1.5993072986602783
1663861760815184100,5.80718408203125,0.5090299844741821,-9.661883354187012,-1.5997742414474487
1663861760825071900,5.81707177734375,0.5109226107597351,-9.66159439086914,-1.6009211540222168
1663861760834959600,5.826959716796875,0.5126078128814697,-9.6612548828125,-1.602425456047058
1663861760844817000,5.83681689453125,0.5139413475990295,-9.660820960998535,-1.6046110391616821
1663861760854704400,5.846704345703125,0.5154630541801453,-9.660334587097168,-1.6070466041564941
1663861760864592100,5.856592041015625,0.5164394378662109,-9.659780502319336,-1.6100640296936035
1663861760874479900,5.86647998046875,0.5179570317268372,-9.659194946289062,-1.6130903959274292
1663861760884367600,5.87636767578125,0.5198107361793518,-9.658580780029297,-1.6161690950393677
1663861760894255400,5.88625537109375,0.5218636393547058,-9.657940864562988,-1.6193268299102783
1663861760904112400,5.8961123046875,0.5239574909210205,-9.657204627990723,-1.6230363845825195
1663861760914030600,5.906030517578125,0.5256669521331787,-9.656535148620605,-1.626467227935791
1663861760923918300,5.91591845703125,0.5279412269592285,-9.655869483947754,-1.6296790838241577
1663861760933806000,5.92580615234375,0.5303515791893005,-9.655315399169922,-1.6321712732315063
1663861760943693800,5.93569384765625,0.53261798620224,-9.654854774475098,-1.634163498878479
1663861760953581300,5.945581298828125,0.5347699522972107,-9.654427528381348,-1.6359789371490479
1663861760963438600,5.9554384765625,0.5366049408912659,-9.65401840209961,-1.6377959251403809
1663861760973326300,5.965326416015625,0.5385115742683411,-9.653582572937012,-1.6397348642349243
1663861760983183400,5.975183349609375,0.5404262542724609,-9.653136253356934,-1.6417288780212402
1663861760993071000,5.985071044921875,0.542384922504425,-9.652607917785645,-1.6441929340362549
1663861761002958800,5.994958740234375,0.5448034405708313,-9.651910781860352,-1.6474817991256714
1663861761012846600,6.0048466796875,0.5471070408821106,-9.65109634399414,-1.651488184928894
1663861761022734300,6.014734375,0.5485913157463074,-9.650148391723633,-1.6565228700637817
1663861761032622000,6.0246220703125,0.5499316453933716,-9.649053573608398,-1.662449836730957
1663861761042509600,6.034509521484375,0.5510419011116028,-9.64777660369873,-1.6694717407226562
1663861761052397300,6.044397216796875,0.5518448352813721,-9.646416664123535,-1.677052617073059
1663861761062285000,6.05428515625,0.5517913103103638,-9.644988059997559,-1.6852668523788452
1663861761072142300,6.064142333984375,0.5517340898513794,-9.643525123596191,-1.6936311721801758
1663861761081999400,6.073999267578125,0.5516163110733032,-9.642139434814453,-1.7015458345413208
1663861761091887000,6.08388720703125,0.5511120557785034,-9.640861511230469,-1.7089335918426514
1663861761101805300,6.093805419921875,0.550273597240448,-9.639683723449707,-1.715833306312561
1663861761111693000,6.103693115234375,0.5498021245002747,-9.638642311096191,-1.7218211889266968
1663861761121580800,6.113580810546875,0.5496559739112854,-9.637609481811523,-1.7276488542556763
1663861761131468300,6.12346826171875,0.5489685535430908,-9.6366548538208,-1.733173131942749
1663861761141356000,6.13335595703125,0.5480000972747803,-9.635769844055176,-1.738399863243103
1663861761151243800,6.143243896484375,0.5477153062820435,-9.63491439819336,-1.7432225942611694
1663861761161131500,6.153131591796875,0.5475113987922668,-9.634101867675781,-1.747768759727478
1663861761170988500,6.162988525390625,0.5473505854606628,-9.633365631103516,-1.7518759965896606
1663861761180876300,6.172876220703125,0.5476691126823425,-9.632577896118164,-1.7560971975326538
1663861761190764000,6.182763916015625,0.5482879281044006,-9.631718635559082,-1.7606147527694702
1663861761200651800,6.19265185546875,0.5488016605377197,-9.630875587463379,-1.765061378479004
1663861761210508800,6.2025087890625,0.5495032668113708,-9.629936218261719,-1.7699551582336426
1663861761220366000,6.212365966796875,0.5502595901489258,-9.628981590270996,-1.7749121189117432
1663861761230253800,6.22225390625,0.5509188771247864,-9.62795352935791,-1.7802760601043701
1663861761240141600,6.2321416015625,0.5514523386955261,-9.626945495605469,-1.785553216934204
1663861761250029300,6.242029296875,0.5522420406341553,-9.625903129577637,-1.7909280061721802
1663861761259916800,6.251916748046875,0.5530444383621216,-9.624859809875488,-1.7962747812271118
1663861761269804500,6.261804443359375,0.5535657405853271,-9.62368106842041,-1.8024191856384277
1663861761279661800,6.271661865234375,0.5537207722663879,-9.622416496276855,-1.8091139793395996
1663861761289549600,6.281549560546875,0.553551435470581,-9.62109661102295,-1.8161674737930298
1663861761299437000,6.29143701171875,0.5533826947212219,-9.61965274810791,-1.8238493204116821
1663861761309324800,6.30132470703125,0.551876425743103,-9.618314743041992,-1.8313544988632202
1663861761319212500,6.311212646484375,0.5496128797531128,-9.617063522338867,-1.8385882377624512
1663861761329100300,6.321100341796875,0.5474256277084351,-9.615939140319824,-1.8451117277145386
1663861761338988000,6.330988037109375,0.5451835989952087,-9.614741325378418,-1.8519967794418335
1663861761348875500,6.34087548828125,0.5422550439834595,-9.613471984863281,-1.8594342470169067
1663861761358732800,6.35073291015625,0.5386083722114563,-9.612133979797363,-1.86739182472229
1663861761368620500,6.36062060546875,0.5337732434272766,-9.610748291015625,-1.8758974075317383
1663861761378508300,6.37050830078125,0.5283006429672241,-9.60932445526123,-1.8847236633300781
1663861761388365300,6.380365234375,0.5231185555458069,-9.608020782470703,-1.892796516418457
1663861761398253000,6.390253173828125,0.5174243450164795,-9.60677433013916,-1.9006692171096802
1663861761408140800,6.400140869140625,0.5117843747138977,-9.605709075927734,-1.9075703620910645
1663861761427916000,6.419916015625,0.5024508237838745,-9.604020118713379,-1.9185243844985962
1663861761437803800,6.4298037109375,0.49742794036865234,-9.603384017944336,-1.923011302947998
1663861761447691500,6.43969140625,0.4924321472644806,-9.602911949157715,-1.9266531467437744
1663861761457548800,6.449548828125,0.48714229464530945,-9.602462768554688,-1.9302271604537964
1663861761467436300,6.459436279296875,0.482350617647171,-9.601885795593262,-1.934301733970642
1663861761477324000,6.469323974609375,0.47800201177597046,-9.601224899291992,-1.9386540651321411
1663861761487211800,6.479211669921875,0.4749893844127655,-9.600505828857422,-1.9429548978805542
1663861761497069000,6.489069091796875,0.4725743532180786,-9.599642753601074,-1.9478017091751099
1663861761506956800,6.498956787109375,0.4702181816101074,-9.598652839660645,-1.9532393217086792
1663861761516844300,6.50884423828125,0.46816790103912354,-9.59759521484375,-1.9589192867279053
1663861761526732000,6.51873193359375,0.4660608768463135,-9.596454620361328,-1.9650002717971802
1663861761536619800,6.528619873046875,0.46397972106933594,-9.595282554626465,-1.9712097644805908
1663861761546477000,6.53847705078125,0.4627246856689453,-9.594073295593262,-1.977376103401184
1663861761556364500,6.548364501953125,0.46210139989852905,-9.592808723449707,-1.9836530685424805
1663861761566252300,6.558252197265625,0.461976557970047,-9.591401100158691,-1.9904751777648926
1663861761576140000,6.56814013671875,0.46216142177581787,-9.589897155761719,-1.9976669549942017
1663861761586027800,6.57802783203125,0.4621683955192566,-9.58829116821289,-2.0053584575653076
1663861761595915500,6.58791552734375,0.46153220534324646,-9.58664321899414,-2.013366460800171
1663861761605772500,6.5977724609375,0.46036189794540405,-9.585055351257324,-2.0211808681488037
1663861761615660300,6.607660400390625,0.45867836475372314,-9.583636283874512,-2.0282812118530273
1663861761625548000,6.617548095703125,0.4570915997028351,-9.582282066345215,-2.0350255966186523
1663861761635435800,6.627435791015625,0.45590272545814514,-9.580899238586426,-2.041792392730713
1663861761645323300,6.6373232421875,0.4549602270126343,-9.579486846923828,-2.0486156940460205
1663861761655211000,6.6472109375,0.45399126410484314,-9.578136444091797,-2.0551340579986572
1663861761665098800,6.6570986328125,0.4525287449359894,-9.576861381530762,-2.061391592025757
1663861761684843500,6.676843505859375,0.44373080134391785,-9.575172424316406,-2.0711257457733154
1663861761694731300,6.686731201171875,0.44018495082855225,-9.574075698852539,-2.0769433975219727
1663861761704619000,6.696618896484375,0.4373382329940796,-9.572808265686035,-2.0833754539489746
1663861761714476300,6.706476318359375,0.4351344406604767,-9.571673393249512,-2.089049816131592
1663861761724364000,6.716364013671875,0.4329741895198822,-9.570680618286133,-2.094038486480713
1663861761734251500,6.72625146484375,0.4308992624282837,-9.56976318359375,-2.098653554916382
1663861761744139300,6.73613916015625,0.4287582039833069,-9.568825721740723,-2.103362798690796
1663861761754027000,6.746027099609375,0.4258243143558502,-9.567863464355469,-2.108330249786377
1663861761763914800,6.755914794921875,0.42162033915519714,-9.566910743713379,-2.113492012023926
1663861761773771800,6.765771728515625,0.41669341921806335,-9.565896987915039,-2.119046926498413
1663861761783659500,6.775659423828125,0.41049903631210327,-9.564838409423828,-2.1250298023223877
1663861761793547300,6.78554736328125,0.4035506844520569,-9.563650131225586,-2.1316959857940674
1663861761803435000,6.79543505859375,0.39566224813461304,-9.5623197555542,-2.139131546020508
1663861761813322800,6.80532275390625,0.38675424456596375,-9.560808181762695,-2.1474969387054443
1663861761823210200,6.815210205078125,0.37783563137054443,-9.559205055236816,-2.1562042236328125
1663861761833098000,6.825097900390625,0.37040528655052185,-9.557721138000488,-2.164057493209839
1663861761842955300,6.834955322265625,0.3633706569671631,-9.556307792663574,-2.1714799404144287
1663861761852843000,6.844843017578125,0.35444632172584534,-9.554841995239258,-2.179392099380493
1663861761862730500,6.85473046875,0.3424500524997711,-9.553401947021484,-2.187605619430542
1663861761872618200,6.8646181640625,0.332770437002182,-9.552285194396973,-2.193970203399658
1663861761882506000,6.874506103515625,0.322031170129776,-9.551074028015137,-2.2008302211761475
1663861761892363300,6.88436328125,0.31195563077926636,-9.54984188079834,-2.20762038230896
1663861761902250800,6.894250732421875,0.30268868803977966,-9.548707962036133,-2.213809013366699
1663861761912108000,6.90410791015625,0.29352879524230957,-9.547754287719727,-2.2191452980041504
1663861761921995800,6.913995849609375,0.2840218245983124,-9.546979904174805,-2.22370982170105
1663861761931883500,6.923883544921875,0.27492910623550415,-9.546305656433105,-2.2277438640594482
1663861761941771000,6.93377099609375,0.26632827520370483,-9.545722961425781,-2.2312862873077393
1663861761951658800,6.94365869140625,0.25896236300468445,-9.545201301574707,-2.234377384185791
1663861761961546500,6.95354638671875,0.25264135003089905,-9.544673919677734,-2.237358331680298
1663861761971434200,6.963434326171875,0.246524378657341,-9.544140815734863,-2.2403109073638916
1663861761981322000,6.973322021484375,0.2399563491344452,-9.543575286865234,-2.2434322834014893
1663861761991209700,6.983209716796875,0.23333580791950226,-9.543001174926758,-2.2465713024139404
1663861762001097200,6.99309716796875,0.2253044992685318,-9.542097091674805,-2.2512245178222656
1663861762010985000,7.00298486328125,0.2174558788537979,-9.54119873046875,-2.255800247192383
1663861762020842200,7.01284228515625,0.20982283353805542,-9.540297508239746,-2.260331869125366
1663861762030730000,7.02272998046875,0.20226117968559265,-9.539345741271973,-2.2650346755981445
1663861762040617500,7.032617431640625,0.19465364515781403,-9.538365364074707,-2.269819974899292
1663861762050505200,7.042505126953125,0.18665824830532074,-9.53728199005127,-2.275036334991455
1663861762060393000,7.05239306640625,0.17865347862243652,-9.536091804504395,-2.28066349029541
1663861762070250200,7.062250244140625,0.17124347388744354,-9.534906387329102,-2.286177635192871
1663861762080137700,7.0721376953125,0.16412444412708282,-9.53384017944336,-2.2911415100097656
1663861762090025500,7.082025390625,0.15653331577777863,-9.532821655273438,-2.2959084510803223
1663861762099913200,7.091913330078125,0.14766038954257965,-9.531792640686035,-2.3007607460021973
1663861762109801000,7.101801025390625,0.13689807057380676,-9.530752182006836,-2.3057351112365723
1663861762119688700,7.111688720703125,0.12482582032680511,-9.52978229522705,-2.3104236125946045
1663861762129576200,7.121576171875,0.1121739000082016,-9.528910636901855,-2.314663887023926
1663861762139464000,7.1314638671875,0.10010462999343872,-9.52806568145752,-2.3186941146850586
1663861762149351700,7.1413515625,0.08820239454507828,-9.52717399597168,-2.322833776473999
1663861762159209000,7.151208984375,0.07484157383441925,-9.526238441467285,-2.3271372318267822
1663861762169096400,7.161096435546875,0.0582980215549469,-9.52544116973877,-2.3308706283569336
1663861762178984200,7.170984130859375,0.0385349877178669,-9.52488899230957,-2.3335354328155518
1663861762188872000,7.180871826171875,0.0176442451775074,-9.52456283569336,-2.335118532180786
1663861762198759700,7.190759765625,-0.0012993256095796824,-9.524523735046387,-2.335343599319458
1663861762208647400,7.2006474609375,-0.017977489158511162,-9.524718284606934,-2.334479331970215
1663861762218504400,7.21050439453125,-0.034464310854673386,-9.524954795837402,-2.3333308696746826
1663861762228392200,7.22039208984375,-0.05279026925563812,-9.525197982788086,-2.3319969177246094
1663861762238249500,7.23024951171875,-0.07183647155761719,-9.52542495727539,-2.3305599689483643
1663861762248167700,7.240167724609375,-0.08855739235877991,-9.525688171386719,-2.3289077281951904
1663861762258055400,7.250055419921875,-0.1020054891705513,-9.526107788085938,-2.3266396522521973
1663861762277800200,7.26980029296875,-0.1258307844400406,-9.528475761413574,-2.315751552581787
1663861762287688000,7.27968798828125,-0.13701365888118744,-9.530701637268066,-2.305936813354492
1663861762297575700,7.28957568359375,-0.14537735283374786,-9.533968925476074,-2.2918753623962402
1663861762307463200,7.299463134765625,-0.15072788298130035,-9.538140296936035,-2.274106740951538
1663861762317351000,7.309350830078125,-0.15386316180229187,-9.54270076751709,-2.2546768188476562
1663861762327238700,7.31923876953125,-0.15480628609657288,-9.547249794006348,-2.2352728843688965
1663861762337096000,7.329095947265625,-0.1521793156862259,-9.551593780517578,-2.216815948486328
1663861762346983400,7.3389833984375,-0.14718925952911377,-9.55557918548584,-2.199913740158081
1663861762356840700,7.3488408203125,-0.14265088737010956,-9.55898380279541,-2.1853761672973633
1663861762366698000,7.358697998046875,-0.13981075584888458,-9.561790466308594,-2.1732466220855713
1663861762376616200,7.3686162109375,-0.13762624561786652,-9.564082145690918,-2.163280487060547
1663861762386503700,7.378503662109375,-0.13512912392616272,-9.566092491149902,-2.154529571533203
1663861762396391400,7.388391357421875,-0.13163958489894867,-9.568014144897461,-2.146199941635132
1663861762406279200,7.398279052734375,-0.12814508378505707,-9.56978988647461,-2.1384801864624023
1663861762416136400,7.408136474609375,-0.12450830638408661,-9.571446418762207,-2.131270170211792
1663861762426024000,7.41802392578125,-0.11957816034555435,-9.573020935058594,-2.124469757080078
1663861762435911700,7.42791162109375,-0.1140250563621521,-9.574601173400879,-2.1176397800445557
1663861762445799400,7.43779931640625,-0.10945942252874374,-9.57597827911377,-2.111647605895996
1663861762455687200,7.447687255859375,-0.10557042062282562,-9.576873779296875,-2.107776165008545
1663861762465544400,7.45754443359375,-0.10231273621320724,-9.5773344039917,-2.105848789215088
1663861762475401500,7.4674013671875,-0.0996042862534523,-9.577515602111816,-2.1051502227783203
1663861762485289200,7.477289306640625,-0.09763108193874359,-9.577714920043945,-2.1043379306793213
1663861762495177000,7.487177001953125,-0.09651605039834976,-9.57819938659668,-2.102182388305664
1663861762505064700,7.497064697265625,-0.09600672125816345,-9.578971862792969,-2.0986835956573486
1663861762514952200,7.5069521484375,-0.09557514637708664,-9.579968452453613,-2.094146490097046
1663861762524809500,7.5168095703125,-0.09437369555234909,-9.58110237121582,-2.0890088081359863
1663861762544615400,7.536615478515625,-0.08644136041402817,-9.584249496459961,-2.0748701095581055
1663861762554503200,7.546503173828125,-0.08134929090738297,-9.585851669311523,-2.0676653385162354
1663861762564390700,7.556390625,-0.0757138803601265,-9.587462425231934,-2.060394048690796
1663861762574278400,7.5662783203125,-0.06952483206987381,-9.589143753051758,-2.052771806716919
1663861762584166100,7.576166259765625,-0.06328887492418289,-9.590933799743652,-2.0445988178253174
1663861762594023400,7.5860234375,-0.057581350207328796,-9.592779159545898,-2.0360889434814453
1663861762603941600,7.595941650390625,-0.05127838999032974,-9.594740867614746,-2.026994466781616
1663861762613798700,7.605798583984375,-0.04387109726667404,-9.596811294555664,-2.0173442363739014
1663861762623716900,7.615716796875,-0.03554157912731171,-9.59891128540039,-2.00749135017395
1663861762633604600,7.6256044921875,-0.02648080326616764,-9.600854873657227,-1.9983190298080444
1663861762643492400,7.635492431640625,-0.01699865236878395,-9.602788925170898,-1.9891083240509033
1663861762653380000,7.645380126953125,-0.007697548717260361,-9.60474967956543,-1.9796736240386963
1663861762663237000,7.655237060546875,0.001681616879068315,-9.606731414794922,-1.9700475931167603
1663861762673094400,7.665094482421875,0.01174537930637598,-9.608820915222168,-1.959800124168396
1663861762683012600,7.6750126953125,0.022452715784311295,-9.611096382141113,-1.9485112428665161
1663861762692900400,7.684900390625,0.03362797945737839,-9.61341667175293,-1.936870813369751
1663861762702788000,7.6947880859375,0.045421112328767776,-9.615732192993164,-1.9251054525375366
1663861762712675600,7.704675537109375,0.05692649632692337,-9.617938041687012,-1.9137399196624756
1663861762722532900,7.714532958984375,0.06778547167778015,-9.619982719421387,-1.903079628944397
1663861762732420600,7.724420654296875,0.07784869521856308,-9.621846199035645,-1.8932560682296753
1663861762742277600,7.734277587890625,0.08714769780635834,-9.623503684997559,-1.8844033479690552
1663861762752195800,7.74419580078125,0.09562961012125015,-9.625059127807617,-1.876031517982483
1663861762762083600,7.75408349609375,0.10329349339008331,-9.626476287841797,-1.8683339357376099
1663861762771971300,7.763971435546875,0.11033450812101364,-9.627760887145996,-1.8613007068634033
1663861762781859000,7.773859130859375,0.11653502285480499,-9.629264831542969,-1.8531200885772705
1663861762791716000,7.783716064453125,0.12371606379747391,-9.631072044372559,-1.8432414531707764
1663861762801603800,7.793603759765625,0.13118000328540802,-9.633065223693848,-1.832274079322815
1663861762811461000,7.803461181640625,0.13655661046504974,-9.635086059570312,-1.8212268352508545
1663861762821348900,7.813348876953125,0.14100128412246704,-9.63693904876709,-1.8110473155975342
1663861762831206000,7.823205810546875,0.14416852593421936,-9.638679504394531,-1.8015133142471313
1663861762841124000,7.8331240234375,0.14542675018310547,-9.640353202819824,-1.79243803024292
1663861762850981400,7.8429814453125,0.1469433605670929,-9.641996383666992,-1.7834490537643433
1663861762860899600,7.852899658203125,0.1488184779882431,-9.643790245056152,-1.7735687494277954
1663861762870756600,7.862756591796875,0.15095087885856628,-9.645544052124023,-1.763824224472046
1663861762880644400,7.872644287109375,0.15226079523563385,-9.647261619567871,-1.7542929649353027
1663861762890501600,7.882501708984375,0.15381939709186554,-9.64889907836914,-1.7451329231262207
1663861762900419800,7.892419921875,0.15564054250717163,-9.650406837463379,-1.7366101741790771
1663861762910307600,7.9023076171875,0.156184121966362,-9.651812553405762,-1.7287272214889526
1663861762920195300,7.9121953125,0.1557084619998932,-9.653095245361328,-1.7215981483459473
1663861762930082800,7.922082763671875,0.15531772375106812,-9.654422760009766,-1.7141714096069336
1663861762939940000,7.931940185546875,0.15587970614433289,-9.655793190002441,-1.706383228302002
1663861762949827800,7.941827880859375,0.15628008544445038,-9.65717601776123,-1.6985009908676147
1663861762959715600,7.951715576171875,0.1569734811782837,-9.658472061157227,-1.6910563707351685
1663861762969572600,7.961572509765625,0.1594768613576889,-9.659675598144531,-1.68392813205719
1663861762979490800,7.97149072265625,0.16082890331745148,-9.660820007324219,-1.6772208213806152
1663861762989378600,7.981378662109375,0.16003599762916565,-9.661870956420898,-1.6712369918823242
1663861762999266300,7.991266357421875,0.15772320330142975,-9.662928581237793,-1.6653279066085815
1663861763009123300,8.001123291015626,0.15693135559558868,-9.66403865814209,-1.6589511632919312
1663861763018980600,8.010980712890625,0.15846344828605652,-9.665201187133789,-1.652017593383789
1663861763028868400,8.020868408203125,0.16156093776226044,-9.666434288024902,-1.6444876194000244
1663861763038786600,8.03078662109375,0.16574491560459137,-9.667659759521484,-1.6368508338928223
1663861763048643600,8.0406435546875,0.16959740221500397,-9.66887092590332,-1.6292846202850342
1663861763058531300,8.05053125,0.17276102304458618,-9.670149803161621,-1.6213396787643433
1663861763068388600,8.060388671875,0.17614728212356567,-9.67148494720459,-1.612991452217102
1663861763078306800,8.070306884765625,0.18144671618938446,-9.672877311706543,-1.6040308475494385
1663861763088194600,8.080194580078125,0.18930397927761078,-9.674302101135254,-1.5945030450820923
1663861763098082000,8.09008203125,0.19795441627502441,-9.675728797912598,-1.5847629308700562
1663861763107939300,8.099939208984376,0.20615123212337494,-9.677082061767578,-1.575429081916809
1663861763117796600,8.109796630859375,0.21346840262413025,-9.678380966186523,-1.5664490461349487
1663861763127714800,8.11971484375,0.22049768269062042,-9.679670333862305,-1.557484745979309
1663861763137602300,8.129602294921876,0.22869479656219482,-9.680839538574219,-1.5490128993988037
1663861763147490000,8.139489990234376,0.2382306605577469,-9.681909561157227,-1.5408670902252197
1663861763157377800,8.149377685546876,0.24747028946876526,-9.682866096496582,-1.5333753824234009
1663861763167265500,8.159265625,0.2556416988372803,-9.683744430541992,-1.5264742374420166
1663861763177153300,8.1691533203125,0.262403666973114,-9.684615135192871,-1.5197908878326416
1663861763187041000,8.179041015625,0.2708698511123657,-9.685359001159668,-1.513551950454712
1663861763196928500,8.188928466796876,0.27957403659820557,-9.686156272888184,-1.5068466663360596
1663861763206816300,8.198816162109376,0.28660640120506287,-9.686965942382812,-1.50031316280365
1663861763216704000,8.2087041015625,0.2939754128456116,-9.687788009643555,-1.4935616254806519
1663861763236418300,8.228418212890626,0.30561700463294983,-9.689399719238281,-1.480718970298767
1663861763246306000,8.23830615234375,0.3107540011405945,-9.690210342407227,-1.4743231534957886
1663861763256193800,8.24819384765625,0.3149236738681793,-9.690921783447266,-1.468761682510376
1663861763266050800,8.25805078125,0.31835803389549255,-9.691471099853516,-1.464385747909546
1663861763275938600,8.2679384765625,0.32223445177078247,-9.692014694213867,-1.4599308967590332
1663861763285826300,8.277826416015625,0.3256267309188843,-9.69255542755127,-1.4555883407592773
1663861763295714000,8.287714111328125,0.32785332202911377,-9.693113327026367,-1.451370358467102
1663861763305601800,8.297601806640625,0.33009350299835205,-9.693719863891602,-1.4467910528182983
1663861763315489300,8.3074892578125,0.3321242928504944,-9.694554328918457,-1.4407269954681396
1663861763325346600,8.3173466796875,0.33454906940460205,-9.69550895690918,-1.4337266683578491
1663861763335234300,8.327234375,0.3364097774028778,-9.6965970993042,-1.4259119033813477
1663861763345122000,8.3371220703125,0.3381183445453644,-9.697635650634766,-1.4184256792068481
1663861763355009500,8.347009521484376,0.34077775478363037,-9.698553085327148,-1.4115004539489746
1663861763364897300,8.356897216796876,0.34279799461364746,-9.699345588684082,-1.4055532217025757
1663861763374754600,8.366754638671875,0.3437977433204651,-9.70008373260498,-1.4001981019973755
1663861763384642300,8.376642333984375,0.34518542885780334,-9.700807571411133,-1.3948333263397217
1663861763394529800,8.38652978515625,0.3457277715206146,-9.701533317565918,-1.3896387815475464
1663861763404417500,8.39641748046875,0.34621381759643555,-9.70223331451416,-1.3846290111541748
1663861763414305300,8.40630517578125,0.34732383489608765,-9.702923774719238,-1.3795058727264404
1663861763424193000,8.416193115234375,0.34839949011802673,-9.7034912109375,-1.3752309083938599
1663861763434080800,8.426080810546875,0.3489288091659546,-9.704076766967773,-1.3709588050842285
1663861763443937800,8.435937744140626,0.34924817085266113,-9.704625129699707,-1.3669931888580322
1663861763453825500,8.445825439453126,0.3494795858860016,-9.70512866973877,-1.3633581399917603
1663861763463713300,8.45571337890625,0.3493308126926422,-9.705629348754883,-1.359824776649475
1663861763483488800,8.47548876953125,0.3502311408519745,-9.706558227539062,-1.3529438972473145
1663861763493345800,8.485345703125,0.3516702950000763,-9.707023620605469,-1.349220871925354
1663861763503233500,8.495233642578125,0.3523230254650116,-9.707488059997559,-1.3457072973251343
1663861763513121300,8.505121337890625,0.35319599509239197,-9.707866668701172,-1.342740535736084
1663861763523009000,8.515009033203125,0.3542915880680084,-9.708120346069336,-1.34061598777771
1663861763532866000,8.524865966796876,0.3536171317100525,-9.708388328552246,-1.338855504989624
1663861763542784300,8.5347841796875,0.3521171808242798,-9.708598136901855,-1.337727665901184
1663861763552672000,8.544672119140625,0.35137662291526794,-9.708710670471191,-1.3371076583862305
1663861763562559700,8.554559814453125,0.3510936498641968,-9.708721160888672,-1.3371073007583618
1663861763572447500,8.564447509765625,0.35000449419021606,-9.708687782287598,-1.3376373052597046
1663861763582335000,8.5743349609375,0.3478858172893524,-9.708781242370605,-1.3375097513198853
1663861763592192300,8.584192138671876,0.3463318645954132,-9.708909034729004,-1.336984634399414
1663861763602080000,8.594080078125,0.3463207483291626,-9.709149360656738,-1.3352382183074951
1663861763611967700,8.6039677734375,0.3467120826244354,-9.709403991699219,-1.333280324935913
1663861763621855200,8.613855224609376,0.3468259274959564,-9.709601402282715,-1.3318208456039429
1663861763631743000,8.623742919921876,0.3461247682571411,-9.709724426269531,-1.331108570098877
1663861763641630700,8.633630615234376,0.34579819440841675,-9.709929466247559,-1.329688549041748
1663861763651518500,8.6435185546875,0.3459276854991913,-9.71021842956543,-1.3275481462478638
1663861763661406200,8.65340625,0.34625113010406494,-9.710464477539062,-1.3256616592407227
1663861763671263200,8.66326318359375,0.34688857197761536,-9.710700035095215,-1.3237653970718384
1663861763681120500,8.67312060546875,0.3478589355945587,-9.710885047912598,-1.3221558332443237
1663861763691038700,8.683038818359375,0.348332017660141,-9.710990905761719,-1.3212542533874512
1663861763700926500,8.692926513671875,0.34823593497276306,-9.711029052734375,-1.320997953414917
1663861763710814200,8.702814208984375,0.34759747982025146,-9.711037635803223,-1.3210989236831665
1663861763720701700,8.71270166015625,0.34620898962020874,-9.711094856262207,-1.3210471868515015
1663861763730589400,8.72258935546875,0.3450734615325928,-9.711170196533203,-1.3207896947860718
1663861763740446700,8.73244677734375,0.34465718269348145,-9.711277961730957,-1.3200998306274414
1663861763750303700,8.7423037109375,0.34489530324935913,-9.711381912231445,-1.319276213645935
1663861763760191500,8.75219140625,0.3452779948711395,-9.71133041381836,-1.3195573091506958
1663861763770079200,8.762079345703125,0.3458687961101532,-9.711250305175781,-1.3199868202209473
1663861763779936500,8.7719365234375,0.3452339172363281,-9.711197853088379,-1.3205437660217285
1663861763789824000,8.781823974609376,0.3437589406967163,-9.711087226867676,-1.3217439651489258
1663861763799742200,8.7917421875,0.34201130270957947,-9.711052894592285,-1.3224482536315918
1663861763809630000,8.8016298828125,0.34088996052742004,-9.711048126220703,-1.3227685689926147
1663861763819517700,8.811517578125,0.3412562906742096,-9.711080551147461,-1.3224403858184814
1663861763829375000,8.821375,0.3420553505420685,-9.711121559143066,-1.3219388723373413
1663861763839262500,8.831262451171876,0.3424868881702423,-9.711172103881836,-1.3214492797851562
1663861763849150200,8.841150146484376,0.34170618653297424,-9.711206436157227,-1.3213963508605957
1663861763859038000,8.851037841796876,0.33947187662124634,-9.71126651763916,-1.3215323686599731
1663861763868895200,8.860895263671875,0.33760762214660645,-9.711359024047852,-1.3213268518447876
1663861763878783000,8.870782958984375,0.3367757797241211,-9.71142864227295,-1.3210324048995972
1663861763888670500,8.88067041015625,0.33664989471435547,-9.711453437805176,-1.320879578590393
1663861763898558200,8.89055810546875,0.33634844422340393,-9.711396217346191,-1.3213812112808228
1663861763908446000,8.900446044921875,0.33647918701171875,-9.71113395690918,-1.3232682943344116
1663861763918333700,8.910333740234375,0.3360612392425537,-9.710837364196777,-1.3255518674850464
1663861763928221400,8.920221435546875,0.33269721269607544,-9.71075439453125,-1.3270044326782227
1663861763938109000,8.93010888671875,0.32884451746940613,-9.710965156555176,-1.3264265060424805
1663861763947966200,8.93996630859375,0.3276994228363037,-9.711235046386719,-1.324726939201355
1663861763957854000,8.94985400390625,0.3293675482273102,-9.711376190185547,-1.32328462600708
1663861763967741700,8.95974169921875,0.3300701081752777,-9.711443901062012,-1.322614073753357
1663861763977629200,8.969629150390626,0.3292982876300812,-9.71143627166748,-1.3228623867034912
1663861763987486500,8.979486572265625,0.3277476727962494,-9.711397171020508,-1.3235352039337158
1663861763997374200,8.989374267578125,0.32671427726745605,-9.711334228515625,-1.3242440223693848
1663861764007262000,8.999261962890625,0.3272092640399933,-9.711247444152832,-1.3247631788253784
1663861764017149400,9.0091494140625,0.3273722231388092,-9.711166381835938,-1.3253167867660522
1663861764027037200,9.019037109375,0.32597947120666504,-9.71121883392334,-1.3252798318862915
1663861764036925000,9.028925048828125,0.32436031103134155,-9.711345672607422,-1.3247489929199219
1663861764046812700,9.038812744140625,0.32468515634536743,-9.711492538452148,-1.3235855102539062
1663861764056700400,9.048700439453125,0.3248880207538605,-9.711573600769043,-1.322943925857544
1663861764066588000,9.058587890625,0.3246726393699646,-9.711588859558105,-1.3228824138641357
1663861764076475600,9.0684755859375,0.3235946595668793,-9.711541175842285,-1.3234977722167969
1663861764086333000,9.0783330078125,0.3221539258956909,-9.71144962310791,-1.324518084526062
1663861764096220700,9.088220703125,0.3206927478313446,-9.711459159851074,-1.324809193611145
1663861764106077700,9.09807763671875,0.3189179003238678,-9.711530685424805,-1.3247097730636597
1663861764115965400,9.10796533203125,0.3175859749317169,-9.711664199829102,-1.324049711227417
1663861764125822700,9.11782275390625,0.3172746002674103,-9.71192455291748,-1.3222174644470215
1663861764135741000,9.127740966796875,0.3176738917827606,-9.712223052978516,-1.3199189901351929
1663861764145628700,9.137628662109375,0.31796547770500183,-9.712591171264648,-1.317137598991394
1663861764155485700,9.147485595703126,0.3178807497024536,-9.71296501159668,-1.3144031763076782
1663861764165373400,9.15737353515625,0.31744325160980225,-9.713360786437988,-1.3115832805633545
1663861764175261200,9.16726123046875,0.31680336594581604,-9.71373176574707,-1.3089855909347534
1663861764185118200,9.1771181640625,0.3162370026111603,-9.714079856872559,-1.3065332174301147
1663861764195036400,9.187036376953126,0.3164166808128357,-9.714320182800293,-1.3047016859054565
1663861764204924200,9.196924072265626,0.3162246644496918,-9.71448802947998,-1.3035058975219727
1663861764214781400,9.206781494140625,0.3154071271419525,-9.71463394165039,-1.3026111125946045
1663861764224669200,9.216669189453125,0.31399253010749817,-9.714753150939941,-1.3020609617233276
1663861764234556700,9.226556640625,0.31284815073013306,-9.71478271484375,-1.3021230697631836
1663861764244444400,9.2364443359375,0.3117806315422058,-9.714852333068848,-1.301851749420166
1663861764254332200,9.246332275390625,0.3109782040119171,-9.714944839477539,-1.3013547658920288
1663861764264220000,9.256219970703125,0.3099198043346405,-9.715121269226074,-1.3002897500991821
1663861764274077000,9.266076904296876,0.3086910843849182,-9.715384483337402,-1.298606276512146
1663861764283995100,9.2759951171875,0.30798450112342834,-9.715655326843262,-1.2967580556869507
1663861764293852400,9.285852294921876,0.30775535106658936,-9.715873718261719,-1.2951734066009521
1663861764303709700,9.295709716796875,0.30770042538642883,-9.716021537780762,-1.294077754020691
1663861764313628000,9.3056279296875,0.307384192943573,-9.716055870056152,-1.2938942909240723
1663861764323485000,9.31548486328125,0.3067066967487335,-9.716010093688965,-1.2944003343582153
1663861764333403100,9.325403076171876,0.3058263659477234,-9.715983390808105,-1.2948051691055298
1663861764343260400,9.335260498046875,0.305424302816391,-9.71603775024414,-1.2944893836975098
1663861764353148200,9.345148193359375,0.30587708950042725,-9.71616268157959,-1.2934447526931763
1663861764363036000,9.355035888671875,0.30631327629089355,-9.716310501098633,-1.2922338247299194
1663861764372923400,9.36492333984375,0.30587396025657654,-9.716410636901855,-1.2915842533111572
1663861764382811100,9.37481103515625,0.3052690029144287,-9.716527938842773,-1.2908457517623901
1663861764392699000,9.384698974609375,0.30492305755615234,-9.716604232788086,-1.29035484790802
1663861764402586600,9.394586669921875,0.30443915724754333,-9.716670036315918,-1.289966106414795
1663861764412474400,9.404474365234375,0.30406132340431213,-9.716665267944336,-1.2900975942611694
1663861764422361900,9.41436181640625,0.3035380244255066,-9.716630935668945,-1.2904837131500244
1663861764432249600,9.42424951171875,0.3034210205078125,-9.71658706665039,-1.2908374071121216
1663861764442107000,9.43410693359375,0.3031611740589142,-9.716560363769531,-1.291096806526184
1663861764451994600,9.44399462890625,0.3025209307670593,-9.716470718383789,-1.291920781135559
1663861764461882000,9.453882080078126,0.3007618486881256,-9.716410636901855,-1.2927931547164917
1663861764471769900,9.463769775390626,0.2994375228881836,-9.716408729553223,-1.293108344078064
1663861764481657600,9.47365771484375,0.2981623411178589,-9.716498374938965,-1.2927262783050537
1663861764491545300,9.48354541015625,0.29713675379753113,-9.71661376953125,-1.2920897006988525
1663861764501433000,9.49343310546875,0.2966230809688568,-9.716761589050293,-1.2911053895950317
1663861764511320600,9.503320556640626,0.295980840921402,-9.71700382232666,-1.289420247077942
1663861764521208300,9.513208251953126,0.2949505150318146,-9.71722412109375,-1.287999153137207
1663861764531065600,9.523065673828125,0.2937967777252197,-9.717432975769043,-1.2866837978363037
1663861764540953300,9.532953369140625,0.2927078306674957,-9.717604637145996,-1.2856380939483643
1663861764550840800,9.5428408203125,0.29163166880607605,-9.717751502990723,-1.284775972366333
1663861764560728600,9.552728515625,0.28991803526878357,-9.717865943908691,-1.2842938899993896
1663861764570616300,9.5626162109375,0.28895458579063416,-9.71802806854248,-1.2832847833633423
1663861764580504000,9.572504150390625,0.2884165644645691,-9.718199729919434,-1.2821104526519775
1663861764590361300,9.582361328125,0.2872428596019745,-9.718415260314941,-1.2807328701019287
1663861764600248800,9.592248779296876,0.2861102521419525,-9.718658447265625,-1.2791428565979004
1663861764610136600,9.602136474609376,0.28564897179603577,-9.718860626220703,-1.2777085304260254
1663861764620024300,9.6120244140625,0.28541505336761475,-9.719123840332031,-1.2757548093795776
1663861764629912000,9.621912109375,0.2851317822933197,-9.719427108764648,-1.27350914478302
1663861764639799800,9.6317998046875,0.28475627303123474,-9.719722747802734,-1.271331787109375
1663861764649656800,9.64165673828125,0.28474196791648865,-9.720023155212402,-1.269041657447815
1663861764659514000,9.65151416015625,0.2848242223262787,-9.72032356262207,-1.2667131423950195
1663861764669371100,9.66137109375,0.28457212448120117,-9.720599174499512,-1.2646560668945312
1663861764679289300,9.671289306640626,0.2842044234275818,-9.720898628234863,-1.262438178062439
1663861764689177000,9.681177001953126,0.28377652168273926,-9.721144676208496,-1.2606362104415894
1663861764699064800,9.69106494140625,0.28338029980659485,-9.721429824829102,-1.2585270404815674
1663861764708922000,9.700922119140625,0.2826751172542572,-9.72172737121582,-1.2563847303390503
1663861764718809600,9.7108095703125,0.2821974754333496,-9.7219877243042,-1.2544761896133423
1663861764728697300,9.720697265625,0.2816765606403351,-9.722268104553223,-1.2524118423461914
1663861764738585000,9.730585205078125,0.2809745669364929,-9.722601890563965,-1.249982237815857
1663861764748472800,9.740472900390625,0.2804189622402191,-9.722942352294922,-1.247454047203064
1663861764758329900,9.750329833984376,0.2807210683822632,-9.723255157470703,-1.244948387145996
1663861764768217600,9.760217529296876,0.2815443277359009,-9.72354793548584,-1.2424707412719727
1663861764778075000,9.770074951171875,0.28220316767692566,-9.723823547363281,-1.2401628494262695
1663861764787993000,9.7799931640625,0.28309857845306396,-9.724129676818848,-1.2375500202178955
1663861764797880800,9.789880859375,0.283725380897522,-9.724434852600098,-1.2350143194198608
1663861764807768300,9.799768310546876,0.2841815650463104,-9.724784851074219,-1.2321515083312988
1663861764817656000,9.809656005859376,0.2852475643157959,-9.725117683410645,-1.2292680740356445
1663861764827543800,9.819543701171876,0.28676265478134155,-9.725442886352539,-1.2263435125350952
1663861764837431600,9.829431640625,0.28836849331855774,-9.7257719039917,-1.2233530282974243
1663861764847319300,9.8393193359375,0.28999409079551697,-9.726061820983887,-1.220665454864502
1663861764857207000,9.84920703125,0.2917122542858124,-9.726297378540039,-1.2183711528778076
1663861764867094500,9.859094482421876,0.2936846613883972,-9.726508140563965,-1.2162144184112549
1663861764876951800,9.868951904296875,0.2960699796676636,-9.7267484664917,-1.213711142539978
1663861764886809000,9.87880908203125,0.29811540246009827,-9.727102279663086,-1.2103732824325562
1663861764896696600,9.888696533203126,0.3004963994026184,-9.727472305297852,-1.2068064212799072
1663861764906584300,9.898584228515626,0.30274495482444763,-9.72783374786377,-1.2033244371414185
1663861764916472000,9.90847216796875,0.30533307790756226,-9.7282133102417,-1.1996018886566162
1663861764926359800,9.91835986328125,0.307331383228302,-9.728580474853516,-1.1961003541946411
1663861764936247600,9.92824755859375,0.3089837431907654,-9.728915214538574,-1.1929547786712646
1663861764946104600,9.9381044921875,0.3107520639896393,-9.729255676269531,-1.1897096633911133
1663861764955992300,9.947992431640625,0.311987042427063,-9.729599952697754,-1.1865719556808472
1663861764965880000,9.957880126953125,0.3133160471916199,-9.729950904846191,-1.1833279132843018
1663861764985624800,9.977624755859376,0.3165443241596222,-9.730403900146484,-1.178737998008728
1663861764995512600,9.9875126953125,0.3179861605167389,-9.730679512023926,-1.1760711669921875
1663861765005400300,9.997400390625,0.31906893849372864,-9.730975151062012,-1.1733320951461792
1663861765015288000,10.0072880859375,0.3200733959674835,-9.73127269744873,-1.1705888509750366
1663861765025175600,10.017175537109376,0.32118791341781616,-9.731527328491211,-1.1681641340255737
1663861765035032800,10.02703271484375,0.3216700851917267,-9.73180103302002,-1.1657465696334839
1663861765044920600,10.036920654296875,0.3231138288974762,-9.73205280303955,-1.1632435321807861
1663861765054808300,10.046808349609375,0.325051873922348,-9.732297897338867,-1.1606452465057373
1663861765064695800,10.05669580078125,0.3267393410205841,-9.732540130615234,-1.1581493616104126
1663861765074583600,10.06658349609375,0.327925443649292,-9.73267936706543,-1.1566346883773804
1663861765084440800,10.07644091796875,0.32792896032333374,-9.732767105102539,-1.155897855758667
1663861765094328600,10.08632861328125,0.32767000794410706,-9.732819557189941,-1.1555302143096924
1663861765104216300,10.09621630859375,0.32727083563804626,-9.73287296295166,-1.155192494392395
1663861765114103800,10.106103759765626,0.3274323046207428,-9.732873916625977,-1.155142068862915
1663861765123991600,10.115991455078126,0.32868096232414246,-9.732891082763672,-1.1546440124511719
1663861765133848800,10.125848876953125,0.3300217092037201,-9.73293399810791,-1.1538937091827393
1663861765143736600,10.135736572265625,0.3312102258205414,-9.733000755310059,-1.1529853343963623
1663861765153624000,10.1456240234375,0.3331667482852936,-9.73304271697998,-1.1520655155181885
1663861765163511800,10.15551171875,0.33518800139427185,-9.733179092407227,-1.1503267288208008
1663861765173399600,10.165399658203125,0.3370525538921356,-9.7333402633667,-1.1484217643737793
1663861765183287300,10.175287353515625,0.33877333998680115,-9.733501434326172,-1.1465524435043335
1663861765193144300,10.185144287109376,0.3403741121292114,-9.733684539794922,-1.1445118188858032
1663861765203032000,10.195031982421876,0.34185004234313965,-9.733869552612305,-1.142502784729004
1663861765212919800,10.204919921875,0.34306544065475464,-9.734057426452637,-1.140537977218628
1663861765222807600,10.2148076171875,0.3443252742290497,-9.734261512756348,-1.1384161710739136
1663861765232695300,10.2246953125,0.3442085385322571,-9.734368324279785,-1.137528657913208
1663861765242582800,10.234582763671876,0.34388506412506104,-9.734390258789062,-1.1374421119689941
1663861765252440000,10.244440185546875,0.3437509834766388,-9.734374046325684,-1.1376222372055054
1663861765262327800,10.254327880859375,0.34380385279655457,-9.734349250793457,-1.1378268003463745
1663861765272215600,10.264215576171875,0.3443073630332947,-9.73438835144043,-1.137331247329712
1663861765282103000,10.27410302734375,0.34532079100608826,-9.73447322845459,-1.1363004446029663
1663861765291990800,10.28399072265625,0.34619009494781494,-9.734574317932129,-1.1351696252822876
1663861765301878500,10.29387841796875,0.34683284163475037,-9.734698295593262,-1.1339112520217896
1663861765311766300,10.303766357421875,0.3473840653896332,-9.734851837158203,-1.1324207782745361
1663861765321654000,10.313654052734375,0.34809449315071106,-9.73497486114502,-1.1311509609222412
1663861765331541800,10.323541748046875,0.3492399752140045,-9.735081672668457,-1.129875898361206
1663861765341398800,10.333398681640626,0.35036107897758484,-9.735196113586426,-1.128542423248291
1663861765351286500,10.34328662109375,0.3517581820487976,-9.735276222229004,-1.1274133920669556
1663861765361174300,10.35317431640625,0.3529011607170105,-9.735349655151367,-1.126410722732544
1663861765371031300,10.36303125,0.35412752628326416,-9.735359191894531,-1.125952124595642
1663861765380919000,10.3729189453125,0.35507747530937195,-9.73537540435791,-1.1255054473876953
1663861765390806800,10.382806884765625,0.3554614782333374,-9.735393524169922,-1.1252341270446777
1663861765400694500,10.392694580078125,0.35648801922798157,-9.735360145568848,-1.1251921653747559
1663861765410582300,10.402582275390625,0.3580268919467926,-9.73532485961914,-1.125015139579773
1663861765420469800,10.4124697265625,0.3588058054447174,-9.735297203063965,-1.1250059604644775
1663861765430327000,10.4223271484375,0.35981205105781555,-9.735234260559082,-1.1252315044403076
1663861765440214800,10.43221484375,0.36055392026901245,-9.735184669494629,-1.1254197359085083
1663861765450133000,10.442133056640625,0.36126482486724854,-9.735145568847656,-1.1255228519439697
1663861765460020700,10.452020751953125,0.36181628704071045,-9.735103607177734,-1.1257132291793823
1663861765469908200,10.461908203125,0.36237460374832153,-9.735060691833496,-1.1259065866470337
1663861765479796000,10.4717958984375,0.3628533184528351,-9.734997749328613,-1.1263009309768677
1663861765489683700,10.48168359375,0.3633364140987396,-9.734925270080566,-1.1267648935317993
1663861765499571500,10.491571533203125,0.3636435270309448,-9.734825134277344,-1.1275399923324585
1663861765509459200,10.501459228515625,0.3642408549785614,-9.734735488891602,-1.1281100511550903
1663861765519346700,10.5113466796875,0.3652452230453491,-9.73464298248291,-1.1285878419876099
1663861765529204000,10.521203857421876,0.36596351861953735,-9.734541893005371,-1.1292279958724976
1663861765539061200,10.531061279296875,0.3666016459465027,-9.734405517578125,-1.1301952600479126
1663861765548918300,10.540918212890626,0.36723092198371887,-9.734244346618652,-1.1313797235488892
1663861765558836500,10.55083642578125,0.3676536977291107,-9.73410415649414,-1.1324390172958374
1663861765568724200,10.56072412109375,0.36829760670661926,-9.733949661254883,-1.1335647106170654
1663861765578612000,10.570612060546875,0.3692512810230255,-9.733781814575195,-1.1346973180770874
1663861765588499700,10.580499755859375,0.36973726749420166,-9.733607292175293,-1.136031985282898
1663861765598356700,10.590356689453126,0.3706760108470917,-9.733403205871582,-1.1374703645706177
1663861765608244500,10.600244384765626,0.3717993497848511,-9.733251571655273,-1.1384050846099854
1663861765618132200,10.61013232421875,0.37301933765411377,-9.733134269714355,-1.1390084028244019
1663861765628020000,10.62002001953125,0.37459126114845276,-9.733007431030273,-1.1395699977874756
1663861765637907700,10.62990771484375,0.3758862614631653,-9.73289966583252,-1.140068531036377
1663861765647795200,10.639795166015626,0.3774995505809784,-9.732730865478516,-1.1409735679626465
1663861765657683000,10.649682861328126,0.37897685170173645,-9.732522964477539,-1.1422579288482666
1663861765667570700,10.65957080078125,0.3802622854709625,-9.73227596282959,-1.1439340114593506
1663861765677458400,10.66945849609375,0.3813619017601013,-9.7320556640625,-1.1454426050186157
1663861765687346200,10.67934619140625,0.38233086466789246,-9.731797218322754,-1.1473174095153809
1663861765697233700,10.689233642578126,0.3834255635738373,-9.731518745422363,-1.149309754371643
1663861765707091000,10.699091064453125,0.3841285705566406,-9.731303215026855,-1.1509073972702026
1663861765716978700,10.708978759765625,0.38495171070098877,-9.731117248535156,-1.1522010564804077
1663861765726866400,10.718866455078125,0.3858306109905243,-9.730937957763672,-1.1534184217453003
1663861765736723500,10.728723388671876,0.386067658662796,-9.730746269226074,-1.1549574136734009
1663861765746611200,10.738611083984376,0.38611695170402527,-9.730569839477539,-1.1564271450042725
1663861765756499000,10.7484990234375,0.3859986364841461,-9.730400085449219,-1.157895565032959
1663861765766356000,10.75835595703125,0.3861009478569031,-9.73025894165039,-1.1590430736541748
1663861765776243700,10.76824365234375,0.38613349199295044,-9.730216979980469,-1.1593809127807617
1663861765786131500,10.77813134765625,0.38583138585090637,-9.730289459228516,-1.1588711738586426
1663861765796019200,10.788019287109375,0.38635849952697754,-9.730325698852539,-1.1583969593048096
1663861765805876500,10.79787646484375,0.3869166374206543,-9.730286598205566,-1.1585379838943481
1663861765815794700,10.807794677734375,0.3869497776031494,-9.730180740356445,-1.1594117879867554
1663861765825682200,10.81768212890625,0.3863023519515991,-9.729968070983887,-1.1614117622375488
1663861765835570000,10.82756982421875,0.3852348327636719,-9.729707717895508,-1.1639513969421387
1663861765845457700,10.837457763671875,0.38444867730140686,-9.729421615600586,-1.16659414768219
1663861765855345400,10.847345458984375,0.3837491273880005,-9.729192733764648,-1.1687273979187012
1663861765865202400,10.857202392578126,0.38289859890937805,-9.729063034057617,-1.1700881719589233
1663861765875090200,10.867090087890626,0.38287338614463806,-9.72896957397461,-1.1708790063858032
1663861765884978000,10.87697802734375,0.38335561752319336,-9.728851318359375,-1.171702265739441
1663861765894865700,10.88686572265625,0.3834769129753113,-9.728771209716797,-1.1723226308822632
1663861765904753400,10.89675341796875,0.38325977325439453,-9.728666305541992,-1.173264741897583
1663861765914641000,10.906640869140626,0.38340699672698975,-9.728468894958496,-1.1748460531234741
1663861765924528600,10.916528564453126,0.38300055265426636,-9.728275299072266,-1.1765854358673096
1663861765934386000,10.926385986328125,0.3822922706604004,-9.728045463562012,-1.1787095069885254
1663861765944273700,10.936273681640625,0.38155168294906616,-9.727864265441895,-1.1804503202438354
1663861765954161200,10.9461611328125,0.38129082322120667,-9.727629661560059,-1.1824665069580078
1663861765964049000,10.956048828125,0.3811148405075073,-9.727333068847656,-1.1849603652954102
1663861765973936600,10.9659365234375,0.3802978992462158,-9.72701644897461,-1.1878145933151245
1663861765983824400,10.975824462890625,0.37967073917388916,-9.72669506072998,-1.1906415224075317
1663861765993681400,10.985681396484376,0.37899622321128845,-9.726366996765137,-1.1935347318649292
1663861766003569200,10.995569091796876,0.37794652581214905,-9.726102828979492,-1.1960208415985107
1663861766013426400,11.005426513671875,0.3770985007286072,-9.725907325744629,-1.1978728771209717
1663861766023314200,11.015314208984375,0.3771456480026245,-9.725730895996094,-1.1992976665496826
1663861766033171200,11.025171142578126,0.3771178722381592,-9.725617408752441,-1.2002198696136475
1663861766043089400,11.03508935546875,0.3770284950733185,-9.72548770904541,-1.2013055086135864
1663861766052946700,11.04494677734375,0.376544326543808,-9.725380897521973,-1.2023200988769531
1663861766062804000,11.054803955078125,0.37577807903289795,-9.725237846374512,-1.2037149667739868
1663861766072722200,11.06472216796875,0.375031441450119,-9.724990844726562,-1.2059406042099
1663861766082579200,11.0745791015625,0.3738912045955658,-9.724766731262207,-1.2081048488616943
1663861766092497400,11.084497314453126,0.3729734420776367,-9.72452449798584,-1.2103322744369507
1663861766102385200,11.09438525390625,0.37268292903900146,-9.724343299865723,-1.21187424659729
1663861766112273000,11.10427294921875,0.37254348397254944,-9.724206924438477,-1.2130115032196045
1663861766122160600,11.11416064453125,0.3725055158138275,-9.72407341003418,-1.2140936851501465
1663861766132017700,11.124017578125,0.37247103452682495,-9.723933219909668,-1.2152241468429565
1663861766141875000,11.133875,0.3721754252910614,-9.723830223083496,-1.2161418199539185
1663861766151762700,11.1437626953125,0.3714160621166229,-9.723804473876953,-1.2165870666503906
1663861766161681000,11.153680908203125,0.37126344442367554,-9.723651885986328,-1.2178468704223633
1663861766171568400,11.163568359375,0.3709907531738281,-9.723478317260742,-1.219312071800232
1663861766181456100,11.1734560546875,0.3705270290374756,-9.723315238952637,-1.2207560539245605
1663861766191343900,11.18334375,0.3698066771030426,-9.723163604736328,-1.222183108329773
1663861766201231600,11.193231689453125,0.36889177560806274,-9.723027229309082,-1.2235422134399414
1663861766211119400,11.203119384765625,0.3676701784133911,-9.722914695739746,-1.2248038053512573
1663861766221006800,11.2130068359375,0.3668566346168518,-9.722813606262207,-1.2258481979370117
1663861766230864100,11.222864013671876,0.36637693643569946,-9.722701072692871,-1.2268887758255005
1663861766240751900,11.232751953125,0.365519255399704,-9.722697257995605,-1.2271714210510254
1663861766250639600,11.2426396484375,0.36497044563293457,-9.722630500793457,-1.2278608083724976
1663861766260527400,11.25252734375,0.3644707500934601,-9.722590446472168,-1.2283231019973755
1663861766270414800,11.262414794921876,0.36366721987724304,-9.72252082824707,-1.2291114330291748
1663861766280302600,11.272302490234376,0.3631448745727539,-9.722403526306152,-1.230201244354248
1663861766290190300,11.2821904296875,0.36220988631248474,-9.72231388092041,-1.2311774492263794
1663861766300047600,11.292047607421875,0.361154705286026,-9.72222900390625,-1.232157826423645
1663861766309935000,11.30193505859375,0.3602011799812317,-9.722137451171875,-1.233160376548767
1663861766319822800,11.31182275390625,0.35922858119010925,-9.722025871276855,-1.234326958656311
1663861766329680100,11.32168017578125,0.35853293538093567,-9.721920013427734,-1.2353668212890625
1663861766339567900,11.33156787109375,0.3579850494861603,-9.721830368041992,-1.236219882965088
1663861766349455400,11.341455322265626,0.3576793968677521,-9.721683502197266,-1.2374670505523682
1663861766359312600,11.351312744140625,0.3573623597621918,-9.721498489379883,-1.2390151023864746
1663861766369170000,11.361169921875,0.35690590739250183,-9.721217155456543,-1.241340160369873
1663861766379088100,11.371088134765625,0.3567713797092438,-9.720906257629395,-1.2438209056854248
1663861766388945200,11.380945068359376,0.3572162985801697,-9.72059440612793,-1.2461248636245728
1663861766398833000,11.3908330078125,0.3574816584587097,-9.72030258178711,-1.2483271360397339
1663861766408751000,11.400751220703125,0.3569682538509369,-9.72006893157959,-1.2502902746200562
1663861766418638800,11.410638916015625,0.3562384843826294,-9.719864845275879,-1.2520816326141357
1663861766428496000,11.420495849609376,0.3556523025035858,-9.71969985961914,-1.2535289525985718
1663861766438353200,11.430353271484375,0.35524219274520874,-9.719480514526367,-1.255346655845642
1663861766448271400,11.440271240234376,0.35500138998031616,-9.719261169433594,-1.2571091651916504
1663861766458128600,11.450128662109375,0.3547813594341278,-9.719040870666504,-1.2588729858398438
1663861766468016000,11.46001611328125,0.354971319437027,-9.718820571899414,-1.2605220079421997
1663861766477873400,11.469873291015626,0.35471010208129883,-9.71860408782959,-1.2622621059417725
1663861766487761200,11.47976123046875,0.3545401692390442,-9.718398094177246,-1.2638964653015137
1663861766497679400,11.489679443359375,0.35362982749938965,-9.718204498291016,-1.2656381130218506
1663861766507567000,11.499567138671875,0.35212159156799316,-9.71800708770752,-1.2675740718841553
1663861766517454800,11.509454833984375,0.3506971299648285,-9.717886924743652,-1.2688853740692139
1663861766527312000,11.519311767578126,0.3501399755477905,-9.717687606811523,-1.270566463470459
1663861766537199600,11.52919970703125,0.3501960039138794,-9.71740436553955,-1.2727210521697998
1663861766547087400,11.53908740234375,0.3499350845813751,-9.717161178588867,-1.2746468782424927
1663861766556975000,11.54897509765625,0.34982791543006897,-9.716911315917969,-1.2765787839889526
1663861766566862600,11.558862548828126,0.34890273213386536,-9.716565132141113,-1.27945876121521
1663861766576750300,11.568750244140626,0.34741687774658203,-9.716226577758789,-1.282423496246338
1663861766586607600,11.578607666015625,0.3460039496421814,-9.715922355651855,-1.2851121425628662
1663861766596495400,11.588495361328125,0.3442457914352417,-9.715643882751465,-1.287689208984375
1663861766606382800,11.5983828125,0.3424683213233948,-9.715458869934082,-1.2895594835281372
1663861766616270600,11.6082705078125,0.3410235345363617,-9.715359687805176,-1.2906922101974487
1663861766626158300,11.618158447265625,0.34029653668403625,-9.71528434753418,-1.2914464473724365
1663861766636046000,11.628046142578125,0.3397337794303894,-9.715242385864258,-1.2919142246246338
1663861766645933800,11.637933837890625,0.33880361914634705,-9.715237617492676,-1.2921868562698364
1663861766655821300,11.6478212890625,0.33792629837989807,-9.71516227722168,-1.2929813861846924
1663861766665709000,11.657708984375,0.3371048867702484,-9.71505069732666,-1.2940369844436646
1663861766675596800,11.6675966796875,0.3360256254673004,-9.714888572692871,-1.295543909072876
1663861766685484500,11.677484619140625,0.33491119742393494,-9.714638710021973,-1.297697901725769
1663861766695372300,11.687372314453125,0.33422309160232544,-9.714408874511719,-1.2995902299880981
1663861766705229300,11.697229248046876,0.3339874744415283,-9.714154243469238,-1.3015552759170532
1663861766715117000,11.707116943359376,0.33392924070358276,-9.713936805725098,-1.303188681602478
1663861766725004800,11.7170048828125,0.3333234488964081,-9.713772773742676,-1.3045637607574463
1663861766734892500,11.726892578125,0.3327098786830902,-9.713580131530762,-1.3061622381210327
1663861766744780300,11.7367802734375,0.3316991627216339,-9.713400840759277,-1.307744026184082
1663861766754667800,11.746667724609376,0.3307754397392273,-9.713258743286133,-1.3090319633483887
1663861766764525000,11.756525146484375,0.3302591145038605,-9.713118553161621,-1.3102161884307861
1663861766774412800,11.766412841796875,0.33034080266952515,-9.712958335876465,-1.311374545097351
1663861766784300500,11.776300537109375,0.3304353952407837,-9.712905883789062,-1.3117384910583496
1663861766794188000,11.78618798828125,0.3302080035209656,-9.71280288696289,-1.312553882598877
1663861766804075800,11.79607568359375,0.32997095584869385,-9.712679862976074,-1.3135278224945068
1663861766813963500,11.805963623046875,0.32956716418266296,-9.712514877319336,-1.3148467540740967
1663861766823820800,11.81582080078125,0.3287132978439331,-9.71235466003418,-1.3162510395050049
1663861766833708300,11.825708251953126,0.32781490683555603,-9.712220191955566,-1.317466378211975
1663861766843596000,11.835595947265626,0.3273242712020874,-9.712099075317383,-1.3184760808944702
1663861766853453300,11.845453369140625,0.32684987783432007,-9.712018013000488,-1.3191962242126465
1663861766863341000,11.855341064453125,0.3265368938446045,-9.711922645568848,-1.3199653625488281
1663861766873198000,11.865197998046876,0.32629671692848206,-9.711814880371094,-1.3208240270614624
1663861766883116300,11.8751162109375,0.32568418979644775,-9.711671829223633,-1.3220181465148926
1663861766892973600,11.8849736328125,0.32507839798927307,-9.711503028869629,-1.3234139680862427
1663861766902861300,11.894861328125,0.32410928606987,-9.711343765258789,-1.3248167037963867
1663861766912748800,11.904748779296876,0.3233194351196289,-9.711185455322266,-1.3261725902557373
1663861766922606000,11.914606201171875,0.32300612330436707,-9.711067199707031,-1.327115535736084
1663861766932493800,11.924493896484375,0.32270270586013794,-9.71102523803711,-1.3274940252304077
1663861766942381600,11.934381591796875,0.32269516587257385,-9.710987091064453,-1.327776551246643
1663861766952238600,11.944238525390626,0.3219754099845886,-9.710926055908203,-1.3283976316452026
1663861766962126300,11.954126220703126,0.3222822844982147,-9.710800170898438,-1.329243779182434
1663861766972044500,11.96404443359375,0.32313302159309387,-9.710701942443848,-1.3297580480575562
1663861766981901800,11.97390185546875,0.3233484625816345,-9.71056842803955,-1.3306654691696167
1663861766991820000,11.983820068359375,0.3235265612602234,-9.710343360900879,-1.3322679996490479
1663861767001707800,11.993707763671875,0.32346150279045105,-9.710138320922852,-1.3337821960449219
1663861767011595300,12.00359521484375,0.32387879490852356,-9.70997142791748,-1.3348932266235352
1663861767021483000,12.01348291015625,0.3239806890487671,-9.709779739379883,-1.3362613916397095
1663861767031370800,12.023370849609375,0.32388392090797424,-9.70961856842041,-1.337459921836853
1663861767041258500,12.033258544921875,0.32391321659088135,-9.709416389465332,-1.3389207124710083
1663861767051146200,12.043146240234375,0.3239779472351074,-9.709214210510254,-1.3403656482696533
1663861767061003300,12.053003173828126,0.3243872821331024,-9.709010124206543,-1.3417423963546753
1663861767070891000,12.06289111328125,0.324828565120697,-9.70877456665039,-1.343344807624817
1663861767080778800,12.07277880859375,0.3251924514770508,-9.708544731140137,-1.344915509223938
1663861767090666500,12.08266650390625,0.32542845606803894,-9.708316802978516,-1.3465014696121216
1663861767100554000,12.092553955078126,0.32561933994293213,-9.708108901977539,-1.3479515314102173
1663861767110441700,12.102441650390626,0.3263096809387207,-9.707898139953613,-1.3493074178695679
1663861767120299000,12.112299072265625,0.32669347524642944,-9.70766544342041,-1.3508836030960083
1663861767130186800,12.122186767578125,0.327291339635849,-9.707356452941895,-1.3529585599899292
1663861767140074200,12.13207421875,0.3280698359012604,-9.707050323486328,-1.3549638986587524
1663861767149962000,12.1419619140625,0.32922208309173584,-9.70669174194336,-1.3572516441345215
1663861767159849700,12.151849609375,0.32968759536743164,-9.706374168395996,-1.359410285949707
1663861767169737500,12.161737548828125,0.330306738615036,-9.706090927124023,-1.3612842559814453
1663861767179594500,12.171594482421876,0.33064454793930054,-9.7059326171875,-1.3623226881027222
1663861767189451800,12.18145166015625,0.331147164106369,-9.705860137939453,-1.3627195358276367
1663861767199339500,12.191339599609375,0.3321458101272583,-9.705793380737305,-1.3629542589187622
1663861767209227300,12.201227294921875,0.3332817256450653,-9.705765724182129,-1.362868070602417
1663861767219115000,12.211114990234375,0.3341081738471985,-9.705708503723145,-1.363081693649292
1663861767229002500,12.22100244140625,0.33472806215286255,-9.705561637878418,-1.3639707565307617
1663861767238890200,12.23089013671875,0.33526402711868286,-9.705339431762695,-1.3654266595840454
1663861767248778000,12.240778076171875,0.3358510434627533,-9.70505428314209,-1.3672987222671509
1663861767258665700,12.250665771484375,0.3360636532306671,-9.704813957214355,-1.3689473867416382
1663861767268553500,12.260553466796875,0.3359699249267578,-9.704569816589355,-1.370707631111145
1663861767278441000,12.27044091796875,0.33599531650543213,-9.704347610473633,-1.372271180152893
1663861767288328700,12.28032861328125,0.3362288773059845,-9.704246520996094,-1.3729345798492432
1663861767298186000,12.29018603515625,0.3370527923107147,-9.704163551330566,-1.3733137845993042
1663861767308073700,12.30007373046875,0.3387031853199005,-9.704075813293457,-1.3735259771347046
1663861767317930800,12.3099306640625,0.34039872884750366,-9.70396900177002,-1.3738608360290527
1663861767327818500,12.319818603515625,0.3415411114692688,-9.703829765319824,-1.3745616674423218
1663861767337706200,12.329706298828125,0.3425528407096863,-9.703635215759277,-1.375679612159729
1663861767347594000,12.339593994140625,0.3432025909423828,-9.703428268432617,-1.3769809007644653
1663861767357481500,12.3494814453125,0.34352296590805054,-9.703255653381348,-1.3781229257583618
1663861767367338800,12.3593388671875,0.3440481126308441,-9.703084945678711,-1.3791851997375488
1663861767377226500,12.3692265625,0.3446252644062042,-9.702927589416504,-1.3801460266113281
1663861767387114200,12.3791142578125,0.34577950835227966,-9.7028226852417,-1.3805997371673584
1663861767396971300,12.38897119140625,0.3474605977535248,-9.702692985534668,-1.3810828924179077
1663861767406889500,12.398889404296876,0.3485603928565979,-9.702484130859375,-1.3822834491729736
1663861767416777200,12.408777099609376,0.3498271703720093,-9.702219009399414,-1.3838216066360474
1663861767426665000,12.4186650390625,0.3508647680282593,-9.701970100402832,-1.385305643081665
1663861767436522000,12.42852197265625,0.3516788184642792,-9.701698303222656,-1.3869966268539429
1663861767446409700,12.43840966796875,0.3522713780403137,-9.701409339904785,-1.388863205909729
1663861767456297500,12.44829736328125,0.3528291583061218,-9.701093673706055,-1.3909302949905396
1663861767466185200,12.458185302734375,0.3534148931503296,-9.700830459594727,-1.3926094770431519
1663861767476073000,12.468072998046875,0.3540533781051636,-9.700572967529297,-1.394247055053711
1663861767485930000,12.477929931640626,0.3544255793094635,-9.700268745422363,-1.3962647914886475
1663861767495817700,12.487817626953126,0.35430726408958435,-9.700017929077148,-1.3980393409729004
1663861767505705500,12.49770556640625,0.35456785559654236,-9.69973087310791,-1.399960994720459
1663861767515593200,12.50759326171875,0.35454878211021423,-9.699522972106934,-1.4014039039611816
1663861767525481000,12.51748095703125,0.3538060188293457,-9.699362754821777,-1.4027045965194702
1663861767535368400,12.527368408203126,0.35365593433380127,-9.699142456054688,-1.404259443283081
1663861767545256200,12.537256103515626,0.35352563858032227,-9.698994636535645,-1.4053165912628174
1663861767555113500,12.547113525390625,0.35352545976638794,-9.698912620544434,-1.4058797359466553
1663861767564970500,12.556970458984376,0.35416367650032043,-9.698814392089844,-1.4063966274261475
1663861767574888700,12.566888671875,0.3547360897064209,-9.698649406433105,-1.4073913097381592
1663861767584746000,12.57674609375,0.35461002588272095,-9.698494911193848,-1.4084852933883667
1663861767594633700,12.5866337890625,0.35467055439949036,-9.698410034179688,-1.409056305885315
1663861767604521500,12.596521484375,0.3549720048904419,-9.698342323303223,-1.4094475507736206
1663861767614409000,12.606408935546876,0.3552721440792084,-9.698281288146973,-1.4097890853881836
1663861767624296700,12.616296630859376,0.3557397425174713,-9.698162078857422,-1.4104872941970825
1663861767634154000,12.626154052734375,0.3561730682849884,-9.698054313659668,-1.4111244678497314
1663861767644072200,12.636072265625,0.35629600286483765,-9.697958946228027,-1.4117493629455566
1663861767653960000,12.6459599609375,0.35615211725234985,-9.697834968566895,-1.4126375913619995
1663861767663847400,12.655847412109376,0.35613399744033813,-9.697728157043457,-1.413373589515686
1663861767673753000,12.665753173828126,0.35606610774993896,-9.697649002075195,-1.4139342308044434
1663861767683640600,12.675640625,0.35622480511665344,-9.697609901428223,-1.4141654968261719
1663861767693528300,12.6855283203125,0.3567519783973694,-9.697612762451172,-1.414009690284729
1663861767703416000,12.695416015625,0.35694795846939087,-9.697578430175781,-1.4141912460327148
1663861767713273300,12.7052734375,0.3564673960208893,-9.697587966918945,-1.4142520427703857
1663861767723160800,12.715160888671875,0.35662388801574707,-9.697541236877441,-1.4145280122756958
1663861767733048600,12.725048583984375,0.3564147353172302,-9.697454452514648,-1.4151777029037476
1663861767742936300,12.734936279296875,0.3568279445171356,-9.697357177734375,-1.4157443046569824
1663861767752793600,12.744793701171876,0.357521116733551,-9.697237014770508,-1.4163931608200073
1663861767762681000,12.75468115234375,0.3584221601486206,-9.697077751159668,-1.4172451496124268
1663861767772538400,12.764538330078125,0.35894501209259033,-9.696924209594727,-1.4181710481643677
1663861767782426000,12.774426025390625,0.3596329987049103,-9.696828842163086,-1.4186530113220215
1663861767792283100,12.784283203125,0.3605406880378723,-9.696687698364258,-1.4193806648254395
1663861767802201300,12.794201416015625,0.36162102222442627,-9.696545600891113,-1.420077919960022
1663861767812058600,12.80405859375,0.36278632283210754,-9.696368217468262,-1.420988917350769
1663861767821976800,12.813976806640625,0.36379316449165344,-9.696219444274902,-1.4217532873153687
1663861767831834000,12.823834228515626,0.3646308481693268,-9.6961030960083,-1.4223288297653198
