time,seconds_elapsed,z,y,x
1663861755271063600,0.2630634765625,-0.0599212646484375,0.0244598388671875,-0.22412109375
1663861755280951300,0.272951416015625,-0.031158447265625,-0.312164306640625,-0.1569976806640625
1663861755290839000,0.282839111328125,-0.10040283203125,-0.596588134765625,-0.0909576416015625
1663861755300696300,0.2926962890625,-0.22503662109375,-0.744659423828125,-0.0131988525390625
1663861755310583800,0.302583740234375,-0.3677825927734375,-0.8884735107421875,0.0699005126953125
1663861755320471600,0.312471435546875,-0.52117919921875,-1.111114501953125,0.1391448974609375
1663861755330359300,0.322359375,-0.68841552734375,-1.3422698974609375,0.1966705322265625
1663861755340277500,0.332277587890625,-0.851409912109375,-1.461578369140625,0.22222900390625
1663861755350165200,0.342165283203125,-0.95367431640625,-1.3859405517578125,0.2169036865234375
1663861755360053000,0.352052978515625,-0.8769683837890625,-1.0333404541015625,0.21051025390625
1663861755369910000,0.361909912109375,-0.48602294921875,-0.3856658935546875,0.213714599609375
1663861755379797800,0.3717978515625,-0.0098419189453125,0.0937042236328125,0.1050567626953125
1663861755389655000,0.381655029296875,0.185089111328125,0.099029541015625,-0.1048126220703125
1663861755399542800,0.391542724609375,0.0924224853515625,-0.0746002197265625,-0.20068359375
1663861755409430300,0.40143017578125,-0.07696533203125,-0.220550537109375,-0.094146728515625
1663861755419318000,0.411318115234375,-0.1941375732421875,-0.4442596435546875,0.13275146484375
1663861755429175300,0.42117529296875,-0.187744140625,-0.6988525390625,0.4097137451171875
1663861755439063000,0.43106298828125,-0.05352783203125,-0.8618316650390625,0.6504669189453125
1663861755448981200,0.440981201171875,0.11798095703125,-0.960906982421875,0.8070526123046875
1663861755458838300,0.45083837890625,0.196807861328125,-1.050384521484375,0.860321044921875
1663861755468726000,0.46072607421875,0.1499481201171875,-1.0717010498046875,0.816650390625
1663861755478583300,0.470583251953125,0.0242462158203125,-0.8756866455078125,0.6866912841796875
1663861755488470800,0.480470703125,-0.1046600341796875,-0.5891265869140625,0.5162353515625
1663861755498389000,0.490388916015625,-0.15472412109375,-0.4399871826171875,0.3969268798828125
1663861755508276700,0.50027685546875,-0.0705718994140625,-0.4218902587890625,0.392669677734375
1663861755518164500,0.51016455078125,0.0785675048828125,-0.4559783935546875,0.462982177734375
1663861755528052200,0.52005224609375,0.1744384765625,-0.5135040283203125,0.531158447265625
1663861755537940000,0.52993994140625,0.177642822265625,-0.4900665283203125,0.54180908203125
1663861755547827700,0.53982763671875,0.1105194091796875,-0.3675537109375,0.4693756103515625
1663861755557715200,0.549715087890625,0.017852783203125,-0.2386627197265625,0.322357177734375
1663861755567603000,0.55960302734375,-0.0332794189453125,-0.062896728515625,0.1348724365234375
1663861755577490700,0.56949072265625,-0.017303466796875,0.1064910888671875,-0.039825439453125
1663861755587317200,0.579317138671875,0.041290283203125,0.1661376953125,-0.15380859375
1663861755597205000,0.589205078125,0.0796356201171875,0.1373748779296875,-0.2187957763671875
1663861755607092700,0.5990927734375,0.04022216796875,0.05535888671875,-0.2198486328125
1663861755616980500,0.60898046875,-0.0354156494140625,-0.035186767578125,-0.11865234375
1663861755626868200,0.6188681640625,-0.0354156494140625,-0.0746002197265625,0.0219573974609375
1663861755636755700,0.628755615234375,0.0572662353515625,-0.070343017578125,0.0997314453125
1663861755646643500,0.6386435546875,0.1563262939453125,-0.03839111328125,0.073089599609375
1663861755656531200,0.64853125,0.21173095703125,-0.0117645263671875,-0.004669189453125
1663861755666419000,0.6584189453125,0.245819091796875,-0.049041748046875,-0.0440826416015625
1663861755676306700,0.668306640625,0.2447509765625,-0.172607421875,-0.0142669677734375
1663861755686194200,0.678194091796875,0.1925506591796875,-0.331329345703125,0.0464630126953125
1663861755696051500,0.688051513671875,0.1371612548828125,-0.33453369140625,0.0784149169921875
1663861755705908700,0.69790869140625,0.0998687744140625,-0.1907196044921875,0.028350830078125
1663861755715765800,0.707765869140625,0.1243743896484375,-0.0128173828125,-0.072845458984375
1663861755725684000,0.71768408203125,0.185089111328125,0.1512298583984375,-0.1569976806640625
1663861755735571700,0.72757177734375,0.2298431396484375,0.1757354736328125,-0.1708526611328125
1663861755745459500,0.73745947265625,0.2522125244140625,0.0585479736328125,-0.1005401611328125
1663861755755316500,0.74731640625,0.27777099609375,-0.1001739501953125,0.0123748779296875
1663861755765173800,0.757173828125,0.3768463134765625,-0.220550537109375,0.0571136474609375
1663861755775092000,0.767092041015625,0.463134765625,-0.20989990234375,-0.0004119873046875
1663861755784949200,0.77694921875,0.4343719482421875,-0.05755615234375,-0.06219482421875
1663861755794867500,0.786867431640625,0.37896728515625,0.110748291015625,-0.0888214111328125
1663861755804755200,0.796755126953125,0.3640594482421875,0.157623291015625,-0.0909576416015625
1663861755814642700,0.806642578125,0.3640594482421875,0.0489654541015625,-0.06219482421875
1663861755824530400,0.816530517578125,0.3512725830078125,-0.10443115234375,0.0208892822265625
1663861755834418200,0.826418212890625,0.333160400390625,-0.2237396240234375,0.143402099609375
1663861755844306000,0.836305908203125,0.3267822265625,-0.3196258544921875,0.25738525390625
1663861755854163000,0.846162841796875,0.3416900634765625,-0.3878021240234375,0.334075927734375
1663861755864050700,0.85605078125,0.3747100830078125,-0.45703125,0.369232177734375
1663861755873938400,0.8659384765625,0.438629150390625,-0.5550384521484375,0.4150390625
1663861755883826200,0.875826171875,0.5259857177734375,-0.688201904296875,0.4853515625
1663861755893713700,0.885713623046875,0.5781707763671875,-0.8160247802734375,0.531158447265625
1663861755903601400,0.895601318359375,0.5440826416015625,-0.890594482421875,0.5269012451171875
1663861755913489200,0.9054892578125,0.429046630859375,-0.8746185302734375,0.4555206298828125
1663861755923377000,0.915376953125,0.31292724609375,-0.756378173828125,0.3170318603515625
1663861755933234000,0.92523388671875,0.2841644287109375,-0.5774078369140625,0.13275146484375
1663861755943121700,0.93512158203125,0.3512725830078125,-0.4293365478515625,-0.0366363525390625
1663861755953009400,0.945009521484375,0.4450225830078125,-0.3856658935546875,-0.1495513916015625
1663861755962897200,0.954897216796875,0.5004119873046875,-0.4495849609375,-0.185760498046875
1663861755972785000,0.964784912109375,0.5014801025390625,-0.55078125,-0.1591339111328125
1663861755982672400,0.97467236328125,0.4524688720703125,-0.629608154296875,-0.105865478515625
1663861755992529700,0.98452978515625,0.3651275634765625,-0.6040496826171875,-0.06219482421875
1663861756002417400,0.99441748046875,0.275634765625,-0.4964447021484375,-0.0451507568359375
1663861756012305200,1.00430517578125,0.2159881591796875,-0.399505615234375,-0.0472869873046875
1663861756022192600,1.014192626953125,0.1925506591796875,-0.3739471435546875,-0.0526123046875
1663861756032080400,1.024080322265625,0.1840362548828125,-0.4517059326171875,-0.0462188720703125
1663861756041968000,1.033968017578125,0.1680450439453125,-0.559295654296875,-0.0366363525390625
1663861756051825400,1.043825439453125,0.1446075439453125,-0.582733154296875,-0.0579376220703125
1663861756061682400,1.053682373046875,0.1435546875,-0.5422515869140625,-0.086700439453125
1663861756071570200,1.063570068359375,0.1701812744140625,-0.5220184326171875,-0.09521484375
1663861756081458000,1.0734580078125,0.201080322265625,-0.514556884765625,-0.098419189453125
1663861756091345700,1.083345703125,0.2287750244140625,-0.52947998046875,-0.1026763916015625
1663861756101202700,1.09320263671875,0.2511444091796875,-0.59552001953125,-0.1122589111328125
1663861756111090400,1.10309033203125,0.2681884765625,-0.688201904296875,-0.131439208984375
1663861756120978200,1.112978271484375,0.2980194091796875,-0.82562255859375,-0.1474151611328125
1663861756130866000,1.122865966796875,0.344879150390625,-0.998199462890625,-0.145294189453125
1663861756140753700,1.132753662109375,0.3960113525390625,-1.1238861083984375,-0.110137939453125
1663861756150641200,1.14264111328125,0.4450225830078125,-1.1590423583984375,-0.0291748046875
1663861756160529000,1.15252880859375,0.485504150390625,-1.1175079345703125,0.0933380126953125
1663861756170416600,1.162416748046875,0.518524169921875,-1.1025848388671875,0.2435302734375
1663861756180274000,1.17227392578125,0.5408935546875,-1.186737060546875,0.3884124755859375
1663861756190131000,1.182130859375,0.5696563720703125,-1.3646392822265625,0.4970703125
1663861756200018700,1.192018798828125,0.6346435546875,-1.5159149169921875,0.5492706298828125
1663861756209906400,1.201906494140625,0.767791748046875,-1.62030029296875,0.5673675537109375
1663861756219824600,1.21182470703125,0.9925689697265625,-1.7896881103515625,0.5918731689453125
1663861756229712400,1.22171240234375,1.270599365234375,-2.065582275390625,0.6685791015625
1663861756239569400,1.2315693359375,1.5134735107421875,-2.4490814208984375,0.816650390625
1663861756249457200,1.24145703125,1.671142578125,-2.854949951171875,1.022247314453125
1663861756259314400,1.251314453125,1.7915191650390625,-3.289581298828125,1.281097412109375
1663861756269232600,1.261232666015625,1.9704742431640625,-3.8126220703125,1.6092071533203125
1663861756279089700,1.271089599609375,2.181396484375,-4.279205322265625,2.011871337890625
1663861756288977400,1.280977294921875,2.39019775390625,-4.5828094482421875,2.446502685546875
1663861756298865200,1.290865234375,2.6138916015625,-4.7511138916015625,2.8832550048828125
1663861756308753000,1.3007529296875,2.86529541015625,-4.7404632568359375,3.276336669921875
1663861756318640400,1.310640380859375,3.20831298828125,-4.6371307373046875,3.57354736328125
1663861756328528100,1.320528076171875,3.6781005859375,-4.58599853515625,3.75677490234375
1663861756338385400,1.330385498046875,4.2320404052734375,-4.6158294677734375,3.8185577392578125
1663861756348273200,1.340273193359375,4.666656494140625,-5.0025177001953125,3.47235107421875
1663861756358161000,1.350160888671875,4.8669281005859375,-5.5383453369140625,2.592437744140625
1663861756368048400,1.36004833984375,5.1311187744140625,-5.5276947021484375,2.035308837890625
1663861756377936100,1.36993603515625,5.637115478515625,-5.03021240234375,2.0981597900390625
1663861756387823900,1.379823974609375,6.1569671630859375,-4.3622894287109375,2.2472991943359375
1663861756397681200,1.38968115234375,6.449920654296875,-3.86907958984375,2.183380126953125
1663861756407568600,1.399568603515625,6.5692291259765625,-3.6933135986328125,1.9831085205078125
1663861756417456400,1.409456298828125,6.675750732421875,-3.7252655029296875,1.8765869140625
1663861756427344100,1.41934423828125,6.8153076171875,-3.855224609375,1.9820404052734375
1663861756437231900,1.42923193359375,6.77587890625,-4.008636474609375,2.1993560791015625
1663861756447119600,1.43911962890625,6.4999847412109375,-3.973480224609375,2.390045166015625
1663861756457007000,1.449007080078125,6.15057373046875,-3.665618896484375,2.502960205078125
1663861756466894800,1.458894775390625,5.7372589111328125,-3.162811279296875,2.493377685546875
1663861756476782600,1.468782470703125,5.23870849609375,-2.57904052734375,2.3516998291015625
1663861756486639900,1.478639892578125,4.7689208984375,-2.0144500732421875,2.1844482421875
1663861756496497000,1.488496826171875,4.4003448486328125,-1.5723724365234375,2.0555419921875
1663861756506415000,1.4984150390625,4.0594635009765625,-1.06103515625,1.9831085205078125
1663861756516302800,1.508302734375,3.6024627685546875,-0.4336090087890625,1.877655029296875
1663861756526160100,1.51816015625,2.9079132080078125,0.05322265625,1.6187896728515625
1663861756536047600,1.528047607421875,2.0844573974609375,0.4931793212890625,1.1830902099609375
1663861756545905000,1.53790478515625,1.327056884765625,1.1131591796875,0.6163787841796875
1663861756555823000,1.547822998046875,0.73583984375,1.788543701171875,-0.0131988525390625
1663861756565710800,1.5577109375,0.2724456787109375,2.3201141357421875,-0.612945556640625
1663861756575598600,1.5675986328125,-0.1046600341796875,2.6002655029296875,-1.055023193359375
1663861756585486300,1.577486328125,-0.362457275390625,2.6237030029296875,-1.257415771484375
1663861756595373800,1.587373779296875,-0.4593963623046875,2.4500732421875,-1.21588134765625
1663861756605261600,1.597261474609375,-0.3528594970703125,2.172027587890625,-1.07952880859375
1663861756615149300,1.6071494140625,-0.2079925537109375,1.7704315185546875,-0.928253173828125
1663861756625037000,1.617037109375,-0.064178466796875,1.2473907470703125,-0.6619415283203125
1663861756634924800,1.6269248046875,0.0114593505859375,0.68280029296875,-0.258209228515625
1663861756644781800,1.63678173828125,-0.0279541015625,0.1746673583984375,0.2318115234375
1663861756654669600,1.646669677734375,-0.1632537841796875,-0.267425537109375,0.7090606689453125
1663861756664557300,1.656557373046875,-0.346466064453125,-0.655181884765625,1.057403564453125
1663861756674445000,1.666445068359375,-0.4934844970703125,-0.811767578125,1.2896270751953125
1663861756684332500,1.67633251953125,-0.6309051513671875,-0.66583251953125,1.4281158447265625
1663861756694220300,1.68622021484375,-0.814117431640625,-0.537994384765625,1.3471527099609375
1663861756704077600,1.69607763671875,-1.099609375,-0.5348052978515625,1.0968170166015625
1663861756713965300,1.70596533203125,-1.4053497314453125,-0.4975128173828125,0.87310791015625
1663861756723852800,1.715852783203125,-1.5864410400390625,-0.336669921875,0.80279541015625
1663861756733740500,1.725740478515625,-1.6759185791015625,-0.266357421875,0.8187713623046875
1663861756743628300,1.735628173828125,-1.68231201171875,-0.5081634521484375,0.828369140625
1663861756753516000,1.74551611328125,-1.570465087890625,-0.9992523193359375,0.8240966796875
1663861756763373000,1.755373046875,-1.34356689453125,-1.369964599609375,0.8411407470703125
1663861756773260800,1.7652607421875,-1.022918701171875,-1.757720947265625,0.6611175537109375
1663861756783148500,1.7751484375,-0.7097320556640625,-2.0133819580078125,0.199859619140625
1663861756793036300,1.785036376953125,-0.3986663818359375,-1.8099212646484375,-0.361541748046875
1663861756802924000,1.794924072265625,-0.0556488037109375,-1.5009918212890625,-0.7737884521484375
1663861756812781000,1.804781005859375,0.3043975830078125,-1.1143035888671875,-0.881378173828125
1663861756822668800,1.814668701171875,0.7528839111328125,-0.6381378173828125,-1.0379791259765625
1663861756832556500,1.824556640625,0.835968017578125,-0.1768798828125,-1.2180023193359375
1663861756842444300,1.8344443359375,1.3227996826171875,-0.1822052001953125,-0.815338134765625
1663861756852332000,1.84433203125,1.350494384765625,-0.5102996826171875,0.188140869140625
1663861756862219500,1.854219482421875,0.7880401611328125,-1.2538604736328125,0.3106536865234375
1663861756872107300,1.864107177734375,0.8327789306640625,-1.6288299560546875,0.2435302734375
1663861756881964500,1.873964599609375,0.9329071044921875,-1.0567779541015625,0.0464630126953125
1663861756891821600,1.883821533203125,1.0160064697265625,-0.3441162109375,-0.379638671875
1663861756901709300,1.893709228515625,0.9904327392578125,0.044708251953125,-0.7386322021484375
1663861756911597000,1.90359716796875,0.7848358154296875,0.3099517822265625,-0.7727203369140625
1663861756921484800,1.91348486328125,0.6974945068359375,0.5560302734375,-0.9463653564453125
1663861756931372500,1.92337255859375,1.0511474609375,0.86602783203125,-0.9293212890625
1663861756941260000,1.933260009765625,1.5379791259765625,0.968292236328125,-0.6523590087890625
1663861756951147800,1.943147705078125,1.7755279541015625,0.6050262451171875,-0.26885986328125
1663861756961035500,1.953035400390625,2.0716705322265625,0.42926025390625,-0.2507476806640625
1663861756970923300,1.96292333984375,2.5073699951171875,0.6519012451171875,-0.37005615234375
1663861756980811000,1.97281103515625,2.708709716796875,0.45269775390625,-0.29974365234375
1663861756990698500,1.982698486328125,2.4349365234375,0.1949005126953125,0.0464630126953125
1663861757000555800,1.9925556640625,2.09405517578125,-0.09271240234375,0.281890869140625
1663861757010443500,2.002443603515625,1.77447509765625,-0.5209503173828125,0.303192138671875
1663861757020331300,2.012331298828125,1.8543701171875,-0.789398193359375,0.1370086669921875
1663861757030218800,2.02221875,2.3475799560546875,-0.631744384765625,0.1007843017578125
1663861757040106500,2.0321064453125,2.9803466796875,-0.368621826171875,0.4342193603515625
1663861757049963800,2.0419638671875,4.0338897705078125,-0.68927001953125,0.987091064453125
1663861757059851500,2.0518515625,4.873321533203125,-1.18994140625,1.532501220703125
1663861757069739300,2.0617392578125,4.1766357421875,-2.43096923828125,1.40679931640625
1663861757079626800,2.071626708984375,2.4700927734375,-3.1340484619140625,0.816650390625
1663861757089514500,2.081514404296875,0.7283782958984375,-1.6533355712890625,0.394805908203125
1663861757099402200,2.09140234375,-0.0215606689453125,-0.2386627197265625,0.1455230712890625
1663861757109259500,2.101259521484375,0.287353515625,-0.023468017578125,-0.1484832763671875
1663861757119147000,2.11114697265625,0.5526123046875,0.1384429931640625,-0.277374267578125
1663861757129034800,2.12103466796875,0.440765380859375,0.5613555908203125,-0.13037109375
1663861757138922500,2.130922607421875,0.3416900634765625,1.0268707275390625,0.0656280517578125
1663861757148810200,2.140810302734375,0.382171630859375,0.8212738037109375,-0.0590057373046875
1663861757158667300,2.150667236328125,0.083892822265625,0.4239349365234375,-0.030242919921875
1663861757168524500,2.160524658203125,-0.0673675537109375,0.14483642578125,0.117828369140625
1663861757178412300,2.170412353515625,0.0700531005859375,-0.1917877197265625,0.3564453125
1663861757188300000,2.180300048828125,0.39495849609375,-0.1790008544921875,0.5130462646484375
1663861757198187500,2.1901875,0.826385498046875,0.12353515625,0.4896087646484375
1663861757208075300,2.2000751953125,1.272735595703125,0.19171142578125,0.6057281494140625
1663861757217963000,2.209962890625,1.3558197021484375,-0.378204345703125,0.6217041015625
1663861757227850800,2.219850830078125,1.0373077392578125,-1.097259521484375,0.4246368408203125
1663861757237707800,2.229707763671875,0.746490478515625,-1.4210968017578125,0.2318115234375
1663861757247565000,2.23956494140625,0.3310394287109375,-1.0940704345703125,0.3330230712890625
1663861757257483300,2.249483154296875,-0.005584716796875,-0.947052001953125,0.4544525146484375
1663861757267371000,2.25937109375,-0.1579132080078125,-1.26983642578125,0.3447418212890625
1663861757277258800,2.2692587890625,-0.2761688232421875,-1.5755615234375,0.3734893798828125
1663861757287146200,2.279146240234375,-0.40399169921875,-1.7055206298828125,0.4768218994140625
1663861757297003500,2.28900341796875,0.0210418701171875,-1.6224365234375,0.291473388671875
1663861757306891300,2.298891357421875,0.8061370849609375,-1.1164398193359375,0.5822906494140625
1663861757316779000,2.308779052734375,0.7496795654296875,-0.584869384765625,0.940216064453125
1663861757326666800,2.318666748046875,0.506805419921875,-0.5337371826171875,0.4203643798828125
1663861757336554200,2.32855419921875,0.382171630859375,-0.2056427001953125,0.0784149169921875
1663861757346442000,2.33844189453125,0.641021728515625,0.1043548583984375,0.154052734375
1663861757356299300,2.34829931640625,0.929718017578125,-0.093780517578125,0.084808349609375
1663861757366156300,2.35815625,1.2397003173828125,-0.222686767578125,-0.03875732421875
1663861757376074500,2.368074462890625,1.6200103759765625,-0.8522491455078125,-0.439300537109375
1663861757385962200,2.377962158203125,1.7648773193359375,-1.4796905517578125,-0.3860321044921875
1663861757395819500,2.387819580078125,1.9853973388671875,-1.69061279296875,0.1583099365234375
1663861757405707300,2.397707275390625,2.6447906494140625,-2.9359130859375,0.961517333984375
1663861757415594800,2.4075947265625,3.2242889404296875,-6.079498291015625,2.2355804443359375
1663861757425482500,2.417482421875,3.64080810546875,-7.4909820556640625,2.7277374267578125
1663861757435370200,2.427370361328125,3.7388153076171875,-5.832366943359375,2.035308837890625
1663861757445227500,2.4372275390625,3.2700958251953125,-2.943359375,1.3087921142578125
1663861757455145700,2.447145751953125,2.4530487060546875,-0.6328125,1.043548583984375
1663861757465033200,2.457033203125,1.8330535888671875,0.6423187255859375,0.893341064453125
1663861757474921000,2.4669208984375,1.86181640625,0.7999725341796875,0.7271575927734375
1663861757484778200,2.4767783203125,1.92041015625,0.5389862060546875,0.6802978515625
1663861757494635300,2.48663525390625,2.057830810546875,0.55816650390625,0.7729644775390625
1663861757504523000,2.49652294921875,2.26129150390625,-0.0192108154296875,1.05206298828125
1663861757514441200,2.506441162109375,2.0865936279296875,-1.188873291015625,1.2672576904296875
1663861757524329000,2.516328857421875,1.909759521484375,-2.06451416015625,1.304534912109375
1663861757534216700,2.526216796875,1.806427001953125,-2.297821044921875,1.4355621337890625
1663861757544104400,2.5361044921875,1.7190704345703125,-1.917510986328125,1.6219940185546875
1663861757553992200,2.5459921875,1.6210784912109375,-0.9918060302734375,1.476043701171875
1663861757563879700,2.555879638671875,1.7233428955078125,-0.2972412109375,1.15753173828125
1663861757573737000,2.565737060546875,1.736114501953125,-0.1811370849609375,1.0733795166015625
1663861757583594200,2.57559423828125,1.578460693359375,-0.2706146240234375,1.0723114013671875
1663861757593451300,2.585451171875,1.3899078369140625,-0.310028076171875,0.8944091796875
1663861757603369500,2.595369384765625,1.338775634765625,-0.36541748046875,0.7165069580078125
1663861757613257200,2.60525732421875,1.4932403564453125,-0.5348052978515625,0.37030029296875
1663861757623145000,2.61514501953125,1.4793853759765625,-0.7830047607421875,0.082672119140625
1663861757633032700,2.62503271484375,0.9936370849609375,-0.6913909912109375,0.5567169189453125
1663861757642920200,2.634920166015625,0.31292724609375,-0.29937744140625,0.99560546875
1663861757652808000,2.644807861328125,-0.2410125732421875,0.1725311279296875,0.8986663818359375
1663861757662695700,2.65469580078125,-0.405059814453125,0.22259521484375,0.657928466796875
1663861757672575500,2.664575439453125,-0.2751007080078125,-0.0213470458984375,0.2786865234375
1663861757682432800,2.674432861328125,-0.118499755859375,-0.206695556640625,-0.121856689453125
1663861757692290000,2.6842900390625,-0.120635986328125,-0.2237396240234375,-0.40521240234375
1663861757702177500,2.694177490234375,-0.245269775390625,-0.0991058349609375,-0.5703277587890625
1663861757712065300,2.704065185546875,-0.3656463623046875,0.1863861083984375,-0.7045440673828125
1663861757721922600,2.713922607421875,-0.4412841796875,0.5027618408203125,-0.8345184326171875
1663861757731840800,2.7238408203125,-0.4178466796875,0.5677490234375,-0.9602203369140625
1663861757741728500,2.733728515625,-0.200531005859375,0.364288330078125,-1.0507659912109375
1663861757751616000,2.743615966796875,0.0551300048828125,-0.10443115234375,-0.94317626953125
1663861757761503700,2.753503662109375,0.142486572265625,-0.45916748046875,-0.599090576171875
1663861757771391500,2.7633916015625,0.062591552734375,-0.37713623046875,-0.220916748046875
1663861757781279200,2.773279296875,-0.0577850341796875,-0.072479248046875,0.0294189453125
1663861757791136300,2.78313623046875,-0.0929412841796875,0.1629486083984375,0.0922698974609375
1663861757801024000,2.79302392578125,-0.0226287841796875,0.237518310546875,0.00384521484375
1663861757810911700,2.802911865234375,0.081756591796875,0.22259521484375,-0.15380859375
1663861757820799500,2.812799560546875,0.1467437744140625,0.19171142578125,-0.2901611328125
1663861757830687200,2.822687255859375,0.163787841796875,0.1757354736328125,-0.3530120849609375
1663861757840574700,2.83257470703125,0.154205322265625,0.1959686279296875,-0.3562164306640625
1663861757850462500,2.84246240234375,0.1712493896484375,0.2066192626953125,-0.31146240234375
1663861757860350200,2.85235009765625,0.2511444091796875,0.11181640625,-0.2198486328125
1663861757870207500,2.86220751953125,0.3033447265625,-0.027740478515625,-0.09521484375
1663861757880095200,2.87209521484375,0.253265380859375,-0.06927490234375,0.014495849609375
1663861757889952300,2.8819521484375,0.116912841796875,-0.023468017578125,0.083740234375
1663861757899840000,2.891840087890625,0.0072021484375,0.0265960693359375,0.122100830078125
1663861757909727700,2.901727783203125,-0.0013275146484375,0.0372467041015625,0.1370086669921875
1663861757919615500,2.911615478515625,0.08282470703125,0.075592041015625,0.1157073974609375
1663861757929472500,2.921472412109375,0.1978759765625,0.1735992431640625,0.049652099609375
1663861757939360300,2.9313603515625,0.2500762939453125,0.2758636474609375,-0.051544189453125
1663861757949217500,2.941217529296875,0.2181243896484375,0.3088836669921875,-0.117584228515625
1663861757959135700,2.9511357421875,0.2021331787109375,0.24603271484375,-0.094146728515625
1663861757969023200,2.961023193359375,0.2479400634765625,0.1064910888671875,0.026214599609375
1663861757978911000,2.970910888671875,0.3065338134765625,-0.0447845458984375,0.199859619140625
1663861757988768300,2.980768310546875,0.290557861328125,-0.0554351806640625,0.3021240234375
1663861757998656000,2.990656005859375,0.140350341796875,0.1821136474609375,0.2200927734375
1663861758008513000,3.000512939453125,0.017852783203125,0.337646484375,0.1157073974609375
1663861758018431200,3.01043115234375,0.3960113525390625,-0.070343017578125,0.3287506103515625
1663861758028319000,3.020319091796875,0.47271728515625,-0.6168212890625,0.48321533203125
1663861758038176300,3.03017626953125,0.4705810546875,-1.0418701171875,0.498138427734375
1663861758048063700,3.040063720703125,0.5824432373046875,-1.49566650390625,0.5482025146484375
1663861758057951500,3.049951416015625,0.6602020263671875,-1.6575927734375,0.4800262451171875
1663861758067839200,3.059839111328125,0.7155914306640625,-1.518035888671875,0.27655029296875
1663861758077696500,3.069696533203125,0.65380859375,-1.4583892822265625,0.17535400390625
1663861758087584000,3.079583984375,0.508941650390625,-1.430694580078125,0.2083740234375
1663861758097471700,3.0894716796875,0.389617919921875,-1.31671142578125,0.25738525390625
1663861758107359500,3.099359375,0.325714111328125,-1.1974029541015625,0.293609619140625
1663861758117247200,3.109247314453125,0.3054656982421875,-1.13134765625,0.32769775390625
1663861758127135000,3.119135009765625,0.257537841796875,-1.017364501953125,0.3298187255859375
1663861758137022700,3.129022705078125,0.1627197265625,-0.63067626953125,0.2286224365234375
1663861758146910200,3.13891015625,0.0998687744140625,-0.091644287109375,-0.01531982421875
1663861758156798000,3.1487978515625,0.0221099853515625,0.1150054931640625,-0.1921539306640625
1663861758166685700,3.158685791015625,-0.0471343994140625,0.1959686279296875,-0.2731170654296875
1663861758176573400,3.168573486328125,-0.07269287109375,0.32806396484375,-0.3551483154296875
1663861758186461200,3.178461181640625,-0.0790863037109375,0.383453369140625,-0.402008056640625
1663861758196318200,3.188318115234375,-0.099334716796875,0.3696136474609375,-0.38177490234375
1663861758206206000,3.1982060546875,-0.1334228515625,0.396240234375,-0.3370361328125
1663861758216093700,3.20809375,-0.1802978515625,0.5027618408203125,-0.3221282958984375
1663861758225981400,3.2179814453125,-0.2292938232421875,0.625274658203125,-0.361541748046875
1663861758235869000,3.227868896484375,-0.2761688232421875,0.7009124755859375,-0.4424896240234375
1663861758245726200,3.237726318359375,-0.4476776123046875,0.70623779296875,-0.5234527587890625
1663861758255614000,3.247614013671875,-1.489501953125,0.7350006103515625,-0.542633056640625
1663861758265501700,3.257501708984375,-1.8634033203125,0.7328643798828125,-0.279510498046875
1663861758275389200,3.26738916015625,-1.2189178466796875,0.4697418212890625,-0.0110626220703125
1663861758285277000,3.27727685546875,-0.520111083984375,0.0106201171875,0.129547119140625
1663861758295164700,3.28716455078125,0.039154052734375,-0.31109619140625,0.18707275390625
1663861758305052400,3.297052490234375,0.2585906982421875,-0.058624267578125,0.086944580078125
1663861758314909400,3.306909423828125,0.105194091796875,0.428192138671875,-0.039825439453125
1663861758324797200,3.316797119140625,-0.054595947265625,0.5933074951171875,-0.0579376220703125
1663861758334685000,3.326684814453125,-0.0567169189453125,0.395172119140625,-0.004669189453125
1663861758344542200,3.336542236328125,-0.029022216796875,0.089447021484375,0.0453948974609375
1663861758354429700,3.3464296875,-0.0449981689453125,-0.1342620849609375,0.0880126953125
1663861758364317400,3.3563173828125,-0.0684356689453125,-0.2162933349609375,0.118896484375
1663861758374205200,3.366205078125,-0.06524658203125,-0.2003021240234375,0.1157073974609375
1663861758384093000,3.376093017578125,-0.0684356689453125,-0.0873870849609375,0.07415771484375
1663861758393950200,3.3859501953125,-0.064178466796875,-0.03839111328125,0.026214599609375
1663861758403837700,3.395837646484375,-0.0396728515625,-0.0426483154296875,0.014495849609375
1663861758413725400,3.405725341796875,-0.0258331298828125,-0.0213470458984375,0.02728271484375
1663861758423613200,3.41561328125,-0.0151824951171875,0.009552001953125,0.0358123779296875
1663861758433501000,3.4255009765625,0.0008087158203125,0.040435791015625,0.018768310546875
1663861758443388700,3.435388671875,0.0125274658203125,0.0617523193359375,-0.028106689453125
1663861758453276200,3.445276123046875,0.01678466796875,0.05322265625,-0.0664520263671875
1663861758463164000,3.455163818359375,0.0072021484375,0.0340423583984375,-0.06005859375
1663861758473051600,3.4650517578125,0.013580322265625,0.00634765625,-0.006805419921875
1663861758482939400,3.474939453125,0.00506591796875,0.030853271484375,0.0123748779296875
1663861758492827100,3.4848271484375,-0.0151824951171875,0.030853271484375,0.016632080078125
1663861758502714600,3.494714599609375,-0.0109100341796875,0.0340423583984375,0.0134429931640625
1663861758512602400,3.504602294921875,-0.0141143798828125,0.040435791015625,0.0006561279296875
1663861758522459600,3.514459716796875,-0.0141143798828125,0.0500335693359375,-0.0057373046875
1663861758532316700,3.524316650390625,-0.0130462646484375,0.0500335693359375,-0.00360107421875
1663861758542204400,3.534204345703125,-0.0119781494140625,0.0468292236328125,0.004913330078125
1663861758552092200,3.544092041015625,-0.0098419189453125,0.04364013671875,0.0134429931640625
1663861758561980000,3.55397998046875,-0.00665283203125,0.0383148193359375,0.01983642578125
1663861758571867600,3.56386767578125,-0.0002593994140625,0.0361785888671875,0.018768310546875
1663861758581755100,3.573755126953125,0.006134033203125,0.0361785888671875,0.01983642578125
1663861758591643000,3.583642822265625,0.0093231201171875,0.0393829345703125,0.0240936279296875
1663861758601500200,3.593500244140625,0.0072021484375,0.04150390625,0.030487060546875
1663861758611357400,3.603357421875,0.003997802734375,0.04150390625,0.0315399169921875
1663861758621275600,3.613275634765625,0.00506591796875,0.0361785888671875,0.030487060546875
1663861758631132700,3.623132568359375,0.006134033203125,0.028717041015625,0.030487060546875
1663861758641020400,3.6330205078125,0.00506591796875,0.01806640625,0.0294189453125
1663861758650908200,3.642908203125,0.0029296875,0.0052947998046875,0.02728271484375
1663861758660796000,3.6527958984375,0.0018768310546875,-0.0074920654296875,0.02728271484375
1663861758670653000,3.66265283203125,0.0008087158203125,-0.0213470458984375,0.0219573974609375
1663861758680540700,3.672540771484375,0.0008087158203125,-0.035186767578125,0.018768310546875
1663861758690428400,3.682428466796875,0.003997802734375,-0.049041748046875,0.0177001953125
1663861758700316200,3.692316162109375,0.006134033203125,-0.06182861328125,0.014495849609375
1663861758710173200,3.702173095703125,0.006134033203125,-0.0714111328125,0.0134429931640625
1663861758720091400,3.71209130859375,0.0072021484375,-0.0799407958984375,0.0123748779296875
1663861758729948700,3.72194873046875,0.0072021484375,-0.0831298828125,0.0091705322265625
1663861758739867000,3.731866943359375,0.0072021484375,-0.08526611328125,0.0059814453125
1663861758749724000,3.741723876953125,0.0093231201171875,-0.0873870849609375,0.00384521484375
1663861758759611600,3.751611572265625,0.0093231201171875,-0.093780517578125,0.0006561279296875
1663861758769469000,3.761468994140625,0.0093231201171875,-0.1023101806640625,-0.00360107421875
1663861758779387100,3.77138720703125,0.0103912353515625,-0.1108245849609375,-0.006805419921875
1663861758789275000,3.78127490234375,0.0114593505859375,-0.11614990234375,-0.006805419921875
1663861758799162400,3.791162353515625,0.0114593505859375,-0.1182861328125,-0.0057373046875
1663861758809050000,3.801050048828125,0.0103912353515625,-0.119354248046875,-0.00360107421875
1663861758818937900,3.810937744140625,0.0103912353515625,-0.119354248046875,-0.0025482177734375
1663861758828795100,3.820795166015625,0.0093231201171875,-0.117218017578125,0.0006561279296875
1663861758838682600,3.8306826171875,0.0082550048828125,-0.115081787109375,0.00384521484375
1663861758848540000,3.840539794921875,0.0072021484375,-0.10870361328125,0.004913330078125
1663861758858458000,3.8504580078125,0.0082550048828125,-0.09698486328125,0.00811767578125
1663861758868345900,3.860345947265625,0.0082550048828125,-0.0895233154296875,0.0113067626953125
1663861758878233600,3.870233642578125,0.00506591796875,-0.0799407958984375,0.0113067626953125
1663861758888121300,3.880121337890625,0.006134033203125,-0.06927490234375,0.0123748779296875
1663861758897978400,3.889978271484375,0.0072021484375,-0.060760498046875,0.0123748779296875
1663861758907835600,3.899835693359375,0.0072021484375,-0.0522308349609375,0.0123748779296875
1663861758917723400,3.909723388671875,0.0103912353515625,-0.0415802001953125,0.0113067626953125
1663861758927641600,3.9196416015625,0.0103912353515625,-0.0330657958984375,0.0123748779296875
1663861758937498600,3.92949853515625,0.0093231201171875,-0.02667236328125,0.014495849609375
1663861758947356000,3.93935595703125,0.0093231201171875,-0.01708984375,0.014495849609375
1663861758957243600,3.94924365234375,0.006134033203125,-0.0074920654296875,0.01556396484375
1663861758967161900,3.959161865234375,0.00506591796875,0.00634765625,0.01556396484375
1663861758977019000,3.969018798828125,0.0029296875,0.02020263671875,0.016632080078125
1663861758986937000,3.97893701171875,0.0018768310546875,0.030853271484375,0.0208892822265625
1663861758996794400,3.98879443359375,0.0018768310546875,0.0383148193359375,0.0208892822265625
1663861759006682000,3.99868212890625,0.0018768310546875,0.0393829345703125,0.018768310546875
1663861759016569600,4.008569580078125,0.0018768310546875,0.0361785888671875,0.016632080078125
1663861759026457300,4.018457275390625,0.0008087158203125,0.0361785888671875,0.014495849609375
1663861759036345000,4.028344970703125,0.0018768310546875,0.0372467041015625,0.0134429931640625
1663861759046232800,4.03823291015625,0.0018768310546875,0.04150390625,0.0123748779296875
1663861759056120600,4.04812060546875,-0.0002593994140625,0.0468292236328125,0.0123748779296875
1663861759066008000,4.058008056640625,-0.0002593994140625,0.0500335693359375,0.0123748779296875
1663861759075895800,4.067895751953125,-0.0002593994140625,0.05108642578125,0.0113067626953125
1663861759085783600,4.077783447265625,0.0008087158203125,0.052154541015625,0.0113067626953125
1663861759095640800,4.087640869140625,0.0029296875,0.0500335693359375,0.0091705322265625
1663861759105528600,4.097528564453125,0.0029296875,0.0457611083984375,0.0102386474609375
1663861759115416000,4.107416015625,0.0029296875,0.04364013671875,0.0113067626953125
1663861759125273300,4.1172734375,0.0029296875,0.042572021484375,0.0113067626953125
1663861759135161000,4.1271611328125,0.0018768310546875,0.0393829345703125,0.0123748779296875
1663861759145018000,4.13701806640625,0.0018768310546875,0.0372467041015625,0.0123748779296875
1663861759154936300,4.146936279296875,0.003997802734375,0.03192138671875,0.014495849609375
1663861759164793600,4.156793701171875,0.0029296875,0.0255279541015625,0.01556396484375
1663861759174681300,4.166681396484375,0.0018768310546875,0.02020263671875,0.01556396484375
1663861759184569000,4.176569091796875,0.0029296875,0.016998291015625,0.016632080078125
1663861759194426000,4.186426025390625,-0.0002593994140625,0.0127410888671875,0.0177001953125
1663861759204344300,4.19634423828125,0.0008087158203125,0.0138092041015625,0.0177001953125
1663861759214232000,4.206232177734375,-0.0002593994140625,0.0148773193359375,0.01556396484375
1663861759224119800,4.216119873046875,-0.0013275146484375,0.0138092041015625,0.0123748779296875
1663861759234007600,4.226007568359375,-0.0002593994140625,0.0148773193359375,0.0102386474609375
1663861759243895000,4.23589501953125,0.0008087158203125,0.0106201171875,0.0091705322265625
1663861759253782800,4.24578271484375,0.0008087158203125,0.00848388671875,0.0102386474609375
1663861759263670500,4.25567041015625,0.0018768310546875,0.009552001953125,0.00811767578125
1663861759273527800,4.26552783203125,0.0008087158203125,0.0116729736328125,0.007049560546875
1663861759283415300,4.275415283203125,-0.0002593994140625,0.0116729736328125,0.0027923583984375
1663861759293303000,4.285302978515625,0.0018768310546875,0.0127410888671875,-0.0004119873046875
1663861759303190800,4.295190673828125,0.0008087158203125,0.0138092041015625,-0.0014801025390625
1663861759313078500,4.30507861328125,0.0008087158203125,0.016998291015625,-0.0014801025390625
1663861759322966300,4.31496630859375,-0.0023956298828125,0.021270751953125,-0.0025482177734375
1663861759332854000,4.32485400390625,-0.0034637451171875,0.0233917236328125,-0.004669189453125
1663861759342711000,4.3347109375,-0.0023956298828125,0.02020263671875,-0.006805419921875
1663861759352598800,4.344598876953125,-0.0013275146484375,0.0116729736328125,-0.004669189453125
1663861759362486500,4.354486572265625,-0.0002593994140625,0.0042266845703125,-0.0004119873046875
1663861759372343600,4.364343505859375,0.0029296875,-0.0000457763671875,0.004913330078125
1663861759382231300,4.374231201171875,0.0018768310546875,-0.0000457763671875,0.007049560546875
1663861759392119000,4.384119140625,-0.0002593994140625,0.0031585693359375,0.0102386474609375
1663861759402006800,4.3940068359375,-0.0002593994140625,0.00848388671875,0.0091705322265625
1663861759411894500,4.40389453125,-0.0002593994140625,0.0106201171875,0.0102386474609375
1663861759421782000,4.413781982421875,-0.0002593994140625,0.00848388671875,0.0113067626953125
1663861759431669800,4.423669677734375,-0.0002593994140625,0.0031585693359375,0.0134429931640625
1663861759441557500,4.4335576171875,0.0018768310546875,-0.002166748046875,0.0134429931640625
1663861759451445200,4.4434453125,0.0018768310546875,-0.0074920654296875,0.0113067626953125
1663861759461302300,4.45330224609375,0.003997802734375,-0.016021728515625,0.0102386474609375
1663861759471190000,4.46318994140625,0.003997802734375,-0.01708984375,0.0102386474609375
1663861759481077800,4.473077880859375,0.0029296875,-0.013885498046875,0.0091705322265625
1663861759490965500,4.482965576171875,0.0029296875,-0.0085601806640625,0.007049560546875
1663861759500853200,4.492853271484375,0.0018768310546875,-0.004302978515625,0.007049560546875
1663861759510710300,4.502710205078125,0.0029296875,-0.00323486328125,0.0059814453125
1663861759520598000,4.512597900390625,0.0029296875,-0.00537109375,0.0059814453125
1663861759530485800,4.52248583984375,0.003997802734375,-0.0064239501953125,0.004913330078125
1663861759540373500,4.53237353515625,0.003997802734375,-0.0064239501953125,0.0027923583984375
1663861759550261200,4.54226123046875,0.003997802734375,-0.0064239501953125,0.0006561279296875
1663861759560148700,4.552148681640625,0.0029296875,-0.0096282958984375,-0.0014801025390625
1663861759570036500,4.562036376953125,0.003997802734375,-0.0128173828125,0.0006561279296875
1663861759579893800,4.571893798828125,0.0018768310546875,-0.01495361328125,-0.0004119873046875
1663861759589750800,4.581750732421875,0.0018768310546875,-0.016021728515625,-0.0004119873046875
1663861759599638500,4.591638427734375,0.0029296875,-0.0181427001953125,0.0006561279296875
1663861759609526300,4.6015263671875,0.0018768310546875,-0.0192108154296875,-0.0014801025390625
1663861759619414000,4.6114140625,-0.0002593994140625,-0.016021728515625,-0.0004119873046875
1663861759629301800,4.6213017578125,0.0008087158203125,-0.0096282958984375,0.0006561279296875
1663861759639189200,4.631189208984375,-0.0002593994140625,-0.0064239501953125,0.0006561279296875
1663861759649046500,4.641046630859375,-0.0002593994140625,-0.0074920654296875,0.0006561279296875
1663861759658934300,4.650934326171875,-0.0013275146484375,-0.0085601806640625,0.0006561279296875
1663861759668791300,4.660791259765625,-0.0002593994140625,-0.0064239501953125,0.0017242431640625
1663861759678709500,4.67070947265625,0.0008087158203125,-0.004302978515625,0.0017242431640625
1663861759688597200,4.68059716796875,0.0018768310546875,-0.0064239501953125,0.0006561279296875
1663861759698454500,4.69045458984375,-0.0002593994140625,-0.00323486328125,-0.0014801025390625
1663861759708342300,4.70034228515625,0.0008087158203125,-0.00323486328125,-0.0014801025390625
1663861759718229800,4.710229736328125,0.0008087158203125,-0.0010986328125,-0.0025482177734375
1663861759728117500,4.720117431640625,-0.0002593994140625,-0.00323486328125,-0.0025482177734375
1663861759738005200,4.730005126953125,-0.0002593994140625,-0.002166748046875,-0.0014801025390625
1663861759747862500,4.739862548828125,-0.0013275146484375,0.0031585693359375,-0.0025482177734375
1663861759757750000,4.74975,-0.0023956298828125,0.00848388671875,-0.0025482177734375
1663861759767607300,4.759607177734375,-0.0023956298828125,0.0127410888671875,-0.00360107421875
1663861759777525500,4.769525390625,-0.0023956298828125,0.0138092041015625,-0.00360107421875
1663861759787413200,4.779413330078125,-0.0034637451171875,0.0106201171875,-0.004669189453125
1663861759797301000,4.789301025390625,-0.0002593994140625,0.007415771484375,-0.0057373046875
1663861759807188700,4.799188720703125,-0.0013275146484375,0.0052947998046875,-0.0057373046875
1663861759817045800,4.809045654296875,-0.0002593994140625,0.00634765625,-0.006805419921875
1663861759826933500,4.81893359375,-0.0002593994140625,0.007415771484375,-0.0057373046875
1663861759836821200,4.8288212890625,-0.0023956298828125,0.0106201171875,-0.00360107421875
1663861759846709000,4.838708984375,-0.0034637451171875,0.0106201171875,-0.0025482177734375
1663861759856566000,4.84856591796875,-0.0034637451171875,0.0106201171875,-0.0025482177734375
1663861759866484200,4.858484130859375,-0.0023956298828125,0.0116729736328125,-0.00360107421875
1663861759876341500,4.868341552734375,-0.0023956298828125,0.0106201171875,-0.00360107421875
1663861759886198500,4.878198486328125,-0.0023956298828125,0.00634765625,-0.0014801025390625
1663861759896116700,4.88811669921875,-0.0023956298828125,0.0031585693359375,-0.0014801025390625
1663861759906004500,4.89800439453125,-0.0023956298828125,-0.0010986328125,-0.0004119873046875
1663861759915892200,4.907892333984375,-0.0002593994140625,-0.0010986328125,-0.0004119873046875
1663861759925780000,4.917780029296875,-0.0013275146484375,0.0020904541015625,0.0017242431640625
1663861759935667700,4.927667724609375,-0.0013275146484375,0.0042266845703125,-0.0004119873046875
1663861759945555200,4.93755517578125,-0.0023956298828125,0.0052947998046875,-0.0014801025390625
1663861759955443000,4.94744287109375,-0.0023956298828125,0.0052947998046875,-0.0025482177734375
1663861759965330700,4.95733056640625,-0.0013275146484375,0.0052947998046875,-0.0025482177734375
1663861759975188000,4.96718798828125,-0.0023956298828125,0.009552001953125,-0.0025482177734375
1663861759985075500,4.977075439453125,-0.0034637451171875,0.009552001953125,-0.00360107421875
1663861759994963200,4.986963134765625,-0.0034637451171875,0.009552001953125,-0.00360107421875
1663861760004851000,4.996850830078125,-0.0023956298828125,0.007415771484375,-0.0025482177734375
1663861760014738700,5.00673876953125,-0.0023956298828125,0.0042266845703125,0.0017242431640625
1663861760024626400,5.01662646484375,-0.0002593994140625,0.0052947998046875,0.00384521484375
1663861760034514200,5.02651416015625,-0.0013275146484375,0.00634765625,0.00384521484375
1663861760044401700,5.036401611328125,-0.0013275146484375,0.0127410888671875,0.00384521484375
1663861760054259000,5.046259033203125,-0.0013275146484375,0.021270751953125,0.0059814453125
1663861760064146700,5.056146728515625,-0.0023956298828125,0.0276641845703125,0.004913330078125
1663861760074034400,5.066034423828125,-0.0045166015625,0.0255279541015625,0.00384521484375
1663861760083922000,5.075921875,-0.0045166015625,0.02020263671875,0.0027923583984375
1663861760093809700,5.0858095703125,-0.0034637451171875,0.016998291015625,0.0027923583984375
1663861760103697400,5.095697509765625,-0.0034637451171875,0.0159454345703125,0.0027923583984375
1663861760113554700,5.1055546875,-0.0013275146484375,0.016998291015625,0.0027923583984375
1663861760123411700,5.11541162109375,-0.0023956298828125,0.02020263671875,0.0006561279296875
1663861760133299500,5.125299560546875,-0.0013275146484375,0.019134521484375,-0.0004119873046875
1663861760143187200,5.135187255859375,-0.0002593994140625,0.019134521484375,-0.0004119873046875
1663861760153075000,5.145074951171875,-0.0002593994140625,0.0233917236328125,0.0006561279296875
1663861760162962400,5.15496240234375,-0.0002593994140625,0.0255279541015625,-0.0004119873046875
1663861760172850200,5.16485009765625,0.0018768310546875,0.0276641845703125,-0.0014801025390625
1663861760182738000,5.174738037109375,0.0008087158203125,0.0276641845703125,-0.0014801025390625
1663861760192625700,5.184625732421875,-0.0002593994140625,0.0255279541015625,-0.00360107421875
1663861760202482700,5.194482666015625,0.0018768310546875,0.0233917236328125,-0.0004119873046875
1663861760212370400,5.204370361328125,-0.0002593994140625,0.016998291015625,-0.0014801025390625
1663861760222258200,5.214258056640625,-0.0023956298828125,0.01806640625,-0.0004119873046875
1663861760232146000,5.22414599609375,-0.0013275146484375,0.019134521484375,-0.0004119873046875
1663861760242033700,5.23403369140625,-0.0034637451171875,0.021270751953125,-0.0004119873046875
1663861760251921200,5.243921142578125,-0.0034637451171875,0.0265960693359375,0.0006561279296875
1663861760261809000,5.253808837890625,-0.0023956298828125,0.030853271484375,0.0006561279296875
1663861760271696600,5.263696533203125,-0.0013275146484375,0.02978515625,0.0017242431640625
1663861760281584400,5.27358447265625,-0.0002593994140625,0.0276641845703125,0.0017242431640625
1663861760291441700,5.283441650390625,0.0008087158203125,0.0265960693359375,0.0017242431640625
1663861760301298700,5.293298583984375,0.0018768310546875,0.0244598388671875,0.0017242431640625
1663861760311186400,5.3031865234375,0.0008087158203125,0.021270751953125,0.0017242431640625
1663861760321074200,5.31307421875,0.0018768310546875,0.019134521484375,0.0006561279296875
1663861760330962000,5.3229619140625,0.0008087158203125,0.019134521484375,0.0017242431640625
1663861760340849400,5.332849365234375,-0.0013275146484375,0.019134521484375,0.0006561279296875
1663861760350737200,5.342737060546875,0.0008087158203125,0.019134521484375,-0.0004119873046875
1663861760360625000,5.352625,-0.0002593994140625,0.0159454345703125,0.0006561279296875
1663861760370512600,5.3625126953125,-0.0023956298828125,0.0116729736328125,0.0006561279296875
1663861760380400400,5.372400390625,-0.0013275146484375,0.0106201171875,-0.0004119873046875
1663861760390288000,5.382287841796875,-0.0013275146484375,0.00848388671875,-0.00360107421875
1663861760400175600,5.392175537109375,-0.0013275146484375,0.00848388671875,-0.0025482177734375
1663861760410002400,5.40200244140625,0.0008087158203125,0.009552001953125,-0.0025482177734375
1663861760419890000,5.411889892578125,0.0008087158203125,0.0127410888671875,-0.0025482177734375
1663861760429777700,5.421777587890625,0.0018768310546875,0.009552001953125,-0.0025482177734375
1663861760439665400,5.43166552734375,0.0018768310546875,0.0010223388671875,-0.004669189453125
1663861760449522700,5.441522705078125,0.0029296875,-0.004302978515625,-0.00360107421875
1663861760459441000,5.45144091796875,0.003997802734375,-0.0117645263671875,-0.00360107421875
1663861760469328400,5.461328369140625,0.003997802734375,-0.0128173828125,-0.00360107421875
1663861760479216000,5.471216064453125,0.0029296875,-0.0117645263671875,-0.0014801025390625
1663861760489073400,5.481073486328125,0.0018768310546875,-0.0106964111328125,0.0017242431640625
1663861760498930400,5.490930419921875,0.0029296875,-0.0064239501953125,0.00384521484375
1663861760508818200,5.500818115234375,0.00506591796875,-0.004302978515625,0.0059814453125
1663861760518736400,5.510736328125,0.0082550048828125,-0.00537109375,0.007049560546875
1663861760528624000,5.5206240234375,0.0114593505859375,-0.0074920654296875,0.0113067626953125
1663861760538512000,5.530511962890625,0.013580322265625,-0.0117645263671875,0.014495849609375
1663861760548399600,5.540399658203125,0.01678466796875,-0.0181427001953125,0.0134429931640625
1663861760558287400,5.550287353515625,0.01678466796875,-0.023468017578125,0.0123748779296875
1663861760568174800,5.5601748046875,0.01678466796875,-0.027740478515625,0.0123748779296875
1663861760578032000,5.5700322265625,0.013580322265625,-0.0330657958984375,0.0091705322265625
1663861760587920000,5.579919921875,0.0114593505859375,-0.039459228515625,0.004913330078125
1663861760597807600,5.5898076171875,0.0093231201171875,-0.046905517578125,0.00384521484375
1663861760607695000,5.599695068359375,0.0093231201171875,-0.0532989501953125,0.0006561279296875
1663861760617582800,5.609582763671875,0.0103912353515625,-0.062896728515625,-0.004669189453125
1663861760627440000,5.619440185546875,0.013580322265625,-0.0778045654296875,-0.0110626220703125
1663861760637328000,5.629327880859375,0.01678466796875,-0.0948486328125,-0.01531982421875
1663861760647215400,5.63921533203125,0.015716552734375,-0.105499267578125,-0.018524169921875
1663861760657103000,5.64910302734375,0.01678466796875,-0.10870361328125,-0.0217132568359375
1663861760666990800,5.658990966796875,0.01678466796875,-0.1097564697265625,-0.025970458984375
1663861760676848000,5.66884814453125,0.01678466796875,-0.1129608154296875,-0.030242919921875
1663861760686735600,5.678735595703125,0.0189208984375,-0.117218017578125,-0.0334320068359375
1663861760696593000,5.688593017578125,0.0210418701171875,-0.1204071044921875,-0.0355682373046875
1663861760706480600,5.698480712890625,0.0221099853515625,-0.1246795654296875,-0.0323638916015625
1663861760716368400,5.708368408203125,0.0231781005859375,-0.1246795654296875,-0.025970458984375
1663861760726255900,5.718255859375,0.0263671875,-0.1204071044921875,-0.025970458984375
1663861760736143600,5.7281435546875,0.0316925048828125,-0.115081787109375,-0.028106689453125
1663861760746031400,5.73803125,0.0338287353515625,-0.115081787109375,-0.0249176025390625
1663861760755888600,5.747888671875,0.0359649658203125,-0.117218017578125,-0.0217132568359375
1663861760765776400,5.7577763671875,0.037017822265625,-0.11614990234375,-0.0206451416015625
1663861760775633400,5.76763330078125,0.0380859375,-0.1236114501953125,-0.01959228515625
1663861760785551600,5.777551513671875,0.0348968505859375,-0.1300048828125,-0.018524169921875
1663861760795439400,5.787439453125,0.0316925048828125,-0.1331939697265625,-0.018524169921875
1663861760805296600,5.797296630859375,0.0327606201171875,-0.1321258544921875,-0.018524169921875
1663861760815184100,5.80718408203125,0.029571533203125,-0.12786865234375,-0.01531982421875
1663861760825071900,5.81707177734375,0.029571533203125,-0.126800537109375,-0.0121307373046875
1663861760834959600,5.826959716796875,0.027435302734375,-0.131072998046875,-0.0089263916015625
1663861760844817000,5.83681689453125,0.02850341796875,-0.13958740234375,-0.00787353515625
1663861760854704400,5.846704345703125,0.02850341796875,-0.1481170654296875,-0.006805419921875
1663861760864592100,5.856592041015625,0.0316925048828125,-0.150238037109375,-0.00787353515625
1663861760874479900,5.86647998046875,0.0338287353515625,-0.149169921875,-0.006805419921875
1663861760884367600,5.87636767578125,0.037017822265625,-0.142791748046875,-0.00787353515625
1663861760894255400,5.88625537109375,0.039154052734375,-0.137451171875,-0.00787353515625
1663861760904112400,5.8961123046875,0.041290283203125,-0.1300048828125,-0.0089263916015625
1663861760914030600,5.906030517578125,0.0423431396484375,-0.12786865234375,-0.0099945068359375
1663861760923918300,5.91591845703125,0.0434112548828125,-0.128936767578125,-0.0099945068359375
1663861760933806000,5.92580615234375,0.0434112548828125,-0.131072998046875,-0.0089263916015625
1663861760943693800,5.93569384765625,0.0434112548828125,-0.1300048828125,-0.0089263916015625
1663861760953581300,5.945581298828125,0.041290283203125,-0.1300048828125,-0.0110626220703125
1663861760963438600,5.9554384765625,0.04022216796875,-0.1300048828125,-0.0121307373046875
1663861760973326300,5.965326416015625,0.0380859375,-0.126800537109375,-0.0121307373046875
1663861760983183400,5.975183349609375,0.037017822265625,-0.128936767578125,-0.0121307373046875
1663861760993071000,5.985071044921875,0.037017822265625,-0.1300048828125,-0.0110626220703125
1663861761002958800,5.994958740234375,0.0359649658203125,-0.131072998046875,-0.00787353515625
1663861761012846600,6.0048466796875,0.0359649658203125,-0.128936767578125,-0.0110626220703125
1663861761022734300,6.014734375,0.037017822265625,-0.1246795654296875,-0.01531982421875
1663861761032622000,6.0246220703125,0.039154052734375,-0.119354248046875,-0.016387939453125
1663861761042509600,6.034509521484375,0.0423431396484375,-0.1118927001953125,-0.01531982421875
1663861761052397300,6.044397216796875,0.0444793701171875,-0.103363037109375,-0.016387939453125
1663861761062285000,6.05428515625,0.048736572265625,-0.09698486328125,-0.018524169921875
1663861761072142300,6.064142333984375,0.053009033203125,-0.103363037109375,-0.0217132568359375
1663861761081999400,6.073999267578125,0.0583343505859375,-0.1023101806640625,-0.0238494873046875
1663861761091887000,6.08388720703125,0.062591552734375,-0.095916748046875,-0.025970458984375
1663861761101805300,6.093805419921875,0.0647125244140625,-0.0895233154296875,-0.028106689453125
1663861761111693000,6.103693115234375,0.0647125244140625,-0.0831298828125,-0.030242919921875
1663861761121580800,6.113580810546875,0.0647125244140625,-0.072479248046875,-0.03131103515625
1663861761131468300,6.12346826171875,0.062591552734375,-0.05755615234375,-0.0291748046875
1663861761141356000,6.13335595703125,0.0583343505859375,-0.051177978515625,-0.028106689453125
1663861761151243800,6.143243896484375,0.0561981201171875,-0.0532989501953125,-0.0238494873046875
1663861761161131500,6.153131591796875,0.053009033203125,-0.062896728515625,-0.0206451416015625
1663861761170988500,6.162988525390625,0.050872802734375,-0.070343017578125,-0.018524169921875
1663861761180876300,6.172876220703125,0.053009033203125,-0.0746002197265625,-0.018524169921875
1663861761190764000,6.182763916015625,0.0551300048828125,-0.07354736328125,-0.01959228515625
1663861761200651800,6.19265185546875,0.0540618896484375,-0.06927490234375,-0.0174560546875
1663861761210508800,6.2025087890625,0.0551300048828125,-0.060760498046875,-0.0121307373046875
1663861761220366000,6.212365966796875,0.05194091796875,-0.0543670654296875,-0.0110626220703125
1663861761230253800,6.22225390625,0.05194091796875,-0.05010986328125,-0.0099945068359375
1663861761240141600,6.2321416015625,0.05194091796875,-0.0479736328125,-0.00787353515625
1663861761250029300,6.242029296875,0.053009033203125,-0.049041748046875,-0.004669189453125
1663861761259916800,6.251916748046875,0.053009033203125,-0.051177978515625,-0.00360107421875
1663861761269804500,6.261804443359375,0.0540618896484375,-0.05010986328125,-0.004669189453125
1663861761279661800,6.271661865234375,0.0551300048828125,-0.0522308349609375,-0.006805419921875
1663861761289549600,6.281549560546875,0.05938720703125,-0.05010986328125,-0.004669189453125
1663861761299437000,6.29143701171875,0.062591552734375,-0.0458526611328125,-0.0057373046875
1663861761309324800,6.30132470703125,0.0647125244140625,-0.03839111328125,-0.0110626220703125
1663861761319212500,6.311212646484375,0.06365966796875,-0.0298614501953125,-0.0142669677734375
1663861761329100300,6.321100341796875,0.0583343505859375,-0.02667236328125,-0.0142669677734375
1663861761338988000,6.330988037109375,0.053009033203125,-0.0192108154296875,-0.018524169921875
1663861761348875500,6.34087548828125,0.050872802734375,-0.0096282958984375,-0.0227813720703125
1663861761358732800,6.35073291015625,0.0455474853515625,-0.0000457763671875,-0.025970458984375
1663861761368620500,6.36062060546875,0.04766845703125,0.0031585693359375,-0.03131103515625
1663861761378508300,6.37050830078125,0.05194091796875,-0.0000457763671875,-0.0366363525390625
1663861761388365300,6.380365234375,0.0551300048828125,-0.004302978515625,-0.041961669921875
1663861761398253000,6.390253173828125,0.05938720703125,-0.0010986328125,-0.0462188720703125
1663861761408140800,6.400140869140625,0.0647125244140625,0.0052947998046875,-0.0472869873046875
1663861761418028500,6.410028564453125,0.0657806396484375,0.00634765625,-0.0462188720703125
1663861761427916000,6.419916015625,0.062591552734375,0.009552001953125,-0.0462188720703125
1663861761437803800,6.4298037109375,0.060455322265625,0.0244598388671875,-0.0462188720703125
1663861761447691500,6.43969140625,0.0540618896484375,0.0372467041015625,-0.0451507568359375
1663861761457548800,6.449548828125,0.0466156005859375,0.04150390625,-0.0408935546875
1663861761467436300,6.459436279296875,0.0455474853515625,0.0468292236328125,-0.03875732421875
1663861761477324000,6.469323974609375,0.0423431396484375,0.0489654541015625,-0.0366363525390625
1663861761487211800,6.479211669921875,0.04022216796875,0.0500335693359375,-0.0323638916015625
1663861761497069000,6.489069091796875,0.041290283203125,0.0489654541015625,-0.02703857421875
1663861761506956800,6.498956787109375,0.041290283203125,0.05322265625,-0.0249176025390625
1663861761516844300,6.50884423828125,0.04022216796875,0.05322265625,-0.0249176025390625
1663861761526732000,6.51873193359375,0.041290283203125,0.05108642578125,-0.025970458984375
1663861761536619800,6.528619873046875,0.04022216796875,0.044708251953125,-0.025970458984375
1663861761546477000,6.53847705078125,0.0423431396484375,0.0351104736328125,-0.02703857421875
1663861761556364500,6.548364501953125,0.04766845703125,0.032989501953125,-0.0291748046875
1663861761566252300,6.558252197265625,0.0540618896484375,0.032989501953125,-0.0291748046875
1663861761576140000,6.56814013671875,0.0551300048828125,0.0372467041015625,-0.0323638916015625
1663861761586027800,6.57802783203125,0.0572662353515625,0.04364013671875,-0.0355682373046875
1663861761595915500,6.58791552734375,0.0572662353515625,0.0489654541015625,-0.037689208984375
1663861761605772500,6.5977724609375,0.053009033203125,0.042572021484375,-0.039825439453125
1663861761615660300,6.607660400390625,0.04766845703125,0.03192138671875,-0.041961669921875
1663861761625548000,6.617548095703125,0.0455474853515625,0.0233917236328125,-0.0430145263671875
1663861761635435800,6.627435791015625,0.04766845703125,0.009552001953125,-0.041961669921875
1663861761645323300,6.6373232421875,0.0498046875,0.0031585693359375,-0.0408935546875
1663861761655211000,6.6472109375,0.04766845703125,0.0052947998046875,-0.0408935546875
1663861761665098800,6.6570986328125,0.0455474853515625,0.0159454345703125,-0.0440826416015625
1663861761674956000,6.6669560546875,0.0455474853515625,0.0276641845703125,-0.049407958984375
1663861761684843500,6.676843505859375,0.0455474853515625,0.0340423583984375,-0.0558013916015625
1663861761694731300,6.686731201171875,0.0434112548828125,0.0276641845703125,-0.0558013916015625
1663861761704619000,6.696618896484375,0.0434112548828125,0.0127410888671875,-0.053680419921875
1663861761714476300,6.706476318359375,0.04022216796875,-0.004302978515625,-0.05047607421875
1663861761724364000,6.716364013671875,0.039154052734375,-0.016021728515625,-0.049407958984375
1663861761734251500,6.72625146484375,0.037017822265625,-0.023468017578125,-0.05047607421875
1663861761744139300,6.73613916015625,0.0380859375,-0.0309295654296875,-0.0547332763671875
1663861761754027000,6.746027099609375,0.0380859375,-0.0298614501953125,-0.06219482421875
1663861761763914800,6.755914794921875,0.039154052734375,-0.0298614501953125,-0.0685882568359375
1663861761773771800,6.765771728515625,0.039154052734375,-0.025604248046875,-0.0760498046875
1663861761783659500,6.775659423828125,0.041290283203125,-0.0202789306640625,-0.0824432373046875
1663861761793547300,6.78554736328125,0.0434112548828125,-0.0181427001953125,-0.0877685546875
1663861761803435000,6.79543505859375,0.0466156005859375,-0.0224151611328125,-0.0920257568359375
1663861761813322800,6.80532275390625,0.053009033203125,-0.0341339111328125,-0.096282958984375
1663861761823210200,6.815210205078125,0.0583343505859375,-0.0565032958984375,-0.09735107421875
1663861761833098000,6.825097900390625,0.060455322265625,-0.06927490234375,-0.096282958984375
1663861761842955300,6.834955322265625,0.060455322265625,-0.06927490234375,-0.0920257568359375
1663861761852843000,6.844843017578125,0.060455322265625,-0.0682220458984375,-0.0888214111328125
1663861761862730500,6.85473046875,0.0615234375,-0.0788726806640625,-0.1005401611328125
1663861761872618200,6.8646181640625,0.0679168701171875,-0.1023101806640625,-0.11865234375
1663861761882506000,6.874506103515625,0.07537841796875,-0.1204071044921875,-0.1356964111328125
1663861761892363300,6.88436328125,0.0764312744140625,-0.1342620849609375,-0.1346282958984375
1663861761902250800,6.894250732421875,0.072174072265625,-0.1417236328125,-0.1261138916015625
1663861761912108000,6.90410791015625,0.0657806396484375,-0.1331939697265625,-0.1229095458984375
1663861761921995800,6.913995849609375,0.05938720703125,-0.10443115234375,-0.1229095458984375
1663861761931883500,6.923883544921875,0.0551300048828125,-0.062896728515625,-0.1122589111328125
1663861761941771000,6.93377099609375,0.048736572265625,-0.0202789306640625,-0.09735107421875
1663861761951658800,6.94365869140625,0.0434112548828125,0.0020904541015625,-0.0792388916015625
1663861761961546500,6.95354638671875,0.0423431396484375,0.0010223388671875,-0.0685882568359375
1663861761971434200,6.963434326171875,0.0423431396484375,-0.0074920654296875,-0.0685882568359375
1663861761981322000,6.973322021484375,0.0444793701171875,-0.0181427001953125,-0.0760498046875
1663861761991209700,6.983209716796875,0.0455474853515625,-0.051177978515625,-0.084564208984375
1663861762001097200,6.99309716796875,0.0498046875,-0.10443115234375,-0.098419189453125
1663861762010985000,7.00298486328125,0.05194091796875,-0.1534423828125,-0.110137939453125
1663861762020842200,7.01284228515625,0.0540618896484375,-0.1576995849609375,-0.1165313720703125
1663861762030730000,7.02272998046875,0.0572662353515625,-0.1236114501953125,-0.1122589111328125
1663861762040617500,7.032617431640625,0.0561981201171875,-0.0788726806640625,-0.098419189453125
1663861762050505200,7.042505126953125,0.0572662353515625,-0.0650177001953125,-0.0909576416015625
1663861762060393000,7.05239306640625,0.05938720703125,-0.09271240234375,-0.096282958984375
1663861762070250200,7.062250244140625,0.0572662353515625,-0.1204071044921875,-0.1005401611328125
1663861762080137700,7.0721376953125,0.05194091796875,-0.1225433349609375,-0.09735107421875
1663861762090025500,7.082025390625,0.050872802734375,-0.12786865234375,-0.096282958984375
1663861762099913200,7.091913330078125,0.0540618896484375,-0.150238037109375,-0.1112060546875
1663861762109801000,7.101801025390625,0.0583343505859375,-0.1694183349609375,-0.1356964111328125
1663861762119688700,7.111688720703125,0.0583343505859375,-0.1662139892578125,-0.154876708984375
1663861762129576200,7.121576171875,0.053009033203125,-0.1182861328125,-0.154876708984375
1663861762139464000,7.1314638671875,0.048736572265625,-0.0660858154296875,-0.1356964111328125
1663861762149351700,7.1413515625,0.04766845703125,-0.0458526611328125,-0.12078857421875
1663861762159209000,7.151208984375,0.048736572265625,-0.0799407958984375,-0.1346282958984375
1663861762169096400,7.161096435546875,0.0444793701171875,-0.1544952392578125,-0.1804351806640625
1663861762178984200,7.170984130859375,0.0359649658203125,-0.220550537109375,-0.23370361328125
1663861762188872000,7.180871826171875,0.02850341796875,-0.22906494140625,-0.2613983154296875
1663861762198759700,7.190759765625,0.017852783203125,-0.1928558349609375,-0.2368927001953125
1663861762208647400,7.2006474609375,0.00506591796875,-0.175811767578125,-0.201751708984375
1663861762218504400,7.21050439453125,-0.0013275146484375,-0.1917877197265625,-0.19854736328125
1663861762228392200,7.22039208984375,-0.005584716796875,-0.2162933349609375,-0.225189208984375
1663861762238249500,7.23024951171875,-0.007720947265625,-0.2248077392578125,-0.244354248046875
1663861762248167700,7.240167724609375,-0.0098419189453125,-0.22906494140625,-0.223052978515625
1663861762258055400,7.250055419921875,-0.0162353515625,-0.23333740234375,-0.187896728515625
1663861762267943000,7.25994287109375,-0.031158447265625,-0.24078369140625,-0.176177978515625
1663861762277800200,7.26980029296875,-0.052459716796875,-0.2621002197265625,-0.1836395263671875
1663861762287688000,7.27968798828125,-0.087615966796875,-0.2738189697265625,-0.1804351806640625
1663861762297575700,7.28957568359375,-0.130218505859375,-0.25250244140625,-0.15167236328125
1663861762307463200,7.299463134765625,-0.1696319580078125,-0.218414306640625,-0.10906982421875
1663861762317351000,7.309350830078125,-0.1920013427734375,-0.1885833740234375,-0.0760498046875
1663861762327238700,7.31923876953125,-0.198394775390625,-0.1694183349609375,-0.049407958984375
1663861762337096000,7.329095947265625,-0.1962738037109375,-0.173675537109375,-0.018524169921875
1663861762346983400,7.3389833984375,-0.1856231689453125,-0.17474365234375,0.0059814453125
1663861762356840700,7.3488408203125,-0.16644287109375,-0.1779327392578125,0.0059814453125
1663861762366698000,7.358697998046875,-0.144073486328125,-0.2056427001953125,-0.0131988525390625
1663861762376616200,7.3686162109375,-0.122772216796875,-0.253570556640625,-0.03131103515625
1663861762386503700,7.378503662109375,-0.1099853515625,-0.277008056640625,-0.037689208984375
1663861762396391400,7.388391357421875,-0.1025238037109375,-0.2588958740234375,-0.0249176025390625
1663861762406279200,7.398279052734375,-0.0918731689453125,-0.2130889892578125,-0.0142669677734375
1663861762416136400,7.408136474609375,-0.0833587646484375,-0.1651611328125,-0.00360107421875
1663861762426024000,7.41802392578125,-0.075897216796875,-0.1204071044921875,0.01556396484375
1663861762435911700,7.42791162109375,-0.07696533203125,-0.06927490234375,0.0326080322265625
1663861762445799400,7.43779931640625,-0.07269287109375,-0.02880859375,0.0358123779296875
1663861762455687200,7.447687255859375,-0.054595947265625,-0.0362548828125,0.0315399169921875
1663861762465544400,7.45754443359375,-0.0354156494140625,-0.06182861328125,0.0219573974609375
1663861762475401500,7.4674013671875,-0.0226287841796875,-0.084197998046875,0.0113067626953125
1663861762485289200,7.477289306640625,-0.0236968994140625,-0.0778045654296875,0.004913330078125
1663861762495177000,7.487177001953125,-0.0375518798828125,-0.0415802001953125,0.00384521484375
1663861762505064700,7.497064697265625,-0.0513916015625,0.0020904541015625,0.007049560546875
1663861762514952200,7.5069521484375,-0.062042236328125,0.044708251953125,0.01556396484375
1663861762524809500,7.5168095703125,-0.0684356689453125,0.075592041015625,0.030487060546875
1663861762534727700,7.526727783203125,-0.0705718994140625,0.0915679931640625,0.0464630126953125
1663861762544615400,7.536615478515625,-0.07269287109375,0.0734710693359375,0.0571136474609375
1663861762554503200,7.546503173828125,-0.075897216796875,0.02978515625,0.06243896484375
1663861762564390700,7.556390625,-0.075897216796875,-0.01495361328125,0.0592498779296875
1663861762574278400,7.5662783203125,-0.0780181884765625,-0.02667236328125,0.060302734375
1663861762584166100,7.576166259765625,-0.0822906494140625,-0.00323486328125,0.0656280517578125
1663861762594023400,7.5860234375,-0.085479736328125,0.0361785888671875,0.0688323974609375
1663861762603941600,7.595941650390625,-0.0908050537109375,0.06707763671875,0.0816192626953125
1663861762613798700,7.605798583984375,-0.0982666015625,0.0713348388671875,0.096527099609375
1663861762623716900,7.615716796875,-0.10040283203125,0.0585479736328125,0.1039886474609375
1663861762633604600,7.6256044921875,-0.0940093994140625,0.0393829345703125,0.106109619140625
1663861762643492400,7.635492431640625,-0.0929412841796875,0.042572021484375,0.10931396484375
1663861762653380000,7.645380126953125,-0.0940093994140625,0.0500335693359375,0.10931396484375
1663861762663237000,7.655237060546875,-0.09613037109375,0.04364013671875,0.10931396484375
1663861762673094400,7.665094482421875,-0.1025238037109375,0.0383148193359375,0.1146392822265625
1663861762683012600,7.6750126953125,-0.1131744384765625,0.0457611083984375,0.119964599609375
1663861762692900400,7.684900390625,-0.11956787109375,0.06707763671875,0.1274261474609375
1663861762702788000,7.6947880859375,-0.1238250732421875,0.087310791015625,0.1391448974609375
1663861762712675600,7.704675537109375,-0.1217041015625,0.07879638671875,0.14019775390625
1663861762722532900,7.714532958984375,-0.1153106689453125,0.0478973388671875,0.12847900390625
1663861762732420600,7.724420654296875,-0.1057281494140625,0.0361785888671875,0.1125030517578125
1663861762742277600,7.734277587890625,-0.09613037109375,0.04364013671875,0.1050567626953125
1663861762752195800,7.74419580078125,-0.0908050537109375,0.0489654541015625,0.1007843017578125
1663861762762083600,7.75408349609375,-0.0833587646484375,0.0500335693359375,0.095458984375
1663861762771971300,7.763971435546875,-0.073760986328125,0.05322265625,0.0880126953125
1663861762781859000,7.773859130859375,-0.0695037841796875,0.066009521484375,0.08587646484375
1663861762791716000,7.783716064453125,-0.0716400146484375,0.0830535888671875,0.0880126953125
1663861762801603800,7.793603759765625,-0.07696533203125,0.0947723388671875,0.0901336669921875
1663861762811461000,7.803461181640625,-0.0865478515625,0.085174560546875,0.08587646484375
1663861762821348900,7.813348876953125,-0.095062255859375,0.06280517578125,0.073089599609375
1663861762831206000,7.823205810546875,-0.0929412841796875,0.04150390625,0.063507080078125
1663861762841124000,7.8331240234375,-0.0897369384765625,0.0223388671875,0.0549774169921875
1663861762850981400,7.8429814453125,-0.08441162109375,0.0138092041015625,0.048583984375
1663861762860899600,7.852899658203125,-0.0812225341796875,0.0148773193359375,0.0453948974609375
1663861762870756600,7.862756591796875,-0.0801544189453125,0.021270751953125,0.0443267822265625
1663861762880644400,7.872644287109375,-0.0812225341796875,0.03192138671875,0.042205810546875
1663861762890501600,7.882501708984375,-0.0812225341796875,0.03192138671875,0.0347442626953125
1663861762900419800,7.892419921875,-0.0790863037109375,0.030853271484375,0.0326080322265625
1663861762910307600,7.9023076171875,-0.0780181884765625,0.019134521484375,0.0368804931640625
1663861762920195300,7.9121953125,-0.0748291015625,-0.0064239501953125,0.0315399169921875
1663861762930082800,7.922082763671875,-0.07269287109375,-0.02880859375,0.018768310546875
1663861762939940000,7.931940185546875,-0.0705718994140625,-0.01708984375,0.0113067626953125
1663861762949827800,7.941827880859375,-0.0705718994140625,0.0138092041015625,0.0102386474609375
1663861762959715600,7.951715576171875,-0.0716400146484375,0.04150390625,0.0134429931640625
1663861762969572600,7.961572509765625,-0.073760986328125,0.0574798583984375,0.0219573974609375
1663861762979490800,7.97149072265625,-0.0748291015625,0.05535888671875,0.02728271484375
1663861762989378600,7.981378662109375,-0.073760986328125,0.03192138671875,0.018768310546875
1663861762999266300,7.991266357421875,-0.0684356689453125,-0.002166748046875,0.00811767578125
1663861763009123300,8.001123291015626,-0.062042236328125,-0.027740478515625,0.0006561279296875
1663861763018980600,8.010980712890625,-0.0577850341796875,-0.0245361328125,0.004913330078125
1663861763028868400,8.020868408203125,-0.0588531494140625,-0.004302978515625,0.01556396484375
1663861763038786600,8.03078662109375,-0.0631103515625,0.0159454345703125,0.026214599609375
1663861763048643600,8.0406435546875,-0.0684356689453125,0.0244598388671875,0.0326080322265625
1663861763058531300,8.05053125,-0.07269287109375,0.016998291015625,0.0358123779296875
1663861763068388600,8.060388671875,-0.07269287109375,0.0031585693359375,0.0368804931640625
1663861763078306800,8.070306884765625,-0.0716400146484375,-0.00323486328125,0.040069580078125
1663861763088194600,8.080194580078125,-0.0705718994140625,0.0020904541015625,0.05072021484375
1663861763098082000,8.09008203125,-0.0748291015625,0.009552001953125,0.0645751953125
1663861763107939300,8.099939208984376,-0.075897216796875,0.0106201171875,0.07415771484375
1663861763117796600,8.109796630859375,-0.075897216796875,0.00848388671875,0.0762939453125
1663861763127714800,8.11971484375,-0.0748291015625,0.0031585693359375,0.075225830078125
1663861763137602300,8.129602294921876,-0.073760986328125,-0.0000457763671875,0.0805511474609375
1663861763147490000,8.139489990234376,-0.07269287109375,0.0138092041015625,0.086944580078125
1663861763157377800,8.149377685546876,-0.0705718994140625,0.028717041015625,0.0922698974609375
1663861763167265500,8.159265625,-0.0684356689453125,0.03192138671875,0.0922698974609375
1663861763177153300,8.1691533203125,-0.0684356689453125,0.02978515625,0.084808349609375
1663861763187041000,8.179041015625,-0.06524658203125,0.0276641845703125,0.0816192626953125
1663861763196928500,8.188928466796876,-0.0631103515625,0.028717041015625,0.083740234375
1663861763206816300,8.198816162109376,-0.062042236328125,0.0276641845703125,0.084808349609375
1663861763216704000,8.2087041015625,-0.0588531494140625,0.0233917236328125,0.0805511474609375
1663861763226561300,8.218561279296875,-0.0599212646484375,0.0340423583984375,0.075225830078125
1663861763236418300,8.228418212890626,-0.0599212646484375,0.05322265625,0.0699005126953125
1663861763246306000,8.23830615234375,-0.0577850341796875,0.07452392578125,0.06243896484375
1663861763256193800,8.24819384765625,-0.0556488037109375,0.0915679931640625,0.063507080078125
1663861763266050800,8.25805078125,-0.054595947265625,0.0958404541015625,0.06243896484375
1663861763275938600,8.2679384765625,-0.0492706298828125,0.0937042236328125,0.061370849609375
1663861763285826300,8.277826416015625,-0.0460662841796875,0.075592041015625,0.06243896484375
1663861763295714000,8.287714111328125,-0.0449981689453125,0.05322265625,0.0560455322265625
1663861763305601800,8.297601806640625,-0.038604736328125,0.0383148193359375,0.0443267822265625
1663861763315489300,8.3074892578125,-0.0354156494140625,0.0383148193359375,0.03900146484375
1663861763325346600,8.3173466796875,-0.0354156494140625,0.0393829345703125,0.040069580078125
1663861763335234300,8.327234375,-0.038604736328125,0.0457611083984375,0.037933349609375
1663861763345122000,8.3371220703125,-0.04180908203125,0.05108642578125,0.0326080322265625
1663861763355009500,8.347009521484376,-0.04180908203125,0.0585479736328125,0.0315399169921875
1663861763364897300,8.356897216796876,-0.04180908203125,0.0606842041015625,0.0347442626953125
1663861763374754600,8.366754638671875,-0.038604736328125,0.05322265625,0.0326080322265625
1663861763384642300,8.376642333984375,-0.0354156494140625,0.042572021484375,0.02728271484375
1663861763394529800,8.38652978515625,-0.0343475341796875,0.03192138671875,0.02728271484375
1663861763404417500,8.39641748046875,-0.0322265625,0.0255279541015625,0.0251617431640625
1663861763414305300,8.40630517578125,-0.031158447265625,0.0265960693359375,0.0208892822265625
1663861763424193000,8.416193115234375,-0.031158447265625,0.03192138671875,0.0208892822265625
1663861763434080800,8.426080810546875,-0.0322265625,0.04150390625,0.016632080078125
1663861763443937800,8.435937744140626,-0.03009033203125,0.0489654541015625,0.01556396484375
1663861763453825500,8.445825439453126,-0.026885986328125,0.040435791015625,0.0134429931640625
1663861763463713300,8.45571337890625,-0.0258331298828125,0.0233917236328125,0.007049560546875
1663861763473601000,8.46560107421875,-0.0247650146484375,0.01806640625,0.0059814453125
1663861763483488800,8.47548876953125,-0.0247650146484375,0.0255279541015625,0.0059814453125
1663861763493345800,8.485345703125,-0.0247650146484375,0.04150390625,0.00811767578125
1663861763503233500,8.495233642578125,-0.0247650146484375,0.056427001953125,0.00811767578125
1663861763513121300,8.505121337890625,-0.0236968994140625,0.06280517578125,0.0091705322265625
1663861763523009000,8.515009033203125,-0.0236968994140625,0.056427001953125,0.0134429931640625
1663861763532866000,8.524865966796876,-0.0215606689453125,0.042572021484375,0.0102386474609375
1663861763542784300,8.5347841796875,-0.0205078125,0.0223388671875,-0.0014801025390625
1663861763552672000,8.544672119140625,-0.01837158203125,0.0148773193359375,-0.00787353515625
1663861763562559700,8.554559814453125,-0.01837158203125,0.0276641845703125,-0.006805419921875
1663861763572447500,8.564447509765625,-0.019439697265625,0.04150390625,-0.0025482177734375
1663861763582335000,8.5743349609375,-0.0162353515625,0.0457611083984375,-0.00360107421875
1663861763592192300,8.584192138671876,-0.0109100341796875,0.0457611083984375,-0.0057373046875
1663861763602080000,8.594080078125,-0.0109100341796875,0.052154541015625,-0.0025482177734375
1663861763611967700,8.6039677734375,-0.0109100341796875,0.063873291015625,0.0006561279296875
1663861763621855200,8.613855224609376,-0.0098419189453125,0.0617523193359375,0.004913330078125
1663861763631743000,8.623742919921876,-0.00665283203125,0.0489654541015625,0.004913330078125
1663861763641630700,8.633630615234376,-0.00665283203125,0.0361785888671875,0.0059814453125
1663861763651518500,8.6435185546875,-0.0087890625,0.02978515625,0.007049560546875
1663861763661406200,8.65340625,-0.0098419189453125,0.0255279541015625,0.0091705322265625
1663861763671263200,8.66326318359375,-0.0130462646484375,0.0223388671875,0.00811767578125
1663861763681120500,8.67312060546875,-0.0141143798828125,0.028717041015625,0.004913330078125
1663861763691038700,8.683038818359375,-0.0130462646484375,0.0383148193359375,0.00384521484375
1663861763700926500,8.692926513671875,-0.0109100341796875,0.044708251953125,0.004913330078125
1663861763710814200,8.702814208984375,-0.0098419189453125,0.040435791015625,0.0059814453125
1663861763720701700,8.71270166015625,-0.0087890625,0.0223388671875,0.0059814453125
1663861763730589400,8.72258935546875,-0.0098419189453125,0.0052947998046875,0.0017242431640625
1663861763740446700,8.73244677734375,-0.0087890625,0.0052947998046875,-0.004669189453125
1663861763750303700,8.7423037109375,-0.00665283203125,0.01806640625,-0.004669189453125
1663861763760191500,8.75219140625,-0.005584716796875,0.0351104736328125,0.0006561279296875
1663861763770079200,8.762079345703125,-0.005584716796875,0.044708251953125,0.0017242431640625
1663861763779936500,8.7719365234375,-0.0045166015625,0.042572021484375,0.0006561279296875
1663861763789824000,8.781823974609376,-0.0045166015625,0.028717041015625,-0.004669189453125
1663861763799742200,8.7917421875,-0.005584716796875,0.02020263671875,-0.0089263916015625
1663861763809630000,8.8016298828125,-0.0034637451171875,0.021270751953125,-0.00787353515625
1663861763819517700,8.811517578125,-0.0045166015625,0.03192138671875,-0.0025482177734375
1663861763829375000,8.821375,-0.0087890625,0.0383148193359375,0.0017242431640625
1663861763839262500,8.831262451171876,-0.0087890625,0.0351104736328125,0.004913330078125
1663861763849150200,8.841150146484376,-0.007720947265625,0.0276641845703125,0.0017242431640625
1663861763859038000,8.851037841796876,-0.00665283203125,0.021270751953125,-0.0025482177734375
1663861763868895200,8.860895263671875,-0.00665283203125,0.0244598388671875,-0.006805419921875
1663861763878783000,8.870782958984375,-0.007720947265625,0.03192138671875,-0.0057373046875
1663861763888670500,8.88067041015625,-0.0098419189453125,0.042572021484375,-0.004669189453125
1663861763898558200,8.89055810546875,-0.0109100341796875,0.05322265625,-0.006805419921875
1663861763908446000,8.900446044921875,-0.0098419189453125,0.056427001953125,-0.0057373046875
1663861763918333700,8.910333740234375,-0.00665283203125,0.0489654541015625,-0.0004119873046875
1663861763928221400,8.920221435546875,-0.0034637451171875,0.0265960693359375,0.0017242431640625
1663861763938109000,8.93010888671875,-0.0013275146484375,0.0052947998046875,-0.006805419921875
1663861763947966200,8.93996630859375,-0.0013275146484375,-0.0000457763671875,-0.0110626220703125
1663861763957854000,8.94985400390625,-0.00665283203125,0.0127410888671875,-0.0025482177734375
1663861763967741700,8.95974169921875,-0.0130462646484375,0.0383148193359375,0.0006561279296875
1663861763977629200,8.969629150390626,-0.0130462646484375,0.05322265625,-0.004669189453125
1663861763987486500,8.979486572265625,-0.0098419189453125,0.05108642578125,-0.0089263916015625
1663861763997374200,8.989374267578125,-0.005584716796875,0.04364013671875,-0.0089263916015625
1663861764007262000,8.999261962890625,-0.005584716796875,0.0361785888671875,-0.0025482177734375
1663861764017149400,9.0091494140625,-0.00665283203125,0.0233917236328125,0.004913330078125
1663861764027037200,9.019037109375,-0.0087890625,0.0148773193359375,0.0006561279296875
1663861764036925000,9.028925048828125,-0.0109100341796875,0.0138092041015625,-0.00787353515625
1663861764046812700,9.038812744140625,-0.0119781494140625,0.0223388671875,-0.0057373046875
1663861764056700400,9.048700439453125,-0.0141143798828125,0.0393829345703125,0.00384521484375
1663861764066588000,9.058587890625,-0.017303466796875,0.05108642578125,0.00384521484375
1663861764076475600,9.0684755859375,-0.0151824951171875,0.05535888671875,-0.004669189453125
1663861764086333000,9.0783330078125,-0.0109100341796875,0.052154541015625,-0.0089263916015625
1663861764096220700,9.088220703125,-0.0098419189453125,0.05108642578125,-0.0110626220703125
1663861764106077700,9.09807763671875,-0.0109100341796875,0.0478973388671875,-0.00787353515625
1663861764115965400,9.10796533203125,-0.0130462646484375,0.0468292236328125,-0.004669189453125
1663861764125822700,9.11782275390625,-0.0162353515625,0.04364013671875,0.0006561279296875
1663861764135741000,9.127740966796875,-0.017303466796875,0.040435791015625,0.0027923583984375
1663861764145628700,9.137628662109375,-0.019439697265625,0.04364013671875,0.0017242431640625
1663861764155485700,9.147485595703126,-0.0205078125,0.0489654541015625,0.0027923583984375
1663861764165373400,9.15737353515625,-0.0236968994140625,0.05535888671875,0.0027923583984375
1663861764175261200,9.16726123046875,-0.026885986328125,0.052154541015625,0.00384521484375
1663861764185118200,9.1771181640625,-0.029022216796875,0.0478973388671875,0.00811767578125
1663861764195036400,9.187036376953126,-0.03009033203125,0.0393829345703125,0.0113067626953125
1663861764204924200,9.196924072265626,-0.03009033203125,0.030853271484375,0.0134429931640625
1663861764214781400,9.206781494140625,-0.029022216796875,0.0255279541015625,0.0113067626953125
1663861764224669200,9.216669189453125,-0.026885986328125,0.021270751953125,0.007049560546875
1663861764234556700,9.226556640625,-0.0205078125,0.0148773193359375,0.00384521484375
1663861764244444400,9.2364443359375,-0.0151824951171875,0.02020263671875,0.0017242431640625
1663861764254332200,9.246332275390625,-0.0141143798828125,0.030853271484375,0.0017242431640625
1663861764264220000,9.256219970703125,-0.0130462646484375,0.040435791015625,0.0017242431640625
1663861764274077000,9.266076904296876,-0.0130462646484375,0.04364013671875,0.0006561279296875
1663861764283995100,9.2759951171875,-0.0151824951171875,0.04364013671875,0.0017242431640625
1663861764293852400,9.285852294921876,-0.019439697265625,0.04364013671875,0.0006561279296875
1663861764303709700,9.295709716796875,-0.0205078125,0.04150390625,0.0006561279296875
1663861764313628000,9.3056279296875,-0.019439697265625,0.0393829345703125,-0.0004119873046875
1663861764323485000,9.31548486328125,-0.01837158203125,0.03192138671875,-0.0014801025390625
1663861764333403100,9.325403076171876,-0.0151824951171875,0.0265960693359375,0.0006561279296875
1663861764343260400,9.335260498046875,-0.0130462646484375,0.02020263671875,0.0027923583984375
1663861764353148200,9.345148193359375,-0.0119781494140625,0.021270751953125,0.0027923583984375
1663861764363036000,9.355035888671875,-0.0141143798828125,0.030853271484375,0.0027923583984375
1663861764372923400,9.36492333984375,-0.0162353515625,0.0393829345703125,0.0006561279296875
1663861764382811100,9.37481103515625,-0.019439697265625,0.05108642578125,-0.0014801025390625
1663861764392699000,9.384698974609375,-0.0215606689453125,0.0596160888671875,-0.0004119873046875
1663861764402586600,9.394586669921875,-0.0226287841796875,0.0617523193359375,0.0006561279296875
1663861764412474400,9.404474365234375,-0.0215606689453125,0.0606842041015625,0.0006561279296875
1663861764422361900,9.41436181640625,-0.0215606689453125,0.0596160888671875,-0.0014801025390625
1663861764432249600,9.42424951171875,-0.0226287841796875,0.063873291015625,-0.0014801025390625
1663861764442107000,9.43410693359375,-0.0226287841796875,0.0724029541015625,-0.00360107421875
1663861764451994600,9.44399462890625,-0.019439697265625,0.0809173583984375,-0.0025482177734375
1663861764461882000,9.453882080078126,-0.01837158203125,0.08624267578125,-0.0057373046875
1663861764471769900,9.463769775390626,-0.017303466796875,0.087310791015625,-0.00360107421875
1663861764481657600,9.47365771484375,-0.01837158203125,0.087310791015625,-0.0025482177734375
1663861764491545300,9.48354541015625,-0.017303466796875,0.08624267578125,-0.0025482177734375
1663861764501433000,9.49343310546875,-0.017303466796875,0.08624267578125,-0.004669189453125
1663861764511320600,9.503320556640626,-0.019439697265625,0.0915679931640625,-0.00360107421875
1663861764521208300,9.513208251953126,-0.0215606689453125,0.09796142578125,-0.0014801025390625
1663861764531065600,9.523065673828125,-0.0236968994140625,0.10223388671875,-0.0014801025390625
1663861764540953300,9.532953369140625,-0.0258331298828125,0.1043548583984375,-0.0014801025390625
1663861764550840800,9.5428408203125,-0.0258331298828125,0.10223388671875,-0.0014801025390625
1663861764560728600,9.552728515625,-0.0215606689453125,0.099029541015625,-0.0025482177734375
1663861764570616300,9.5626162109375,-0.0215606689453125,0.096893310546875,-0.0004119873046875
1663861764580504000,9.572504150390625,-0.0215606689453125,0.09796142578125,0.0017242431640625
1663861764590361300,9.582361328125,-0.0236968994140625,0.1043548583984375,0.0017242431640625
1663861764600248800,9.592248779296876,-0.0247650146484375,0.1064910888671875,0.0027923583984375
1663861764610136600,9.602136474609376,-0.0236968994140625,0.101165771484375,0.007049560546875
1663861764620024300,9.6120244140625,-0.0236968994140625,0.099029541015625,0.00811767578125
1663861764629912000,9.621912109375,-0.0226287841796875,0.09796142578125,0.00811767578125
1663861764639799800,9.6317998046875,-0.0215606689453125,0.0958404541015625,0.0091705322265625
1663861764649656800,9.64165673828125,-0.0226287841796875,0.0937042236328125,0.0102386474609375
1663861764659514000,9.65151416015625,-0.0258331298828125,0.0915679931640625,0.0102386474609375
1663861764669371100,9.66137109375,-0.0258331298828125,0.0915679931640625,0.0091705322265625
1663861764679289300,9.671289306640626,-0.0258331298828125,0.0926361083984375,0.00811767578125
1663861764689177000,9.681177001953126,-0.0247650146484375,0.0958404541015625,0.00811767578125
1663861764699064800,9.69106494140625,-0.0247650146484375,0.099029541015625,0.0059814453125
1663861764708922000,9.700922119140625,-0.0236968994140625,0.09796142578125,0.004913330078125
1663861764718809600,9.7108095703125,-0.0236968994140625,0.10009765625,0.00384521484375
1663861764728697300,9.720697265625,-0.0258331298828125,0.099029541015625,0.0027923583984375
1663861764738585000,9.730585205078125,-0.026885986328125,0.09796142578125,0.0017242431640625
1663861764748472800,9.740472900390625,-0.0258331298828125,0.09796142578125,0.0006561279296875
1663861764758329900,9.750329833984376,-0.0258331298828125,0.099029541015625,0.0027923583984375
1663861764768217600,9.760217529296876,-0.0247650146484375,0.09796142578125,0.0059814453125
1663861764778075000,9.770074951171875,-0.0247650146484375,0.099029541015625,0.0059814453125
1663861764787993000,9.7799931640625,-0.0247650146484375,0.101165771484375,0.0059814453125
1663861764797880800,9.789880859375,-0.0226287841796875,0.101165771484375,0.00811767578125
1663861764807768300,9.799768310546876,-0.0226287841796875,0.10009765625,0.0102386474609375
1663861764817656000,9.809656005859376,-0.0247650146484375,0.10009765625,0.0123748779296875
1663861764827543800,9.819543701171876,-0.0247650146484375,0.09796142578125,0.016632080078125
1663861764837431600,9.829431640625,-0.0247650146484375,0.09796142578125,0.01983642578125
1663861764847319300,9.8393193359375,-0.0236968994140625,0.10009765625,0.0208892822265625
1663861764857207000,9.84920703125,-0.0236968994140625,0.10223388671875,0.0240936279296875
1663861764867094500,9.859094482421876,-0.0205078125,0.1043548583984375,0.02728271484375
1663861764876951800,9.868951904296875,-0.01837158203125,0.10009765625,0.0294189453125
1663861764886809000,9.87880908203125,-0.01837158203125,0.0958404541015625,0.030487060546875
1663861764896696600,9.888696533203126,-0.01837158203125,0.0958404541015625,0.0315399169921875
1663861764906584300,9.898584228515626,-0.017303466796875,0.0947723388671875,0.030487060546875
1663861764916472000,9.90847216796875,-0.019439697265625,0.0915679931640625,0.0336761474609375
1663861764926359800,9.91835986328125,-0.019439697265625,0.08837890625,0.0347442626953125
1663861764936247600,9.92824755859375,-0.019439697265625,0.0841217041015625,0.0336761474609375
1663861764946104600,9.9381044921875,-0.01837158203125,0.075592041015625,0.0326080322265625
1663861764955992300,9.947992431640625,-0.017303466796875,0.0681304931640625,0.0315399169921875
1663861764965880000,9.957880126953125,-0.017303466796875,0.063873291015625,0.030487060546875
1663861764975767800,9.967767822265625,-0.017303466796875,0.0596160888671875,0.028350830078125
1663861764985624800,9.977624755859376,-0.0162353515625,0.054290771484375,0.02728271484375
1663861764995512600,9.9875126953125,-0.0141143798828125,0.0468292236328125,0.028350830078125
1663861765005400300,9.997400390625,-0.0141143798828125,0.0383148193359375,0.0294189453125
1663861765015288000,10.0072880859375,-0.0141143798828125,0.030853271484375,0.028350830078125
1663861765025175600,10.017175537109376,-0.0130462646484375,0.0244598388671875,0.026214599609375
1663861765035032800,10.02703271484375,-0.0119781494140625,0.019134521484375,0.0240936279296875
1663861765044920600,10.036920654296875,-0.0109100341796875,0.0148773193359375,0.0240936279296875
1663861765054808300,10.046808349609375,-0.0119781494140625,0.0159454345703125,0.0240936279296875
1663861765064695800,10.05669580078125,-0.017303466796875,0.016998291015625,0.0230255126953125
1663861765074583600,10.06658349609375,-0.01837158203125,0.0159454345703125,0.016632080078125
1663861765084440800,10.07644091796875,-0.017303466796875,0.01806640625,0.00811767578125
1663861765094328600,10.08632861328125,-0.0151824951171875,0.016998291015625,0.00384521484375
1663861765104216300,10.09621630859375,-0.0119781494140625,0.0159454345703125,0.004913330078125
1663861765114103800,10.106103759765626,-0.007720947265625,0.0148773193359375,0.007049560546875
1663861765123991600,10.115991455078126,-0.0045166015625,0.016998291015625,0.00811767578125
1663861765133848800,10.125848876953125,-0.0034637451171875,0.0233917236328125,0.0113067626953125
1663861765143736600,10.135736572265625,-0.0034637451171875,0.0265960693359375,0.0123748779296875
1663861765153624000,10.1456240234375,-0.0034637451171875,0.0244598388671875,0.014495849609375
1663861765163511800,10.15551171875,-0.0045166015625,0.0223388671875,0.014495849609375
1663861765173399600,10.165399658203125,-0.00665283203125,0.0244598388671875,0.0134429931640625
1663861765183287300,10.175287353515625,-0.00665283203125,0.0255279541015625,0.0123748779296875
1663861765193144300,10.185144287109376,-0.0087890625,0.0244598388671875,0.0113067626953125
1663861765203032000,10.195031982421876,-0.0087890625,0.0244598388671875,0.0102386474609375
1663861765212919800,10.204919921875,-0.0087890625,0.0276641845703125,0.00811767578125
1663861765222807600,10.2148076171875,-0.0109100341796875,0.030853271484375,0.0091705322265625
1663861765232695300,10.2246953125,-0.0109100341796875,0.03192138671875,0.00811767578125
1663861765242582800,10.234582763671876,-0.0087890625,0.028717041015625,0.007049560546875
1663861765252440000,10.244440185546875,-0.00665283203125,0.028717041015625,0.007049560546875
1663861765262327800,10.254327880859375,-0.0013275146484375,0.0276641845703125,0.00811767578125
1663861765272215600,10.264215576171875,-0.0002593994140625,0.0276641845703125,0.0091705322265625
1663861765282103000,10.27410302734375,0.0008087158203125,0.0255279541015625,0.0091705322265625
1663861765291990800,10.28399072265625,0.0008087158203125,0.0276641845703125,0.0059814453125
1663861765301878500,10.29387841796875,-0.0023956298828125,0.028717041015625,0.0059814453125
1663861765311766300,10.303766357421875,-0.0045166015625,0.0276641845703125,0.004913330078125
1663861765321654000,10.313654052734375,-0.0045166015625,0.0244598388671875,0.0059814453125
1663861765331541800,10.323541748046875,-0.0045166015625,0.02020263671875,0.00811767578125
1663861765341398800,10.333398681640626,-0.005584716796875,0.0127410888671875,0.00811767578125
1663861765351286500,10.34328662109375,-0.0045166015625,0.0106201171875,0.0102386474609375
1663861765361174300,10.35317431640625,-0.0045166015625,0.0148773193359375,0.0102386474609375
1663861765371031300,10.36303125,-0.0034637451171875,0.0159454345703125,0.0091705322265625
1663861765380919000,10.3729189453125,-0.0023956298828125,0.016998291015625,0.00811767578125
1663861765390806800,10.382806884765625,-0.0023956298828125,0.0127410888671875,0.00811767578125
1663861765400694500,10.392694580078125,-0.0013275146484375,0.00848388671875,0.00811767578125
1663861765410582300,10.402582275390625,-0.0002593994140625,0.00634765625,0.00811767578125
1663861765420469800,10.4124697265625,-0.0013275146484375,0.0116729736328125,0.004913330078125
1663861765430327000,10.4223271484375,-0.0013275146484375,0.0116729736328125,0.004913330078125
1663861765440214800,10.43221484375,0.0018768310546875,0.00848388671875,0.0027923583984375
1663861765450133000,10.442133056640625,0.0008087158203125,0.00848388671875,0.0006561279296875
1663861765460020700,10.452020751953125,0.0008087158203125,0.00848388671875,0.0006561279296875
1663861765469908200,10.461908203125,0.0008087158203125,0.00634765625,-0.0004119873046875
1663861765479796000,10.4717958984375,0.0008087158203125,0.007415771484375,-0.00360107421875
1663861765489683700,10.48168359375,0.0008087158203125,0.007415771484375,-0.00360107421875
1663861765499571500,10.491571533203125,0.0018768310546875,0.007415771484375,-0.004669189453125
1663861765509459200,10.501459228515625,0.0029296875,0.0042266845703125,-0.004669189453125
1663861765519346700,10.5113466796875,0.003997802734375,0.0052947998046875,-0.0025482177734375
1663861765529204000,10.521203857421876,0.003997802734375,0.007415771484375,-0.00360107421875
1663861765539061200,10.531061279296875,0.0029296875,0.00848388671875,-0.0057373046875
1663861765548918300,10.540918212890626,0.0029296875,0.00848388671875,-0.0057373046875
1663861765558836500,10.55083642578125,0.00506591796875,0.0116729736328125,-0.0057373046875
1663861765568724200,10.56072412109375,0.003997802734375,0.0116729736328125,-0.0057373046875
1663861765578612000,10.570612060546875,0.0029296875,0.0106201171875,-0.006805419921875
1663861765588499700,10.580499755859375,0.003997802734375,0.007415771484375,-0.006805419921875
1663861765598356700,10.590356689453126,0.003997802734375,0.00634765625,-0.004669189453125
1663861765608244500,10.600244384765626,0.006134033203125,0.007415771484375,-0.00360107421875
1663861765618132200,10.61013232421875,0.00506591796875,0.0106201171875,-0.0014801025390625
1663861765628020000,10.62002001953125,0.006134033203125,0.0116729736328125,0.0017242431640625
1663861765637907700,10.62990771484375,0.00506591796875,0.0138092041015625,-0.0004119873046875
1663861765647795200,10.639795166015626,0.00506591796875,0.0148773193359375,0.0017242431640625
1663861765657683000,10.649682861328126,0.00506591796875,0.0159454345703125,0.0027923583984375
1663861765667570700,10.65957080078125,0.00506591796875,0.019134521484375,0.0027923583984375
1663861765677458400,10.66945849609375,0.003997802734375,0.01806640625,0.0027923583984375
1663861765687346200,10.67934619140625,0.006134033203125,0.0148773193359375,0.0027923583984375
1663861765697233700,10.689233642578126,0.0072021484375,0.0148773193359375,0.0027923583984375
1663861765707091000,10.699091064453125,0.0072021484375,0.0159454345703125,0.0017242431640625
1663861765716978700,10.708978759765625,0.0072021484375,0.02020263671875,0.0027923583984375
1663861765726866400,10.718866455078125,0.0082550048828125,0.0265960693359375,0.00384521484375
1663861765736723500,10.728723388671876,0.0093231201171875,0.02978515625,0.0027923583984375
1663861765746611200,10.738611083984376,0.0114593505859375,0.028717041015625,0.0017242431640625
1663861765756499000,10.7484990234375,0.0114593505859375,0.0244598388671875,-0.0004119873046875
1663861765766356000,10.75835595703125,0.013580322265625,0.019134521484375,-0.0004119873046875
1663861765776243700,10.76824365234375,0.0114593505859375,0.0127410888671875,-0.0014801025390625
1663861765786131500,10.77813134765625,0.0103912353515625,0.0106201171875,-0.0025482177734375
1663861765796019200,10.788019287109375,0.0082550048828125,0.009552001953125,-0.00360107421875
1663861765805876500,10.79787646484375,0.0082550048828125,0.0116729736328125,-0.0057373046875
1663861765815794700,10.807794677734375,0.006134033203125,0.0127410888671875,-0.006805419921875
1663861765825682200,10.81768212890625,0.00506591796875,0.0106201171875,-0.0089263916015625
1663861765835570000,10.82756982421875,0.0072021484375,0.00848388671875,-0.0121307373046875
1663861765845457700,10.837457763671875,0.0103912353515625,0.00848388671875,-0.0110626220703125
1663861765855345400,10.847345458984375,0.013580322265625,0.0052947998046875,-0.00787353515625
1663861765865202400,10.857202392578126,0.0146484375,0.0042266845703125,-0.004669189453125
1663861765875090200,10.867090087890626,0.0146484375,0.007415771484375,-0.00360107421875
1663861765884978000,10.87697802734375,0.015716552734375,0.0127410888671875,-0.0014801025390625
1663861765894865700,10.88686572265625,0.013580322265625,0.016998291015625,-0.0014801025390625
1663861765904753400,10.89675341796875,0.0125274658203125,0.016998291015625,-0.0025482177734375
1663861765914641000,10.906640869140626,0.0125274658203125,0.0148773193359375,-0.00360107421875
1663861765924528600,10.916528564453126,0.0103912353515625,0.0116729736328125,-0.004669189453125
1663861765934386000,10.926385986328125,0.0103912353515625,0.0042266845703125,-0.0057373046875
1663861765944273700,10.936273681640625,0.0093231201171875,0.0010223388671875,-0.0057373046875
1663861765954161200,10.9461611328125,0.0103912353515625,0.00634765625,-0.004669189453125
1663861765964049000,10.956048828125,0.0114593505859375,0.0127410888671875,-0.004669189453125
1663861765973936600,10.9659365234375,0.013580322265625,0.0159454345703125,-0.004669189453125
1663861765983824400,10.975824462890625,0.015716552734375,0.019134521484375,-0.0057373046875
1663861765993681400,10.985681396484376,0.01678466796875,0.021270751953125,-0.0057373046875
1663861766003569200,10.995569091796876,0.017852783203125,0.0223388671875,-0.00360107421875
1663861766013426400,11.005426513671875,0.017852783203125,0.021270751953125,-0.0025482177734375
1663861766023314200,11.015314208984375,0.017852783203125,0.0159454345703125,-0.0014801025390625
1663861766033171200,11.025171142578126,0.015716552734375,0.0127410888671875,-0.0014801025390625
1663861766043089400,11.03508935546875,0.0146484375,0.0127410888671875,-0.0004119873046875
1663861766052946700,11.04494677734375,0.0114593505859375,0.0159454345703125,-0.0025482177734375
1663861766062804000,11.054803955078125,0.0103912353515625,0.019134521484375,-0.00360107421875
1663861766072722200,11.06472216796875,0.0114593505859375,0.01806640625,-0.00360107421875
1663861766082579200,11.0745791015625,0.0146484375,0.0159454345703125,-0.00360107421875
1663861766092497400,11.084497314453126,0.0146484375,0.0159454345703125,-0.004669189453125
1663861766102385200,11.09438525390625,0.0125274658203125,0.0148773193359375,-0.0014801025390625
1663861766112273000,11.10427294921875,0.013580322265625,0.0127410888671875,0.0006561279296875
1663861766122160600,11.11416064453125,0.015716552734375,0.0116729736328125,-0.0004119873046875
1663861766132017700,11.124017578125,0.013580322265625,0.0106201171875,0.0006561279296875
1663861766141875000,11.133875,0.0114593505859375,0.009552001953125,-0.0014801025390625
1663861766151762700,11.1437626953125,0.0114593505859375,0.009552001953125,-0.0014801025390625
1663861766161681000,11.153680908203125,0.0125274658203125,0.00848388671875,0.0006561279296875
1663861766171568400,11.163568359375,0.013580322265625,0.009552001953125,0.0006561279296875
1663861766181456100,11.1734560546875,0.0114593505859375,0.007415771484375,0.0006561279296875
1663861766191343900,11.18334375,0.013580322265625,0.0052947998046875,-0.0004119873046875
1663861766201231600,11.193231689453125,0.015716552734375,0.0042266845703125,-0.0014801025390625
1663861766211119400,11.203119384765625,0.015716552734375,-0.0000457763671875,-0.0025482177734375
1663861766221006800,11.2130068359375,0.0146484375,-0.0010986328125,-0.004669189453125
1663861766230864100,11.222864013671876,0.013580322265625,-0.00323486328125,-0.00360107421875
1663861766240751900,11.232751953125,0.0125274658203125,-0.0074920654296875,-0.0057373046875
1663861766250639600,11.2426396484375,0.013580322265625,-0.0085601806640625,-0.006805419921875
1663861766260527400,11.25252734375,0.0125274658203125,-0.0096282958984375,-0.006805419921875
1663861766270414800,11.262414794921876,0.0114593505859375,-0.0085601806640625,-0.006805419921875
1663861766280302600,11.272302490234376,0.0114593505859375,-0.0074920654296875,-0.00787353515625
1663861766290190300,11.2821904296875,0.0114593505859375,-0.0085601806640625,-0.0089263916015625
1663861766300047600,11.292047607421875,0.0125274658203125,-0.0096282958984375,-0.0089263916015625
1663861766309935000,11.30193505859375,0.013580322265625,-0.0128173828125,-0.0110626220703125
1663861766319822800,11.31182275390625,0.0146484375,-0.013885498046875,-0.0131988525390625
1663861766329680100,11.32168017578125,0.0125274658203125,-0.0128173828125,-0.0131988525390625
1663861766339567900,11.33156787109375,0.0114593505859375,-0.0117645263671875,-0.0131988525390625
1663861766349455400,11.341455322265626,0.0103912353515625,-0.0128173828125,-0.0121307373046875
1663861766359312600,11.351312744140625,0.0093231201171875,-0.013885498046875,-0.0131988525390625
1663861766369170000,11.361169921875,0.0103912353515625,-0.01495361328125,-0.0121307373046875
1663861766379088100,11.371088134765625,0.0114593505859375,-0.01495361328125,-0.0099945068359375
1663861766388945200,11.380945068359376,0.0125274658203125,-0.0128173828125,-0.00787353515625
1663861766398833000,11.3908330078125,0.0146484375,-0.0096282958984375,-0.0057373046875
1663861766408751000,11.400751220703125,0.013580322265625,-0.004302978515625,-0.004669189453125
1663861766418638800,11.410638916015625,0.013580322265625,-0.0000457763671875,-0.006805419921875
1663861766428496000,11.420495849609376,0.0146484375,-0.0000457763671875,-0.0057373046875
1663861766438353200,11.430353271484375,0.015716552734375,-0.002166748046875,-0.0057373046875
1663861766448271400,11.440271240234376,0.013580322265625,0.0010223388671875,-0.00360107421875
1663861766458128600,11.450128662109375,0.013580322265625,-0.002166748046875,-0.00360107421875
1663861766468016000,11.46001611328125,0.013580322265625,-0.00537109375,-0.00360107421875
1663861766477873400,11.469873291015626,0.0146484375,-0.00537109375,-0.00360107421875
1663861766487761200,11.47976123046875,0.0146484375,-0.00537109375,-0.004669189453125
1663861766497679400,11.489679443359375,0.015716552734375,-0.0096282958984375,-0.00787353515625
1663861766507567000,11.499567138671875,0.017852783203125,-0.013885498046875,-0.0089263916015625
1663861766517454800,11.509454833984375,0.0146484375,-0.01495361328125,-0.0099945068359375
1663861766527312000,11.519311767578126,0.013580322265625,-0.0106964111328125,-0.0089263916015625
1663861766537199600,11.52919970703125,0.0146484375,-0.0064239501953125,-0.00787353515625
1663861766547087400,11.53908740234375,0.0146484375,-0.0010986328125,-0.00787353515625
1663861766556975000,11.54897509765625,0.0125274658203125,0.0042266845703125,-0.00787353515625
1663861766566862600,11.558862548828126,0.013580322265625,0.00634765625,-0.0110626220703125
1663861766576750300,11.568750244140626,0.0125274658203125,0.0042266845703125,-0.0142669677734375
1663861766586607600,11.578607666015625,0.013580322265625,0.0031585693359375,-0.01531982421875
1663861766596495400,11.588495361328125,0.015716552734375,0.0010223388671875,-0.0174560546875
1663861766606382800,11.5983828125,0.0189208984375,0.0031585693359375,-0.018524169921875
1663861766616270600,11.6082705078125,0.017852783203125,0.00848388671875,-0.0142669677734375
1663861766626158300,11.618158447265625,0.017852783203125,0.0138092041015625,-0.0121307373046875
1663861766636046000,11.628046142578125,0.0146484375,0.01806640625,-0.0099945068359375
1663861766645933800,11.637933837890625,0.0114593505859375,0.016998291015625,-0.0121307373046875
1663861766655821300,11.6478212890625,0.0114593505859375,0.0148773193359375,-0.0121307373046875
1663861766665709000,11.657708984375,0.0103912353515625,0.0106201171875,-0.00787353515625
1663861766675596800,11.6675966796875,0.0114593505859375,0.00634765625,-0.006805419921875
1663861766685484500,11.677484619140625,0.013580322265625,0.00634765625,-0.006805419921875
1663861766695372300,11.687372314453125,0.0146484375,0.00634765625,-0.0057373046875
1663861766705229300,11.697229248046876,0.0146484375,0.007415771484375,-0.0057373046875
1663861766715117000,11.707116943359376,0.015716552734375,0.00848388671875,-0.004669189453125
1663861766725004800,11.7170048828125,0.015716552734375,0.009552001953125,-0.006805419921875
1663861766734892500,11.726892578125,0.015716552734375,0.009552001953125,-0.0057373046875
1663861766744780300,11.7367802734375,0.015716552734375,0.0116729736328125,-0.0025482177734375
1663861766754667800,11.746667724609376,0.01678466796875,0.0106201171875,-0.0014801025390625
1663861766764525000,11.756525146484375,0.0189208984375,0.00848388671875,-0.0004119873046875
1663861766774412800,11.766412841796875,0.0210418701171875,0.007415771484375,0.0017242431640625
1663861766784300500,11.776300537109375,0.0189208984375,0.0052947998046875,0.0027923583984375
1663861766794188000,11.78618798828125,0.017852783203125,0.0010223388671875,0.0017242431640625
1663861766804075800,11.79607568359375,0.01678466796875,0.0010223388671875,0.0006561279296875
1663861766813963500,11.805963623046875,0.01678466796875,0.0020904541015625,0.0006561279296875
1663861766823820800,11.81582080078125,0.01678466796875,0.0031585693359375,-0.0004119873046875
1663861766833708300,11.825708251953126,0.01678466796875,-0.002166748046875,0.0006561279296875
1663861766843596000,11.835595947265626,0.0146484375,-0.0074920654296875,-0.0004119873046875
1663861766853453300,11.845453369140625,0.0146484375,-0.0106964111328125,-0.0014801025390625
1663861766863341000,11.855341064453125,0.013580322265625,-0.0106964111328125,-0.0014801025390625
1663861766873198000,11.865197998046876,0.013580322265625,-0.0085601806640625,-0.0025482177734375
1663861766883116300,11.8751162109375,0.013580322265625,-0.00323486328125,-0.0025482177734375
1663861766892973600,11.8849736328125,0.0146484375,-0.0010986328125,-0.0004119873046875
1663861766902861300,11.894861328125,0.015716552734375,-0.002166748046875,-0.0004119873046875
1663861766912748800,11.904748779296876,0.017852783203125,-0.0064239501953125,-0.0004119873046875
1663861766922606000,11.914606201171875,0.017852783203125,-0.0117645263671875,-0.0014801025390625
1663861766932493800,11.924493896484375,0.017852783203125,-0.01708984375,-0.0025482177734375
1663861766942381600,11.934381591796875,0.017852783203125,-0.0181427001953125,-0.00360107421875
1663861766952238600,11.944238525390626,0.01678466796875,-0.0181427001953125,-0.00360107421875
1663861766962126300,11.954126220703126,0.0146484375,-0.0192108154296875,-0.0014801025390625
1663861766972044500,11.96404443359375,0.0146484375,-0.0192108154296875,0.0006561279296875
1663861766981901800,11.97390185546875,0.0125274658203125,-0.0192108154296875,0.0017242431640625
1663861766991820000,11.983820068359375,0.0146484375,-0.023468017578125,0.0027923583984375
1663861767001707800,11.993707763671875,0.015716552734375,-0.027740478515625,0.0006561279296875
1663861767011595300,12.00359521484375,0.0146484375,-0.02667236328125,0.0017242431640625
1663861767021483000,12.01348291015625,0.015716552734375,-0.025604248046875,0.0006561279296875
1663861767031370800,12.023370849609375,0.015716552734375,-0.025604248046875,0.0006561279296875
1663861767041258500,12.033258544921875,0.015716552734375,-0.02667236328125,-0.0025482177734375
1663861767051146200,12.043146240234375,0.013580322265625,-0.027740478515625,-0.0014801025390625
1663861767061003300,12.053003173828126,0.013580322265625,-0.02880859375,-0.0014801025390625
1663861767070891000,12.06289111328125,0.0125274658203125,-0.0298614501953125,-0.0025482177734375
1663861767080778800,12.07277880859375,0.0125274658203125,-0.0330657958984375,-0.0025482177734375
1663861767090666500,12.08266650390625,0.013580322265625,-0.0330657958984375,-0.0014801025390625
1663861767100554000,12.092553955078126,0.0125274658203125,-0.027740478515625,-0.0004119873046875
1663861767110441700,12.102441650390626,0.0125274658203125,-0.025604248046875,-0.0004119873046875
1663861767120299000,12.112299072265625,0.0125274658203125,-0.023468017578125,0.0006561279296875
1663861767130186800,12.122186767578125,0.013580322265625,-0.0202789306640625,0.0017242431640625
1663861767140074200,12.13207421875,0.0146484375,-0.0181427001953125,0.004913330078125
1663861767149962000,12.1419619140625,0.015716552734375,-0.01708984375,0.0059814453125
1663861767159849700,12.151849609375,0.01678466796875,-0.0181427001953125,0.0059814453125
1663861767169737500,12.161737548828125,0.017852783203125,-0.0192108154296875,0.007049560546875
1663861767179594500,12.171594482421876,0.017852783203125,-0.0224151611328125,0.007049560546875
1663861767189451800,12.18145166015625,0.01678466796875,-0.025604248046875,0.007049560546875
1663861767199339500,12.191339599609375,0.0146484375,-0.0245361328125,0.0059814453125
1663861767209227300,12.201227294921875,0.0125274658203125,-0.025604248046875,0.00384521484375
1663861767219115000,12.211114990234375,0.0093231201171875,-0.025604248046875,0.0027923583984375
1663861767229002500,12.22100244140625,0.0093231201171875,-0.0224151611328125,0.00384521484375
1663861767238890200,12.23089013671875,0.0082550048828125,-0.023468017578125,0.004913330078125
1663861767248778000,12.240778076171875,0.0114593505859375,-0.023468017578125,0.0059814453125
1663861767258665700,12.250665771484375,0.013580322265625,-0.025604248046875,0.007049560546875
1663861767268553500,12.260553466796875,0.015716552734375,-0.0319976806640625,0.00384521484375
1663861767278441000,12.27044091796875,0.0189208984375,-0.0341339111328125,0.0027923583984375
1663861767288328700,12.28032861328125,0.0199737548828125,-0.0362548828125,0.00384521484375
1663861767298186000,12.29018603515625,0.0199737548828125,-0.0362548828125,0.00384521484375
1663861767308073700,12.30007373046875,0.017852783203125,-0.0341339111328125,0.004913330078125
1663861767317930800,12.3099306640625,0.0114593505859375,-0.027740478515625,0.007049560546875
1663861767327818500,12.319818603515625,0.0082550048828125,-0.025604248046875,0.004913330078125
1663861767337706200,12.329706298828125,0.0082550048828125,-0.025604248046875,0.0027923583984375
1663861767347594000,12.339593994140625,0.0103912353515625,-0.02880859375,0.0006561279296875
1663861767357481500,12.3494814453125,0.0114593505859375,-0.0341339111328125,0.0017242431640625
1663861767367338800,12.3593388671875,0.0146484375,-0.0362548828125,0.0027923583984375
1663861767377226500,12.3692265625,0.0146484375,-0.035186767578125,0.0027923583984375
1663861767387114200,12.3791142578125,0.013580322265625,-0.027740478515625,0.007049560546875
1663861767396971300,12.38897119140625,0.0114593505859375,-0.01708984375,0.00811767578125
1663861767406889500,12.398889404296876,0.0103912353515625,-0.0117645263671875,0.007049560546875
1663861767416777200,12.408777099609376,0.0103912353515625,-0.0128173828125,0.004913330078125
1663861767426665000,12.4186650390625,0.0093231201171875,-0.01495361328125,0.0027923583984375
1663861767436522000,12.42852197265625,0.0093231201171875,-0.0181427001953125,0.0017242431640625
1663861767446409700,12.43840966796875,0.0093231201171875,-0.01495361328125,0.0006561279296875
1663861767456297500,12.44829736328125,0.0114593505859375,-0.0106964111328125,0.0006561279296875
1663861767466185200,12.458185302734375,0.0103912353515625,-0.00537109375,0.0017242431640625
1663861767476073000,12.468072998046875,0.0103912353515625,-0.0000457763671875,0.0017242431640625
1663861767485930000,12.477929931640626,0.0114593505859375,0.00634765625,0.0027923583984375
1663861767495817700,12.487817626953126,0.0125274658203125,0.007415771484375,0.0006561279296875
1663861767505705500,12.49770556640625,0.0125274658203125,0.0116729736328125,0.0017242431640625
1663861767515593200,12.50759326171875,0.0125274658203125,0.0127410888671875,0.0006561279296875
1663861767525481000,12.51748095703125,0.0146484375,0.0116729736328125,-0.0004119873046875
1663861767535368400,12.527368408203126,0.015716552734375,0.009552001953125,-0.0014801025390625
1663861767545256200,12.537256103515626,0.0146484375,0.009552001953125,-0.0004119873046875
1663861767555113500,12.547113525390625,0.013580322265625,0.0138092041015625,0.0027923583984375
1663861767564970500,12.556970458984376,0.0103912353515625,0.0138092041015625,0.00384521484375
1663861767574888700,12.566888671875,0.0103912353515625,0.0148773193359375,0.00384521484375
1663861767584746000,12.57674609375,0.0103912353515625,0.0138092041015625,0.0027923583984375
1663861767594633700,12.5866337890625,0.0082550048828125,0.009552001953125,0.0027923583984375
1663861767604521500,12.596521484375,0.0082550048828125,0.00634765625,0.004913330078125
1663861767614409000,12.606408935546876,0.0082550048828125,0.0042266845703125,0.007049560546875
1663861767624296700,12.616296630859376,0.0093231201171875,0.0020904541015625,0.007049560546875
1663861767634154000,12.626154052734375,0.0093231201171875,0.0052947998046875,0.00811767578125
1663861767644072200,12.636072265625,0.0093231201171875,0.00634765625,0.007049560546875
1663861767653960000,12.6459599609375,0.0114593505859375,0.0042266845703125,0.007049560546875
1663861767663847400,12.655847412109376,0.0114593505859375,0.0031585693359375,0.007049560546875
1663861767673753000,12.665753173828126,0.0114593505859375,0.0020904541015625,0.0059814453125
1663861767683640600,12.675640625,0.0125274658203125,-0.0010986328125,0.0059814453125
1663861767693528300,12.6855283203125,0.0103912353515625,-0.00537109375,0.004913330078125
1663861767703416000,12.695416015625,0.0093231201171875,-0.0064239501953125,0.0027923583984375
1663861767713273300,12.7052734375,0.0072021484375,-0.0064239501953125,0.0006561279296875
1663861767723160800,12.715160888671875,0.006134033203125,-0.0074920654296875,-0.0004119873046875
1663861767733048600,12.725048583984375,0.0072021484375,-0.0074920654296875,-0.0014801025390625
1663861767742936300,12.734936279296875,0.006134033203125,-0.0096282958984375,0.0006561279296875
1663861767752793600,12.744793701171876,0.006134033203125,-0.0117645263671875,0.0017242431640625
1663861767762681000,12.75468115234375,0.0072021484375,-0.0096282958984375,0.0006561279296875
1663861767772538400,12.764538330078125,0.0072021484375,-0.0085601806640625,0.0006561279296875
1663861767782426000,12.774426025390625,0.0072021484375,-0.0085601806640625,0.0017242431640625
1663861767792283100,12.784283203125,0.0093231201171875,-0.004302978515625,0.0027923583984375
1663861767802201300,12.794201416015625,0.0072021484375,-0.0000457763671875,0.00384521484375
1663861767812058600,12.80405859375,0.0093231201171875,0.0052947998046875,0.004913330078125
1663861767821976800,12.813976806640625,0.0093231201171875,0.0042266845703125,0.004913330078125
1663861767831834000,12.823834228515626,0.0082550048828125,0.0031585693359375,0.00384521484375
1663861767841691100,12.833691162109375,0.0082550048828125,0.0010223388671875,0.00384521484375
1663861767851609300,12.843609375,0.0082550048828125,0.0020904541015625,0.0017242431640625
1663861767861466600,12.853466552734375,0.00506591796875,0.0031585693359375,0.00384521484375
1663861767871384800,12.863384765625,0.00506591796875,0.0031585693359375,0.00384521484375
1663861767881272600,12.8732724609375,0.003997802734375,0.00634765625,0.0027923583984375
1663861767891160000,12.88316015625,0.006134033203125,0.00848388671875,0.004913330078125
1663861767901047800,12.8930478515625,0.0082550048828125,0.009552001953125,0.004913330078125
1663861767910905000,12.902905029296875,0.0082550048828125,0.0106201171875,0.00384521484375
1663861767920792800,12.912792724609375,0.0072021484375,0.007415771484375,0.00384521484375
1663861767930649900,12.92264990234375,0.0072021484375,0.00634765625,0.0017242431640625
1663861767940568000,12.932568115234375,0.00506591796875,0.00634765625,0.0006561279296875
1663861767950455800,12.942455810546875,0.006134033203125,0.007415771484375,0.0006561279296875
1663861767960343600,12.952343505859375,0.006134033203125,0.0052947998046875,0.0017242431640625
1663861767970231300,12.962231201171875,0.006134033203125,0.0042266845703125,-0.0004119873046875
1663861767980119000,12.972119140625,0.006134033203125,0.0010223388671875,-0.0004119873046875
1663861767990006500,12.982006591796875,0.00506591796875,0.0010223388671875,-0.0014801025390625
1663861767999894300,12.991894287109375,0.003997802734375,0.0042266845703125,-0.0025482177734375
1663861768009751600,13.00175146484375,0.0029296875,0.0031585693359375,-0.0014801025390625
1663861768019639300,13.011639404296876,0.00506591796875,-0.0000457763671875,-0.0014801025390625
1663861768029526800,13.02152685546875,0.0072021484375,-0.004302978515625,-0.0004119873046875
1663861768039414500,13.03141455078125,0.006134033203125,-0.0074920654296875,-0.0004119873046875
1663861768049302300,13.04130224609375,0.0082550048828125,-0.013885498046875,-0.0004119873046875
1663861768059190000,13.05118994140625,0.0082550048828125,-0.0202789306640625,-0.0014801025390625
1663861768069047000,13.061047119140625,0.0072021484375,-0.0224151611328125,-0.0025482177734375
