time,seconds_elapsed,z,y,x
1663861755223120600,0.21512060546875,-87.3138427734375,-54.23126220703125,78.73077392578125
1663861755243079200,0.2350791015625,-86.80877685546875,-52.1087646484375,77.98004150390625
1663861755263098600,0.2550986328125,-86.2213134765625,-53.1585693359375,79.49981689453125
1663861755283118000,0.2751181640625,-86.32965087890625,-51.18865966796875,78.900146484375
1663861755303076600,0.29507666015625,-86.65313720703125,-51.95159912109375,78.59039306640625
1663861755323065600,0.315065673828125,-88.787841796875,-51.9622802734375,77.825927734375
1663861755343054600,0.3350546875,-86.1572265625,-50.2838134765625,77.98919677734375
1663861755363043600,0.355043701171875,-88.33465576171875,-52.1209716796875,76.91192626953125
1663861755383032600,0.375032470703125,-89.07470703125,-51.068115234375,75.848388671875
1663861755403021600,0.395021484375,-89.68353271484375,-51.06201171875,76.60980224609375
1663861755423010800,0.4150107421875,-87.7166748046875,-51.67388916015625,75.69580078125
1663861755442999800,0.434999755859375,-88.4613037109375,-50.92010498046875,75.2410888671875
1663861755463324400,0.455324462890625,-89.12353515625,-53.1951904296875,75.8392333984375
1663861755483100000,0.475099853515625,-89.72625732421875,-52.899169921875,75.07781982421875
1663861755502966800,0.494966796875,-88.52081298828125,-53.50799560546875,74.6185302734375
1663861755522986200,0.514986328125,-88.68560791015625,-53.9825439453125,72.4822998046875
1663861755542944800,0.53494482421875,-89.60418701171875,-54.13360595703125,72.78594970703125
1663861755562933800,0.554933837890625,-89.61639404296875,-54.6051025390625,70.95489501953125
1663861755582953200,0.574953125,-89.46533203125,-54.74090576171875,72.93548583984375
1663861755602911700,0.594911865234375,-88.8427734375,-54.14276123046875,71.5667724609375
1663861755622900700,0.614900634765625,-90.26947021484375,-56.57196044921875,72.16339111328125
1663861755642889700,0.6348896484375,-88.71002197265625,-55.04608154296875,72.47772216796875
1663861755662879000,0.65487890625,-90.40374755859375,-55.67779541015625,70.18585205078125
1663861755682868000,0.674867919921875,-88.7359619140625,-56.11572265625,71.86279296875
1663861755702857000,0.69485693359375,-89.3341064453125,-55.65643310546875,72.320556640625
1663861755722846000,0.714845947265625,-88.41705322265625,-55.50994873046875,71.4080810546875
1663861755742835000,0.7348349609375,-88.87786865234375,-55.657958984375,72.01690673828125
1663861755762793500,0.75479345703125,-89.1510009765625,-54.29229736328125,71.87042236328125
1663861755782813000,0.77481298828125,-87.82806396484375,-56.42547607421875,70.947265625
1663861755802802000,0.794802001953125,-90.38543701171875,-54.901123046875,72.0184326171875
1663861755822760400,0.814760498046875,-89.27764892578125,-53.0853271484375,70.9625244140625
1663861755842780000,0.83477978515625,-88.885498046875,-55.9783935546875,70.18585205078125
1663861755862769000,0.854768798828125,-89.47601318359375,-55.0750732421875,69.27490234375
1663861755882758000,0.8747578125,-90.72723388671875,-56.44378662109375,69.41986083984375
1663861755902747000,0.894746826171875,-88.63677978515625,-58.282470703125,67.12646484375
1663861755922735900,0.91473583984375,-89.51263427734375,-56.6070556640625,67.74444580078125
1663861755942724900,0.934724853515625,-89.22576904296875,-57.3699951171875,67.43621826171875
1663861755962714000,0.954714111328125,-89.84222412109375,-57.672119140625,67.73834228515625
1663861755982672400,0.97467236328125,-89.79339599609375,-55.5511474609375,66.98760986328125
1663861756002692000,0.994692138671875,-88.77716064453125,-57.69500732421875,64.84375
1663861756022681000,1.01468115234375,-91.02935791015625,-56.1767578125,65.15350341796875
1663861756042670000,1.034670166015625,-90.11077880859375,-56.0211181640625,65.3076171875
1663861756062659000,1.0546591796875,-88.77716064453125,-57.69805908203125,64.385986328125
1663861756082648000,1.07464794921875,-90.2862548828125,-56.94580078125,63.7786865234375
1663861756102637000,1.094636962890625,-89.54620361328125,-58.00018310546875,64.84222412109375
1663861756122626000,1.1146259765625,-90.6097412109375,-57.71331787109375,63.0126953125
1663861756142615000,1.134614990234375,-89.3524169921875,-56.05010986328125,61.651611328125
1663861756162604000,1.15460400390625,-89.68353271484375,-57.12432861328125,60.57891845703125
1663861756182593000,1.174593017578125,-90.78521728515625,-58.642578125,61.02752685546875
1663861756202582300,1.194582275390625,-88.7603759765625,-56.6802978515625,58.905029296875
1663861756222571300,1.2145712890625,-89.7216796875,-58.67156982421875,57.2174072265625
1663861756242560300,1.234560302734375,-90.4693603515625,-57.9345703125,54.7821044921875
1663861756262518800,1.254518798828125,-88.6962890625,-60.247802734375,50.35400390625
1663861756282538200,1.274538330078125,-87.6434326171875,-60.85968017578125,49.58953857421875
1663861756302527200,1.29452734375,-84.62982177734375,-62.26806640625,43.94683837890625
1663861756322516200,1.31451611328125,-82.6812744140625,-63.5223388671875,38.91448974609375
1663861756342749400,1.33474951171875,-79.67529296875,-65.23284912109375,33.575439453125
1663861756362616300,1.3546162109375,-74.969482421875,-66.01409912109375,29.91943359375
1663861756382483200,1.374483154296875,-70.05767822265625,-64.38140869140625,23.98834228515625
1663861756402472200,1.39447216796875,-67.0745849609375,-60.4522705078125,20.65887451171875
1663861756422430700,1.4144306640625,-62.4237060546875,-56.9793701171875,16.8701171875
1663861756442450400,1.434450439453125,-61.541748046875,-51.54266357421875,12.4786376953125
1663861756462439400,1.454439453125,-56.24847412109375,-46.673583984375,11.8988037109375
1663861756482428400,1.474428466796875,-52.6153564453125,-41.05987548828125,9.95025634765625
1663861756502417400,1.49441748046875,-48.85406494140625,-36.63787841796875,10.73760986328125
1663861756522406400,1.514406494140625,-50.0091552734375,-33.75244140625,10.74981689453125
1663861756542395400,1.5343955078125,-50.238037109375,-30.40924072265625,10.7666015625
1663861756562354000,1.55435400390625,-51.239013671875,-27.520751953125,11.083984375
1663861756582373400,1.574373291015625,-52.30712890625,-27.52532958984375,10.77880859375
1663861756602362400,1.5943623046875,-55.0628662109375,-28.12347412109375,12.7532958984375
1663861756622351400,1.614351318359375,-55.6854248046875,-28.594970703125,11.0748291015625
1663861756642340400,1.63434033203125,-56.1309814453125,-28.125,12.75177001953125
1663861756662329300,1.654329345703125,-57.025146484375,-27.20947265625,13.36517333984375
1663861756682318600,1.674318603515625,-57.9620361328125,-28.14178466796875,11.22589111328125
1663861756702307600,1.6943076171875,-56.76116943359375,-29.03900146484375,12.5946044921875
1663861756722296600,1.714296630859375,-57.9864501953125,-29.2022705078125,11.67755126953125
1663861756742285600,1.73428564453125,-55.14678955078125,-31.77642822265625,11.97357177734375
1663861756762274600,1.754274658203125,-56.8939208984375,-34.82818603515625,11.04278564453125
1663861756782263600,1.774263671875,-56.57501220703125,-34.21783447265625,11.19842529296875
1663861756802252500,1.79425244140625,-55.4046630859375,-36.34796142578125,10.73150634765625
1663861756822241500,1.814241455078125,-54.06341552734375,-37.71209716796875,10.7269287109375
1663861756842230500,1.83423046875,-50.37994384765625,-36.64398193359375,10.2783203125
1663861756862219500,1.854219482421875,-51.5625,-34.9761962890625,10.13336181640625
1663861756882178000,1.874177978515625,-49.114990234375,-34.66796875,10.137939453125
1663861756902197800,1.89419775390625,-49.090576171875,-33.6029052734375,10.14251708984375
1663861756922186800,1.914186767578125,-48.4619140625,-32.70416259765625,8.4716796875
1663861756942175700,1.93417578125,-48.43292236328125,-31.4788818359375,9.54437255859375
1663861756962164700,1.954164794921875,-49.90692138671875,-29.327392578125,12.9058837890625
1663861756982123300,1.974123291015625,-50.30059814453125,-26.580810546875,14.2913818359375
1663861757002142700,1.994142822265625,-50.86669921875,-24.61395263671875,13.385009765625
1663861757022131700,2.014131591796875,-49.3011474609375,-22.79052734375,12.939453125
1663861757042120700,2.03412060546875,-49.041748046875,-18.206787109375,15.704345703125
1663861757062109700,2.054109619140625,-50.23345947265625,-16.9891357421875,16.31927490234375
1663861757082098700,2.0740986328125,-48.36578369140625,-15.44647216796875,18.463134765625
1663861757102087700,2.094087646484375,-47.125244140625,-14.53094482421875,18.62030029296875
1663861757122076700,2.11407666015625,-47.2503662109375,-13.31787109375,18.47381591796875
1663861757142066000,2.13406591796875,-49.5208740234375,-12.56256103515625,18.475341796875
1663861757162055000,2.154054931640625,-49.23553466796875,-13.4613037109375,19.842529296875
1663861757182044000,2.1740439453125,-48.16131591796875,-13.1591796875,19.3878173828125
1663861757202033000,2.194032958984375,-48.651123046875,-14.53399658203125,18.6187744140625
1663861757222266000,2.21426611328125,-48.00262451171875,-12.98980712890625,21.36993408203125
1663861757242163500,2.23416357421875,-48.101806640625,-10.56671142578125,20.4681396484375
1663861757261999900,2.253999755859375,-47.9522705078125,-10.71929931640625,20.3155517578125
1663861757281988900,2.27398876953125,-47.2137451171875,-11.78131103515625,20.31097412109375
1663861757302008300,2.29400830078125,-46.02508544921875,-13.14849853515625,20.15228271484375
1663861757321966800,2.313966796875,-44.79217529296875,-12.5457763671875,19.24285888671875
1663861757341955800,2.333955810546875,-45.9747314453125,-10.87188720703125,19.85931396484375
1663861757361944800,2.35394482421875,-45.79315185546875,-9.6466064453125,20.7794189453125
1663861757381934000,2.37393408203125,-43.3135986328125,-7.96051025390625,22.01080322265625
1663861757401923000,2.393923095703125,-44.10858154296875,-9.46807861328125,23.5260009765625
1663861757421912000,2.413912109375,-41.90673828125,-6.561279296875,25.37078857421875
1663861757441901000,2.433901123046875,-40.59600830078125,-2.72674560546875,29.2022705078125
1663861757461890000,2.45389013671875,-39.95361328125,-1.34735107421875,30.4290771484375
1663861757481879000,2.473879150390625,-41.90826416015625,-0.128173828125,31.34613037109375
1663861757501868000,2.493867919921875,-41.2841796875,0.35858154296875,34.85565185546875
1663861757521857000,2.51385693359375,-42.0196533203125,1.434326171875,36.383056640625
1663861757541846000,2.533845947265625,-41.86859130859375,1.29852294921875,38.3636474609375
1663861757561835000,2.5538349609375,-44.12689208984375,2.5238037109375,40.04364013671875
1663861757581824000,2.573823974609375,-44.10247802734375,3.5858154296875,39.74456787109375
1663861757601843700,2.59384375,-46.71630859375,2.54058837890625,42.63153076171875
1663861757621802200,2.61380224609375,-47.2991943359375,3.7567138671875,42.79022216796875
1663861757641791200,2.633791259765625,-44.7052001953125,3.76739501953125,43.5546875
1663861757661780200,2.6537802734375,-46.97723388671875,4.38079833984375,44.77386474609375
1663861757681761300,2.67376123046875,-49.12567138671875,3.77044677734375,44.921875
1663861757701750300,2.693750244140625,-47.723388671875,5.13763427734375,44.47174072265625
1663861757721739500,2.713739501953125,-47.74627685546875,4.08477783203125,45.83892822265625
1663861757741728500,2.733728515625,-46.96197509765625,5.12542724609375,42.94891357421875
1663861757761686800,2.753686767578125,-44.87762451171875,2.8594970703125,44.00787353515625
1663861757781706500,2.77370654296875,-45.0103759765625,3.77349853515625,44.31610107421875
1663861757801695500,2.793695556640625,-44.38323974609375,4.534912109375,44.3206787109375
1663861757821684500,2.8136845703125,-46.21429443359375,4.52117919921875,43.0999755859375
1663861757841673500,2.833673583984375,-44.51446533203125,5.4443359375,44.02008056640625
1663861757861662500,2.853662353515625,-45.294189453125,4.68292236328125,44.0155029296875
1663861757881651500,2.8736513671875,-44.54498291015625,4.0802001953125,44.47021484375
1663861757901640400,2.893640380859375,-45.31707763671875,3.6285400390625,45.2301025390625
1663861757921629400,2.91362939453125,-45.904541015625,4.67681884765625,43.4051513671875
1663861757941618400,2.933618408203125,-44.85015869140625,4.08172607421875,44.775390625
1663861757961577000,2.953576904296875,-45.611572265625,4.08477783203125,45.23162841796875
1663861757981596700,2.9735966796875,-45.916748046875,4.0802001953125,44.77386474609375
1663861758001585700,2.993585693359375,-44.37103271484375,5.0018310546875,45.69549560546875
1663861758021574700,3.01357470703125,-44.9676513671875,5.596923828125,44.32525634765625
1663861758041563600,3.033563720703125,-44.9798583984375,5.0048828125,46.1517333984375
1663861758061552600,3.053552734375,-45.9014892578125,4.70733642578125,47.06268310546875
1663861758081511200,3.07351123046875,-44.69146728515625,4.25262451171875,46.91009521484375
1663861758101805300,3.093805419921875,-45.42083740234375,5.6304931640625,48.2879638671875
1663861758121733400,3.1137333984375,-44.94781494140625,6.37969970703125,46.9207763671875
1663861758141508600,3.133508544921875,-44.50836181640625,5.49163818359375,49.65972900390625
1663861758161528300,3.1535283203125,-44.05364990234375,5.47332763671875,47.37396240234375
1663861758181486600,3.173486572265625,-44.98748779296875,4.571533203125,48.7396240234375
1663861758201506300,3.19350634765625,-44.81353759765625,5.487060546875,49.20196533203125
1663861758221464800,3.21346484375,-44.82269287109375,5.16510009765625,47.0672607421875
1663861758241453800,3.233453857421875,-44.5343017578125,4.41436767578125,48.13079833984375
1663861758261412400,3.253412353515625,-44.95697021484375,6.06536865234375,45.7000732421875
1663861758281431800,3.273431884765625,-43.30291748046875,5.010986328125,46.45843505859375
1663861758301420800,3.2934208984375,-44.86541748046875,3.3355712890625,46.295166015625
1663861758321409800,3.313409912109375,-43.60809326171875,5.0079345703125,46.15325927734375
1663861758341398800,3.333398681640625,-44.6929931640625,4.2388916015625,45.3857421875
1663861758361387800,3.3533876953125,-45.25146484375,6.5185546875,45.54901123046875
1663861758381376800,3.373376708984375,-44.68536376953125,4.5562744140625,46.91162109375
1663861758401365800,3.39336572265625,-44.83642578125,4.68292236328125,44.01702880859375
1663861758421354800,3.413354736328125,-44.54498291015625,4.0802001953125,44.47021484375
1663861758441344000,3.433343994140625,-44.366455078125,5.28411865234375,43.1060791015625
1663861758461333000,3.4533330078125,-45.4071044921875,6.365966796875,45.3948974609375
1663861758481322000,3.473322021484375,-45.32318115234375,3.32794189453125,45.53375244140625
1663861758501311000,3.49331103515625,-43.41278076171875,6.96563720703125,44.02923583984375
1663861758521300000,3.513300048828125,-44.8089599609375,5.9051513671875,44.7845458984375
1663861758541258500,3.533258544921875,-43.7835693359375,4.0771484375,44.01397705078125
1663861758561278000,3.55327783203125,-44.82421875,5.15899658203125,46.3043212890625
1663861758581267000,3.573266845703125,-46.2432861328125,3.16314697265625,44.3115234375
1663861758601256000,3.593255859375,-43.798828125,3.33251953125,45.83892822265625
1663861758621245000,3.613244873046875,-43.9239501953125,4.541015625,44.9310302734375
1663861758641234000,3.63323388671875,-44.9676513671875,5.6060791015625,45.391845703125
1663861758661223000,3.653222900390625,-43.768310546875,4.69818115234375,45.5413818359375
1663861758681212200,3.673212158203125,-43.6492919921875,3.18450927734375,46.14410400390625
1663861758701201200,3.693201171875,-43.90716552734375,5.29632568359375,44.32525634765625
1663861758721190100,3.713190185546875,-44.08721923828125,4.083251953125,44.77691650390625
1663861758741179100,3.73317919921875,-43.304443359375,4.99267578125,44.32373046875
1663861758761168100,3.753168212890625,-44.6868896484375,4.5440673828125,45.38726806640625
1663861758781157000,3.7731572265625,-44.39849853515625,3.7841796875,45.38421630859375
1663861758801115600,3.79311572265625,-45.59783935546875,4.69207763671875,45.23468017578125
1663861758821135000,3.813135009765625,-44.50225830078125,5.91278076171875,45.5474853515625
1663861758841124000,3.8331240234375,-46.37451171875,4.07867431640625,44.77386474609375
1663861758861113000,3.853113037109375,-44.69451904296875,4.229736328125,44.31915283203125
1663861758881102000,3.87310205078125,-44.4244384765625,2.7069091796875,43.85528564453125
1663861758901091300,3.89309130859375,-45.00885009765625,3.78570556640625,45.6878662109375
1663861758921080300,3.913080322265625,-43.768310546875,4.69207763671875,44.77996826171875
1663861758941069300,3.9330693359375,-43.463134765625,4.6966552734375,45.23773193359375
1663861758961058300,3.953058349609375,-44.35577392578125,5.61676025390625,46.4599609375
1663861758981352400,3.9733525390625,-43.914794921875,4.99725341796875,44.93255615234375
1663861759001280500,3.993280517578125,-45.281982421875,5.1513671875,45.5413818359375
1663861759021025300,4.013025390625,-45.29876708984375,4.3975830078125,46.29974365234375
1663861759041014300,4.03301416015625,-44.99664306640625,4.248046875,46.45233154296875
1663861759061003300,4.053003173828125,-43.62030029296875,4.53948974609375,44.6258544921875
1663861759080992300,4.0729921875,-46.34246826171875,5.462646484375,46.6094970703125
1663861759100981200,4.092981201171875,-44.54498291015625,4.0863037109375,45.233154296875
1663861759120970200,4.11297021484375,-44.09637451171875,3.6346435546875,45.5352783203125
1663861759140959500,4.13295947265625,-44.7113037109375,3.4759521484375,44.9249267578125
1663861759160948500,4.152948486328125,-43.65081787109375,3.1707763671875,44.6197509765625
1663861759180937500,4.1729375,-46.1944580078125,5.291748046875,44.32220458984375
1663861759200926500,4.192926513671875,-45.7366943359375,5.3009033203125,45.39031982421875
1663861759220885000,4.212885009765625,-44.54498291015625,4.07562255859375,44.01397705078125
1663861759240904400,4.232904541015625,-44.08721923828125,4.083251953125,44.77691650390625
1663861759260893400,4.2528935546875,-45.29876708984375,4.39453125,45.843505859375
1663861759280852000,4.27285205078125,-45.58258056640625,5.43975830078125,43.71490478515625
1663861759300871400,4.292871337890625,-43.90869140625,5.29022216796875,43.5638427734375
1663861759320860400,4.3128603515625,-45.77178955078125,3.77197265625,44.31610107421875
1663861759340849400,4.332849365234375,-44.55413818359375,3.63616943359375,45.8404541015625
1663861759360838400,4.35283837890625,-44.69451904296875,4.2327880859375,44.62432861328125
1663861759380797000,4.372796875,-44.9554443359375,6.06842041015625,46.15631103515625
1663861759400816600,4.392816650390625,-45.281982421875,5.1513671875,45.5413818359375
1663861759420805600,4.4128056640625,-45.294189453125,4.68597412109375,44.4732666015625
1663861759440794600,4.432794677734375,-44.06280517578125,5.15594482421875,45.84808349609375
1663861759460783600,4.45278369140625,-46.67816162109375,4.08782958984375,45.8404541015625
1663861759480742100,4.4727421875,-44.07958984375,4.39605712890625,45.84503173828125
1663861759500761600,4.49276171875,-45.33538818359375,2.8656005859375,44.769287109375
1663861759520750600,4.51275048828125,-43.94073486328125,3.7872314453125,45.68939208984375
1663861759540709000,4.532709228515625,-44.51446533203125,5.450439453125,44.78302001953125
1663861759560728600,4.552728515625,-44.818115234375,5.45806884765625,45.849609375
1663861759580717600,4.572717529296875,-45.02410888671875,3.16619873046875,44.31304931640625
1663861759600676000,4.592676025390625,-44.85015869140625,4.07867431640625,44.47021484375
1663861759620695800,4.61269580078125,-45.4315185546875,5.2978515625,44.93255615234375
1663861759640684800,4.632684814453125,-44.6624755859375,5.60302734375,44.93560791015625
1663861759660673800,4.652673828125,-45.281982421875,5.1544189453125,45.8465576171875
1663861759680662800,4.672662841796875,-45.7611083984375,4.23736572265625,45.38421630859375
1663861759700651800,4.69265185546875,-44.70367431640625,3.7841796875,45.38421630859375
1663861759720640800,4.712640869140625,-43.93157958984375,4.2327880859375,44.3206787109375
1663861759740629800,4.732629638671875,-44.38934326171875,4.23431396484375,44.62432861328125
1663861759760618800,4.75261865234375,-45.62835693359375,3.3355712890625,46.600341796875
1663861759780607700,4.772607666015625,-44.512939453125,5.45501708984375,45.2392578125
1663861759800596700,4.7925966796875,-45.29876708984375,4.3975830078125,46.29974365234375
1663861759820585700,4.812585693359375,-43.3319091796875,3.78570556640625,45.3857421875
1663861759840574700,4.83257470703125,-46.19293212890625,5.30242919921875,45.6939697265625
1663861759860899600,4.852899658203125,-43.6370849609375,3.77960205078125,44.622802734375
1663861759880827600,4.87282763671875,-44.85931396484375,3.6346435546875,45.8404541015625
1663861759900603000,4.892602783203125,-45.62835693359375,3.32489013671875,45.22857666015625
1663861759920531000,4.912531005859375,-45.30792236328125,4.08172607421875,44.775390625
1663861759940550400,4.93255029296875,-45.489501953125,2.72369384765625,46.1395263671875
1663861759960539400,4.952539306640625,-43.01300048828125,4.39605712890625,45.5413818359375
1663861759980498000,4.972497802734375,-43.92242431640625,4.55169677734375,46.15020751953125
1663861760000487000,4.99248681640625,-43.90716552734375,5.3009033203125,44.93408203125
1663861760020476000,5.012475830078125,-45.7611083984375,4.23126220703125,44.622802734375
1663861760040465000,5.03246484375,-44.83642578125,4.6875,44.4732666015625
1663861760060454000,5.052453857421875,-44.561767578125,3.3233642578125,44.7723388671875
1663861760080443000,5.07244287109375,-43.756103515625,5.16357421875,46.61102294921875
1663861760100432100,5.09243212890625,-45.306396484375,4.09393310546875,46.2982177734375
1663861760120421000,5.112421142578125,-44.66094970703125,5.61676025390625,46.4599609375
1663861760140410000,5.13241015625,-44.53887939453125,4.37774658203125,43.7103271484375
1663861760160399000,5.152399169921875,-44.79522705078125,6.50787353515625,44.024658203125
1663861760180388000,5.17238818359375,-45.318603515625,3.619384765625,44.01092529296875
1663861760200377000,5.192377197265625,-45.4376220703125,5.0048828125,46.15020751953125
1663861760220396500,5.212396484375,-46.52557373046875,4.22210693359375,43.85986328125
1663861760240355000,5.23235498046875,-45.4742431640625,3.46832275390625,44.3145751953125
1663861760260344000,5.252343994140625,-46.54083251953125,3.47747802734375,45.684814453125
1663861760280333000,5.2723330078125,-44.53125,4.69512939453125,45.2362060546875
1663861760300322000,5.292322021484375,-46.96044921875,5.13916015625,44.4732666015625
1663861760320311300,5.312311279296875,-43.9300537109375,4.24346923828125,45.69091796875
1663861760340300300,5.33230029296875,-44.50225830078125,5.91278076171875,45.5474853515625
1663861760360258600,5.352258544921875,-44.85015869140625,4.07562255859375,44.01397705078125
1663861760380278300,5.3722783203125,-45.4376220703125,5.0048828125,46.15020751953125
1663861760400267300,5.392267333984375,-44.51904296875,5.15594482421875,45.84808349609375
1663861760420256300,5.41225634765625,-45.60394287109375,4.3914794921875,45.538330078125
1663861760440245200,5.432245361328125,-42.07000732421875,5.609130859375,44.93865966796875
1663861760460234200,5.452234130859375,-45.40863037109375,6.3507080078125,43.56689453125
1663861760480223200,5.47222314453125,-45.294189453125,4.68597412109375,44.4732666015625
1663861760500212200,5.492212158203125,-43.01300048828125,4.39605712890625,45.5413818359375
1663861760520201200,5.512201171875,-44.8486328125,4.09698486328125,46.60491943359375
1663861760540190200,5.532190185546875,-44.53125,4.6905517578125,44.7784423828125
1663861760560179500,5.552179443359375,-44.83642578125,4.6905517578125,44.7784423828125
1663861760580168400,5.57216845703125,-43.75152587890625,5.44891357421875,44.47784423828125
1663861760600157400,5.592157470703125,-45.31707763671875,3.631591796875,45.5352783203125
1663861760620146400,5.612146484375,-45.6298828125,3.3203125,44.77081298828125
1663861760640135400,5.632135498046875,-43.32122802734375,4.23583984375,44.6258544921875
1663861760660124400,5.65212451171875,-43.6187744140625,4.55169677734375,46.15020751953125
1663861760680113400,5.672113525390625,-45.72906494140625,5.6121826171875,46.15325927734375
1663861760700102400,5.692102294921875,-43.63555908203125,3.78570556640625,45.38421630859375
1663861760720061000,5.71206103515625,-44.08111572265625,4.38690185546875,44.7784423828125
1663861760740080400,5.732080322265625,-43.9666748046875,2.71453857421875,44.61669921875
1663861760760374500,5.75237451171875,-44.40765380859375,3.466796875,43.85833740234375
1663861760780119600,5.77211962890625,-44.55413818359375,3.63006591796875,45.2301025390625
1663861760800047600,5.792047607421875,-43.49365234375,3.3294677734375,45.2301025390625
1663861760820036600,5.81203662109375,-44.9920654296875,4.54254150390625,45.38726806640625
1663861760840025600,5.832025634765625,-43.78204345703125,4.09088134765625,45.538330078125
1663861760860014600,5.8520146484375,-45.29876708984375,4.39453125,45.843505859375
1663861760880003600,5.872003662109375,-44.55413818359375,3.63006591796875,45.2301025390625
1663861760899992600,5.89199267578125,-43.7744140625,4.400634765625,46.30279541015625
1663861760919981600,5.911981689453125,-45.27587890625,5.45806884765625,45.84808349609375
1663861760939970600,5.931970458984375,-44.8272705078125,5.13916015625,44.0185546875
1663861760959959600,5.95195947265625,-44.866943359375,3.326416015625,45.22857666015625
1663861760979948500,5.971948486328125,-42.8619384765625,4.25567626953125,46.91162109375
1663861760999937500,5.9919375,-45.7427978515625,4.99725341796875,45.3887939453125
1663861761019926500,6.011926513671875,-42.88787841796875,3.18145751953125,45.6878662109375
1663861761039915800,6.031915771484375,-41.17889404296875,4.425048828125,48.43902587890625
1663861761059904800,6.05190478515625,-44.097900390625,3.631591796875,45.23162841796875
1663861761079893800,6.071893798828125,-43.44482421875,5.46112060546875,45.85113525390625
1663861761099882800,6.0918828125,-43.77899169921875,4.10614013671875,47.36785888671875
1663861761119871700,6.111871826171875,-44.82421875,5.15289306640625,45.54290771484375
1663861761139830300,6.131830322265625,-43.4539794921875,5.1483154296875,44.781494140625
1663861761159849700,6.151849609375,-44.6746826171875,5.00640869140625,46.1517333984375
1663861761179838700,6.171838623046875,-43.6065673828125,5.01708984375,47.2198486328125
1663861761199827700,6.19182763671875,-43.76678466796875,4.70428466796875,46.3043212890625
1663861761219816700,6.211816650390625,-44.37103271484375,5.0018310546875,45.69549560546875
1663861761239805700,6.2318056640625,-43.92242431640625,4.55169677734375,46.15020751953125
1663861761259794700,6.251794677734375,-44.36187744140625,5.3192138671875,47.2198486328125
1663861761279784000,6.271783935546875,-43.7255859375,6.524658203125,45.855712890625
1663861761299773000,6.29177294921875,-42.5506591796875,4.55474853515625,46.1517333984375
1663861761319762000,6.311761962890625,-43.27850341796875,6.072998046875,46.1578369140625
1663861761339751000,6.3317509765625,-43.90411376953125,5.32989501953125,48.2879638671875
1663861761359740000,6.351739990234375,-43.79119873046875,3.643798828125,46.6033935546875
1663861761379729000,6.37172900390625,-42.7001953125,4.7027587890625,45.84808349609375
1663861761399718000,6.3917177734375,-43.6004638671875,5.32073974609375,47.22137451171875
1663861761419829000,6.4118291015625,-44.54345703125,4.0985107421875,46.60491943359375
1663861761439696000,6.43169580078125,-42.8314208984375,5.6243896484375,46.91925048828125
1663861761459715600,6.451715576171875,-42.44232177734375,2.58941650390625,47.36175537109375
1663861761479673900,6.471673828125,-41.4886474609375,4.26788330078125,47.98126220703125
1663861761499663000,6.4916630859375,-43.00994873046875,4.40826416015625,47.06573486328125
1663861761519682600,6.5116826171875,-42.71240234375,4.107666015625,47.369384765625
1663861761539671600,6.531671630859375,-42.68035888671875,5.47943115234375,47.833251953125
1663861761559660500,6.55166064453125,-42.7032470703125,4.425048828125,48.89373779296875
1663861761579619000,6.571619140625,-44.07196044921875,4.70428466796875,46.30279541015625
1663861761599608000,6.591608154296875,-41.91741943359375,5.487060546875,48.443603515625
1663861761619627500,6.61162744140625,-41.7877197265625,4.55780029296875,46.4569091796875
1663861761640043800,6.632043701171875,-40.70281982421875,5.32379150390625,46.91925048828125
1663861761659758000,6.651758056640625,-42.5079345703125,6.390380859375,47.53265380859375
1663861761679686100,6.67168603515625,-43.0145263671875,4.12750244140625,49.6551513671875
1663861761699583700,6.691583740234375,-41.0308837890625,4.26483154296875,47.52349853515625
1663861761719542000,6.7115419921875,-42.85888671875,4.27398681640625,49.04632568359375
1663861761739531300,6.73153125,-41.4886474609375,4.26483154296875,47.52349853515625
1663861761759550700,6.75155078125,-42.1142578125,3.5125732421875,48.73809814453125
1663861761779509200,6.77150927734375,-43.4600830078125,4.718017578125,47.82867431640625
1663861761799498200,6.791498291015625,-41.7755126953125,5.03692626953125,49.0509033203125
1663861761819517700,6.811517578125,-42.11578369140625,3.5064697265625,47.9766845703125
1663861761839506700,6.831506591796875,-41.94183349609375,4.41741943359375,47.82867431640625
1663861761859526100,6.851526123046875,-41.79229736328125,4.2755126953125,49.04632568359375
1663861761879515400,6.871515380859375,-42.86956787109375,3.81622314453125,48.73809814453125
1663861761899504400,6.89150439453125,-42.54913330078125,4.5654296875,47.52349853515625
1663861761919493400,6.911493408203125,-40.88134765625,4.11529541015625,47.82867431640625
1663861761939482400,6.931482421875,-43.0023193359375,4.72412109375,48.4375
1663861761959501800,6.951501708984375,-40.5670166015625,4.43878173828125,49.96337890625
1663861761979460400,6.97146044921875,-41.0125732421875,5.03997802734375,49.3560791015625
1663861761999479800,6.991479736328125,-39.9627685546875,4.27093505859375,47.9827880859375
1663861762019377400,7.01137744140625,-41.4642333984375,5.33447265625,48.291015625
1663861762039366400,7.031366455078125,-41.9403076171875,4.42962646484375,49.200439453125
1663861762059355400,7.05135546875,-40.85693359375,5.1910400390625,49.20501708984375
1663861762079344400,7.071344482421875,-40.39764404296875,5.328369140625,47.22442626953125
1663861762099333400,7.09133349609375,-42.3736572265625,5.49163818359375,49.20501708984375
1663861762119322400,7.111322265625,-40.3961181640625,5.3436279296875,49.053955078125
1663861762139311400,7.131311279296875,-40.3778076171875,6.10504150390625,49.3621826171875
1663861762159300400,7.15130029296875,-40.99884033203125,5.6488037109375,49.359130859375
1663861762179289300,7.171289306640625,-40.07110595703125,6.25,48.44970703125
1663861762199278300,7.1912783203125,-39.044189453125,4.43572998046875,49.2034912109375
1663861762219267600,7.211267578125,-40.386962890625,5.65643310546875,50.1220703125
1663861762239256600,7.231256591796875,-39.50042724609375,4.43878173828125,49.65972900390625
1663861762259245600,7.25124560546875,-38.99993896484375,6.2744140625,51.0406494140625
1663861762279295500,7.27129541015625,-40.41900634765625,4.2816162109375,49.35302734375
1663861762299284500,7.291284423828125,-38.720703125,5.20477294921875,50.274658203125
1663861762319273500,7.3112734375,-37.95928955078125,5.18798828125,48.1414794921875
1663861762339262500,7.331262451171875,-38.7481689453125,4.11376953125,47.06878662109375
1663861762359251700,7.351251708984375,-38.74664306640625,4.1259765625,48.4405517578125
1663861762379240700,7.37124072265625,-38.30413818359375,3.37982177734375,49.9603271484375
1663861762399382300,7.39138232421875,-38.1439208984375,3.82232666015625,48.28643798828125
1663861762419340800,7.4113408203125,-37.86773681640625,2.47039794921875,50.10986328125
1663861762439329800,7.431329833984375,-39.05181884765625,4.12445068359375,48.43902587890625
1663861762459318800,7.45131884765625,-37.25433349609375,2.6214599609375,49.95880126953125
1663861762479368700,7.47136865234375,-38.9129638671875,3.515625,48.284912109375
1663861762499296800,7.491296875,-36.29608154296875,4.58526611328125,48.29254150390625
1663861762520048600,7.512048583984375,-38.11492919921875,5.04608154296875,49.359130859375
1663861762539427300,7.53142724609375,-38.2476806640625,5.9478759765625,48.14453125
1663861762559111200,7.551111083984375,-39.6514892578125,4.57763671875,48.28948974609375
1663861762579100200,7.57110009765625,-39.02740478515625,5.18951416015625,48.44512939453125
1663861762599089200,7.591089111328125,-38.86260986328125,5.65643310546875,49.81842041015625
1663861762619017200,7.611017333984375,-37.82196044921875,4.57611083984375,47.52960205078125
1663861762639036700,7.63103662109375,-38.1439208984375,3.81317138671875,47.2198486328125
1663861762659025700,7.651025634765625,-37.042236328125,5.3375244140625,47.5341796875
1663861762679015000,7.671014892578125,-39.64080810546875,5.0323486328125,47.98583984375
1663861762699004000,7.69100390625,-39.2181396484375,3.5125732421875,47.979736328125
1663861762718993000,7.710992919921875,-40.899658203125,3.35540771484375,47.8240966796875
1663861762738982000,7.73098193359375,-37.94403076171875,5.938720703125,47.07794189453125
1663861762758940400,7.7509404296875,-38.6077880859375,3.51409912109375,47.979736328125
1663861762778960000,7.7709599609375,-39.642333984375,5.023193359375,46.91925048828125
1663861762798948900,7.790948974609375,-39.16015625,6.0882568359375,46.92535400390625
1663861762818937900,7.810937744140625,-39.65301513671875,4.5623779296875,46.4599609375
1663861762838957300,7.830957275390625,-41.63818359375,4.41131591796875,47.0672607421875
1663861762858915800,7.850915771484375,-40.545654296875,5.48095703125,47.3785400390625
1663861762878904800,7.87090478515625,-39.4866943359375,5.1727294921875,46.6156005859375
1663861762898893800,7.890893798828125,-38.7481689453125,4.107666015625,46.30584716796875
1663861762918883000,7.910883056640625,-38.775634765625,2.90069580078125,47.36785888671875
1663861762938872000,7.9308720703125,-40.399169921875,5.31158447265625,45.39642333984375
1663861762958861000,7.950861083984375,-40.5792236328125,4.10308837890625,46.3043212890625
1663861762978850000,7.97085009765625,-40.8843994140625,4.09698486328125,45.5413818359375
1663861762998839000,7.990839111328125,-40.40679931640625,5.0079345703125,45.3948974609375
1663861763018828000,8.010828125,-38.6260986328125,2.7496337890625,47.5189208984375
1663861763038786600,8.03078662109375,-40.924072265625,2.2857666015625,47.05657958984375
1663861763058806000,8.050805908203126,-39.4866943359375,5.169677734375,46.3104248046875
1663861763078795000,8.070794921875,-39.65911865234375,4.26483154296875,47.2198486328125
1663861763098784000,8.090783935546876,-39.50347900390625,4.4097900390625,46.307373046875
1663861763118773000,8.11077294921875,-38.78326416015625,2.587890625,46.2982177734375
1663861763138762000,8.130761962890626,-41.94488525390625,4.39910888671875,45.54290771484375
1663861763158751200,8.150751220703125,-39.22576904296875,3.19976806640625,46.91162109375
1663861763178740200,8.170740234375,-41.17431640625,4.71038818359375,46.307373046875
1663861763198729200,8.190729248046875,-42.5811767578125,3.1890869140625,46.44927978515625
1663861763218718200,8.21071826171875,-38.72528076171875,5.16204833984375,45.245361328125
1663861763238707200,8.230707275390625,-41.778564453125,5.0018310546875,44.93560791015625
1663861763258696200,8.2506962890625,-41.81976318359375,3.18756103515625,46.1456298828125
1663861763278715600,8.270715576171876,-40.71197509765625,5.00335693359375,44.9371337890625
1663861763298674200,8.290674072265626,-40.73028564453125,4.23431396484375,43.865966796875
1663861763318663200,8.3106630859375,-40.728759765625,4.24957275390625,45.69549560546875
1663861763338683000,8.330682861328125,-41.20025634765625,3.6376953125,45.23468017578125
1663861763358672000,8.350671875,-40.582275390625,4.07867431640625,43.408203125
1663861763378660900,8.370660888671875,-41.6412353515625,4.39300537109375,44.77996826171875
1663861763398955000,8.390955078125,-39.95819091796875,4.5562744140625,45.697021484375
1663861763418883000,8.410883056640625,-41.986083984375,2.58026123046875,46.295166015625
1663861763438750000,8.43075,-41.961669921875,3.63616943359375,45.233154296875
1663861763458616800,8.450616943359375,-40.55633544921875,5.1544189453125,44.78607177734375
1663861763478636300,8.47063623046875,-41.046142578125,3.778076171875,43.86444091796875
1663861763498594800,8.4905947265625,-41.796875,4.2388916015625,44.62738037109375
1663861763518583800,8.510583740234376,-42.39654541015625,4.69207763671875,44.476318359375
1663861763538542300,8.530542236328126,-41.49169921875,4.23736572265625,44.32220458984375
1663861763558531300,8.55053125,-41.217041015625,2.88238525390625,45.8404541015625
1663861763578520300,8.570520263671876,-41.17584228515625,4.70123291015625,45.2392578125
1663861763598509300,8.59050927734375,-41.9464111328125,4.3914794921875,44.77996826171875
1663861763618498300,8.610498291015626,-41.45965576171875,5.61065673828125,44.93865966796875
1663861763638487600,8.630487548828125,-40.8782958984375,4.3975830078125,45.2392578125
1663861763658445800,8.65044580078125,-41.81365966796875,3.47900390625,44.622802734375
1663861763678465500,8.670465576171875,-43.585205078125,6.05926513671875,44.63348388671875
1663861763698454500,8.69045458984375,-41.6656494140625,3.3203125,43.70880126953125
1663861763718413000,8.7104130859375,-40.53955078125,5.91278076171875,44.48394775390625
1663861763738432500,8.7304326171875,-42.59490966796875,2.70843505859375,43.5516357421875
1663861763758421500,8.75042138671875,-41.65802001953125,3.62701416015625,44.01397705078125
1663861763778410500,8.770410400390626,-41.6473388671875,4.0924072265625,45.2362060546875
1663861763798399500,8.7903994140625,-41.65802001953125,3.62701416015625,44.01397705078125
1663861763818358000,8.81035791015625,-41.2078857421875,3.326416015625,44.47021484375
1663861763838377500,8.83037744140625,-41.6473388671875,4.0863037109375,44.47479248046875
1663861763858366500,8.850366455078126,-40.7135009765625,4.99420166015625,43.87054443359375
1663861763878355700,8.870355712890625,-40.40679931640625,5.0048828125,44.9371337890625
1663861763898344700,8.8903447265625,-41.80755615234375,3.7811279296875,44.3206787109375
1663861763918333700,8.910333740234375,-43.3319091796875,3.78265380859375,44.927978515625
1663861763938322700,8.93032275390625,-41.20635986328125,3.338623046875,45.84197998046875
1663861763958311700,8.950311767578125,-41.6259765625,5.13153076171875,42.193603515625
1663861763978300700,8.97030078125,-42.70782470703125,4.38995361328125,44.77996826171875
1663861763998289700,8.99028955078125,-42.11273193359375,3.77655029296875,43.8629150390625
1663861764018278700,9.010278564453126,-41.50848388671875,3.48663330078125,45.3857421875
1663861764038267600,9.030267578125,-41.50390625,3.77044677734375,43.10150146484375
1663861764058256600,9.050256591796876,-43.95599365234375,3.1707763671875,44.6197509765625
1663861764078245600,9.07024560546875,-42.7093505859375,4.38385009765625,44.01702880859375
1663861764098235000,9.09023486328125,-41.015625,5.00640869140625,45.39337158203125
1663861764118193200,9.110193115234376,-42.4041748046875,4.38232421875,43.71337890625
1663861764138212900,9.130212890625,-41.9525146484375,4.08477783203125,44.4732666015625
1663861764158201900,9.150201904296875,-41.50390625,3.7689208984375,42.79632568359375
1663861764178190800,9.17019091796875,-41.2017822265625,3.62701416015625,44.0155029296875
1663861764198179800,9.190179931640625,-41.62445068359375,5.14068603515625,43.41278076171875
1663861764218168800,9.2101689453125,-41.01104736328125,5.30242919921875,44.32830810546875
1663861764238157800,9.23015771484375,-41.058349609375,3.1768798828125,44.622802734375
1663861764258146800,9.250146728515626,-42.41943359375,3.6346435546875,45.233154296875
1663861764278410500,9.270410400390626,-42.8741455078125,3.7811279296875,44.62432861328125
1663861764298338600,9.290338623046875,-40.73028564453125,4.23431396484375,43.865966796875
1663861764318113800,9.31011376953125,-41.81365966796875,3.485107421875,45.3857421875
1663861764338103000,9.33010302734375,-41.96624755859375,3.6102294921875,42.18597412109375
1663861764358092000,9.350092041015625,-42.39654541015625,4.69207763671875,44.476318359375
1663861764378081000,9.3700810546875,-42.4102783203125,4.0802001953125,44.0155029296875
1663861764398070000,9.390070068359375,-41.21856689453125,2.86407470703125,43.707275390625
1663861764418059000,9.41005908203125,-41.7816162109375,4.98046875,42.49725341796875
1663861764438048000,9.430048095703125,-42.4285888671875,3.3203125,44.012451171875
1663861764458037000,9.450037109375,-43.792724609375,3.62548828125,44.47021484375
1663861764478026000,9.47002587890625,-42.90618896484375,2.40478515625,43.55010986328125
1663861764498015000,9.490014892578126,-41.49322509765625,4.23126220703125,43.560791015625
1663861764518004000,9.51000390625,-39.05487060546875,4.09088134765625,44.47784423828125
1663861764537993000,9.529992919921876,-41.6473388671875,4.0924072265625,45.2362060546875
1663861764557982000,9.54998193359375,-42.84820556640625,4.9835205078125,43.1060791015625
1663861764577971200,9.56997119140625,-41.9219970703125,5.4534912109375,44.48089599609375
1663861764597960200,9.589960205078125,-43.75152587890625,5.45196533203125,44.78302001953125
1663861764617949200,9.60994921875,-41.98760986328125,2.56500244140625,44.46563720703125
1663861764637938200,9.629938232421875,-42.10205078125,4.2327880859375,43.86444091796875
1663861764657927200,9.64992724609375,-41.98150634765625,2.862548828125,43.70574951171875
1663861764677916200,9.669916259765625,-42.74444580078125,2.86102294921875,43.7042236328125
1663861764697905200,9.6899052734375,-42.53692626953125,5.2886962890625,43.10760498046875
1663861764717894100,9.70989404296875,-41.18499755859375,4.38232421875,43.40972900390625
1663861764737883100,9.729883056640626,-42.85736083984375,4.5379638671875,44.32220458984375
1663861764757872000,9.7498720703125,-41.50390625,3.77044677734375,43.10150146484375
1663861764777861000,9.769861083984376,-42.43927001953125,2.8533935546875,42.63916015625
1663861764797850000,9.78985009765625,-41.046142578125,3.7750244140625,43.55926513671875
1663861764817839400,9.80983935546875,-42.57049560546875,3.7750244140625,43.86138916015625
1663861764837828400,9.829828369140625,-41.2445068359375,1.79443359375,42.93975830078125
1663861764857817300,9.8498173828125,-42.11273193359375,3.77349853515625,43.5577392578125
1663861764877806300,9.869806396484375,-43.33343505859375,3.76434326171875,42.7947998046875
1663861764897795300,9.88979541015625,-43.63861083984375,3.765869140625,43.09844970703125
1663861764917784300,9.909784423828125,-43.33953857421875,3.4698486328125,43.85986328125
1663861764937773300,9.929773193359376,-43.48907470703125,3.61328125,42.94586181640625
1663861764957762300,9.94976220703125,-42.40570068359375,4.3731689453125,42.645263671875
1663861764977781800,9.96978173828125,-43.76983642578125,4.67987060546875,43.408203125
1663861764997740300,9.989740234375,-42.85125732421875,4.96826171875,41.27655029296875
1663861765017760000,10.009760009765625,-44.81201171875,5.8837890625,42.193603515625
1663861765037718300,10.02971826171875,-42.138671875,2.70538330078125,43.09539794921875
1663861765057707500,10.04970751953125,-42.38739013671875,5.13916015625,43.4112548828125
1663861765077727000,10.06972705078125,-43.03131103515625,3.62091064453125,43.70880126953125
1663861765097716000,10.089716064453125,-42.718505859375,4.06494140625,42.1875
1663861765117705000,10.109705078125,-42.1142578125,3.76129150390625,42.03338623046875
1663861765137663500,10.12966357421875,-43.50738525390625,2.850341796875,42.63763427734375
1663861765158049300,10.15004931640625,-42.877197265625,3.7628173828125,42.4896240234375
1663861765178160400,10.170160400390625,-43.34869384765625,3.15399169921875,42.486572265625
1663861765197752600,10.189752685546875,-44.5587158203125,3.6041259765625,42.18292236328125
1663861765217650000,10.20964990234375,-43.66302490234375,2.69775390625,42.4835205078125
1663861765237669600,10.229669677734375,-43.5211181640625,2.23846435546875,42.17681884765625
1663861765257628200,10.249628173828125,-41.68548583984375,2.545166015625,41.876220703125
1663861765277586700,10.269586669921875,-44.8516845703125,4.06646728515625,42.94586181640625
1663861765297575700,10.28957568359375,-43.62030029296875,4.53338623046875,43.86444091796875
1663861765317564700,10.309564697265625,-42.42095947265625,3.62548828125,44.01397705078125
1663861765337553700,10.3295537109375,-44.5648193359375,3.2989501953125,41.876220703125
1663861765357542700,10.349542724609375,-43.81103515625,2.8564453125,43.3990478515625
1663861765377531600,10.36953173828125,-44.3511962890625,6.0333251953125,41.73736572265625
1663861765397520600,10.389520751953125,-42.84210205078125,5.28717041015625,43.10760498046875
1663861765417509600,10.409509521484376,-44.54193115234375,4.35638427734375,41.119384765625
1663861765437498600,10.42949853515625,-44.0826416015625,4.3701171875,42.64373779296875
1663861765457457200,10.44945703125,-43.4967041015625,3.30657958984375,42.63916015625
1663861765477476600,10.4694765625,-42.5445556640625,4.97894287109375,42.4957275390625
1663861765497465600,10.489465576171876,-44.5648193359375,3.30047607421875,42.181396484375
1663861765517454800,10.509454833984375,-42.718505859375,4.06494140625,42.1875
1663861765537443800,10.52944384765625,-42.71697998046875,4.071044921875,42.94891357421875
1663861765557402000,10.549402099609376,-43.62945556640625,4.21295166015625,42.034912109375
1663861765577421800,10.569421875,-42.7276611328125,3.61480712890625,42.9473876953125
1663861765597410800,10.589410888671875,-43.63861083984375,3.76129150390625,42.4896240234375
1663861765617399800,10.60939990234375,-43.01300048828125,4.38690185546875,44.47479248046875
1663861765637388800,10.629388916015625,-44.390869140625,4.21600341796875,42.49114990234375
1663861765657377800,10.649377685546876,-43.47991943359375,4.06951904296875,42.9473876953125
1663861765677366800,10.66936669921875,-43.6279296875,4.2205810546875,42.79632568359375
1663861765697355800,10.689355712890626,-44.73114013671875,2.691650390625,42.0257568359375
1663861765717344800,10.7093447265625,-43.77899169921875,4.35791015625,41.12091064453125
1663861765737333800,10.729333740234376,-43.65386962890625,3.15399169921875,42.486572265625
1663861765757323000,10.749322998046875,-43.8018798828125,3.30657958984375,42.63916015625
1663861765777312000,10.76931201171875,-43.43719482421875,5.89752197265625,43.414306640625
1663861765797301000,10.789301025390625,-44.8516845703125,4.06341552734375,42.6422119140625
1663861765817259500,10.809259521484375,-42.74444580078125,2.85491943359375,42.94281005859375
1663861765837279000,10.829279052734375,-42.73223876953125,3.3233642578125,44.46868896484375
1663861765857268000,10.84926806640625,-43.0145263671875,4.38079833984375,43.71185302734375
1663861765877226500,10.8692265625,-45.78704833984375,3.15093994140625,42.7886962890625
1663861765897246000,10.889245849609376,-43.66302490234375,2.70233154296875,43.0938720703125
1663861765917235000,10.90923486328125,-43.80035400390625,3.3172607421875,44.01092529296875
1663861765937224000,10.929223876953126,-43.32427978515625,4.21142578125,41.729736328125
1663861765957213000,10.949212890625,-43.34869384765625,3.15093994140625,42.02880859375
1663861765977202000,10.969201904296876,-42.08526611328125,4.99267578125,43.8690185546875
1663861765997191200,10.989191162109375,-43.04962158203125,2.85186767578125,42.63763427734375
1663861766017180200,11.00918017578125,-44.09027099609375,4.05731201171875,41.57562255859375
1663861766037504800,11.0295048828125,-42.59490966796875,2.70538330078125,43.09539794921875
1663861766057432800,11.049432861328125,-43.49822998046875,3.29742431640625,41.57257080078125
1663861766077177600,11.069177490234376,-44.71893310546875,3.16009521484375,43.5516357421875
1663861766097136000,11.08913623046875,-43.3349609375,3.75518798828125,41.7266845703125
1663861766117125000,11.109125,-42.572021484375,3.765869140625,42.7947998046875
1663861766137114000,11.129114013671876,-42.09747314453125,4.52728271484375,42.79937744140625
1663861766157103000,11.14910302734375,-42.8680419921875,4.21295166015625,41.729736328125
1663861766177092000,11.169092041015626,-44.8516845703125,4.06341552734375,42.6422119140625
1663861766197081000,11.1890810546875,-43.31512451171875,4.53338623046875,43.86444091796875
1663861766217070000,11.209070068359376,-43.0206298828125,4.083251953125,44.4732666015625
1663861766237028600,11.229028564453126,-43.927001953125,4.5257568359375,43.10150146484375
1663861766257048300,11.24904833984375,-43.6279296875,4.2266845703125,43.5577392578125
1663861766277037300,11.269037353515625,-43.0389404296875,3.3111572265625,42.9443359375
1663861766296995800,11.288995849609375,-43.78509521484375,4.06951904296875,42.9473876953125
1663861766317015300,11.309015380859375,-43.646240234375,3.45916748046875,42.791748046875
1663861766337004300,11.32900439453125,-42.75054931640625,2.5543212890625,43.3990478515625
1663861766356993300,11.3489931640625,-42.889404296875,3.1646728515625,43.55316162109375
1663861766376982300,11.368982177734376,-42.99774169921875,5.13153076171875,42.6483154296875
1663861766396971300,11.38897119140625,-43.597412109375,5.5938720703125,43.56536865234375
1663861766416960300,11.408960205078126,-43.90106201171875,5.5938720703125,43.56536865234375
1663861766436918800,11.428918701171876,-42.877197265625,3.7628173828125,42.4896240234375
1663861766456938200,11.448938232421876,-42.4285888671875,3.3203125,44.012451171875
1663861766476927500,11.468927490234375,-42.84820556640625,4.9896240234375,43.86749267578125
1663861766496916500,11.48891650390625,-43.4722900390625,4.3731689453125,42.94891357421875
1663861766516905500,11.508905517578125,-43.359375,2.691650390625,41.72210693359375
1663861766536864000,11.528864013671875,-43.02215576171875,4.071044921875,42.94891357421875
1663861766556883500,11.548883544921875,-43.9422607421875,3.77197265625,43.85986328125
1663861766576872400,11.56887255859375,-41.83197021484375,2.7099609375,43.55316162109375
1663861766596861400,11.588861328125,-42.578125,3.46221923828125,42.79327392578125
1663861766616850400,11.608850341796876,-41.815185546875,3.466796875,43.0999755859375
1663861766636809000,11.62880908203125,-43.0328369140625,3.61480712890625,42.94586181640625
1663861766656828400,11.648828369140626,-44.5556640625,3.62091064453125,44.01092529296875
1663861766676817400,11.6688173828125,-43.03741455078125,3.31878662109375,44.01092529296875
1663861766696776000,11.68877587890625,-44.56329345703125,3.3111572265625,43.40057373046875
1663861766716795600,11.708795654296875,-42.10205078125,4.2327880859375,43.86444091796875
1663861766736784600,11.72878466796875,-42.8466796875,4.99725341796875,44.63043212890625
1663861766756773600,11.748773681640625,-41.6351318359375,4.6875,43.71490478515625
1663861766776762600,11.7687626953125,-43.76068115234375,5.126953125,42.1905517578125
1663861766796751600,11.788751708984375,-42.437744140625,2.86407470703125,44.0093994140625
1663861766816740600,11.80874072265625,-44.38323974609375,4.52423095703125,43.10150146484375
1663861766836729600,11.8287294921875,-43.00689697265625,4.6875,44.0185546875
1663861766856718600,11.848718505859376,-42.85888671875,4.534912109375,43.865966796875
1663861766876707600,11.86870751953125,-41.9403076171875,4.68902587890625,44.02008056640625
1663861766896696600,11.888696533203126,-42.10205078125,4.2327880859375,43.86444091796875
1663861766916685600,11.908685546875,-43.44940185546875,5.426025390625,41.583251953125
1663861766936980000,11.92897998046875,-42.42095947265625,3.6224365234375,43.70880126953125
1663861766956755200,11.948755126953126,-41.70074462890625,1.80206298828125,44.00634765625
1663861766976652800,11.96865283203125,-43.0206298828125,4.083251953125,44.4732666015625
1663861766996672300,11.98867236328125,-42.42095947265625,3.6224365234375,43.70880126953125
1663861767016630800,12.008630859375,-42.59490966796875,2.71148681640625,43.8568115234375
1663861767036619800,12.028619873046875,-43.621826171875,4.52117919921875,42.49267578125
1663861767056608800,12.04860888671875,-44.09027099609375,4.0618896484375,42.18597412109375
1663861767076597800,12.06859765625,-43.3624267578125,2.41241455078125,44.61669921875
1663861767096586800,12.088586669921876,-41.9891357421875,2.557373046875,43.3990478515625
1663861767116575700,12.10857568359375,-44.38934326171875,4.23126220703125,44.31915283203125
1663861767136534300,12.1285341796875,-43.0206298828125,4.0863037109375,44.77691650390625
1663861767156553700,12.1485537109375,-41.80755615234375,3.77349853515625,43.5577392578125
1663861767176543000,12.16854296875,-42.42095947265625,3.6224365234375,43.70880126953125
1663861767196532000,12.188531982421875,-44.08111572265625,4.3792724609375,43.7103271484375
1663861767216521000,12.20852099609375,-43.32275390625,4.2266845703125,43.55926513671875
1663861767236510000,12.228510009765625,-43.01910400390625,4.08935546875,45.23468017578125
1663861767256499000,12.2484990234375,-42.72613525390625,3.619384765625,43.40362548828125
1663861767276488000,12.268488037109375,-43.3563232421875,2.7099609375,43.85528564453125
1663861767296477000,12.288476806640626,-41.9708251953125,3.3172607421875,43.40362548828125
1663861767316466000,12.3084658203125,-41.79229736328125,4.53033447265625,43.10455322265625
1663861767336455000,12.328454833984376,-42.10205078125,4.2327880859375,43.86444091796875
1663861767356413400,12.348413330078126,-41.9891357421875,2.55279541015625,42.94281005859375
1663861767376433000,12.368432861328126,-44.87762451171875,2.87017822265625,45.22705078125
1663861767396422000,12.388421875,-43.0145263671875,4.38385009765625,44.01702880859375
1663861767416380400,12.40838037109375,-42.71087646484375,4.3731689453125,42.645263671875
1663861767436400000,12.428400146484375,-44.71435546875,3.448486328125,41.7236328125
1663861767456389000,12.44838916015625,-43.0206298828125,4.083251953125,44.4732666015625
1663861767476378000,12.468378173828125,-44.69451904296875,4.2236328125,43.5577392578125
1663861767496367000,12.4883671875,-42.559814453125,4.23431396484375,44.32220458984375
1663861767516356000,12.508356201171875,-42.07611083984375,5.30853271484375,45.39337158203125
1663861767536314600,12.528314697265625,-42.877197265625,3.765869140625,42.7947998046875
1663861767556334000,12.548333984375,-44.55718994140625,3.61175537109375,42.9443359375
1663861767576323000,12.568322998046876,-42.8466796875,4.99725341796875,44.63043212890625
1663861767596312000,12.58831201171875,-43.02215576171875,4.071044921875,42.94891357421875
1663861767616301000,12.608301025390626,-43.94989013671875,3.47137451171875,44.31610107421875
1663861767636259600,12.628259521484376,-43.4722900390625,4.37774658203125,43.40667724609375
1663861767656279300,12.648279296875,-43.609619140625,4.99267578125,44.32373046875
1663861767676286000,12.668285888671875,-42.70172119140625,4.69207763671875,44.476318359375
1663861767696275000,12.68827490234375,-42.4285888671875,3.31878662109375,43.707275390625
1663861767716264000,12.708263916015625,-43.3319091796875,3.77960205078125,44.622802734375
1663861767736253000,12.7282529296875,-43.47076416015625,4.38690185546875,44.4732666015625
1663861767756242000,12.748241943359375,-42.4102783203125,4.0802001953125,44.0155029296875
1663861767776231000,12.76823095703125,-41.51763916015625,3.16619873046875,43.5546875
1663861767796220000,12.788219970703125,-42.84210205078125,5.28717041015625,43.10760498046875
1663861767816544800,12.808544677734375,-42.75665283203125,2.26287841796875,44.769287109375
1663861767836320000,12.828320068359375,-42.73223876953125,3.3233642578125,44.46868896484375
1663861767856187100,12.848187255859376,-42.57659912109375,3.47442626953125,44.317626953125
1663861767876176100,12.868176025390625,-43.79119873046875,3.643798828125,46.6033935546875
1663861767896165000,12.8881650390625,-42.5689697265625,3.7811279296875,44.62432861328125
1663861767916154000,12.908154052734375,-43.46466064453125,4.681396484375,43.408203125
1663861767936143000,12.92814306640625,-42.401123046875,4.4036865234375,46.3043212890625
1663861767956132000,12.948132080078125,-43.47076416015625,4.388427734375,44.7784423828125
1663861767976121000,12.96812109375,-42.09747314453125,4.52728271484375,42.79937744140625
1663861767996110000,12.988110107421875,-43.3135986328125,4.54864501953125,45.6939697265625
1663861768016099000,13.00809912109375,-42.3980712890625,4.68292236328125,43.40972900390625
1663861768036057600,13.0280576171875,-44.561767578125,3.326416015625,45.22857666015625
1663861768056077000,13.0480771484375,-44.3817138671875,4.5440673828125,45.38726806640625
1663861768076066300,13.06806640625,-44.07501220703125,4.67987060546875,43.408203125
1663861768096055300,13.08805517578125,-41.80755615234375,3.78265380859375,44.62432861328125
1663861768116044300,13.108044189453125,-43.95751953125,3.16162109375,43.55316162109375
1663861768136002800,13.1280029296875,-42.3858642578125,5.1483154296875,44.47784423828125
1663861768156022300,13.148022216796875,-41.78924560546875,4.54559326171875,44.93408203125
1663861768176011300,13.16801123046875,-42.87567138671875,3.7750244140625,43.86138916015625
1663861768196000300,13.188000244140625,-42.98858642578125,5.4595947265625,45.54595947265625
1663861768215989200,13.2079892578125,-43.768310546875,4.69207763671875,44.77996826171875
1663861768235978200,13.227978271484375,-42.11883544921875,3.47900390625,44.622802734375
1663861768255967200,13.24796728515625,-42.44537353515625,2.5604248046875,44.00787353515625
1663861768275956200,13.267956298828125,-42.4041748046875,4.388427734375,44.47479248046875
1663861768295945200,13.2879453125,-41.14990234375,5.9051513671875,43.72100830078125
1663861768315934500,13.3079345703125,-42.57049560546875,3.77960205078125,44.31915283203125
1663861768335923500,13.32792333984375,-41.16668701171875,5.15289306640625,44.7845458984375
1663861768355882000,13.347882080078126,-42.85736083984375,4.5440673828125,44.93255615234375
1663861768375901400,13.3679013671875,-42.85736083984375,4.5379638671875,44.32220458984375
1663861768395890400,13.387890380859375,-41.6168212890625,5.4534912109375,44.48089599609375
1663861768415879400,13.40787939453125,-42.99774169921875,5.14068603515625,43.7164306640625
1663861768435868400,13.427868408203125,-43.78204345703125,4.09088134765625,45.538330078125
1663861768455827000,13.447826904296875,-43.34564208984375,3.17230224609375,44.6197509765625
1663861768475846400,13.467846435546875,-43.03741455078125,3.3233642578125,44.46868896484375
1663861768495835400,13.48783544921875,-40.8599853515625,5.16357421875,45.8526611328125
1663861768515824400,13.507824462890625,-41.9219970703125,5.4473876953125,43.71795654296875
1663861768535813600,13.527813720703126,-40.6982421875,5.609130859375,44.635009765625
1663861768555802600,13.547802734375,-43.33953857421875,3.466796875,43.5546875
1663861768575791600,13.56779150390625,-42.3858642578125,5.1483154296875,44.47784423828125
1663861768595780600,13.587780517578125,-43.78509521484375,4.06951904296875,42.9473876953125
1663861768615769600,13.60776953125,-42.12646484375,3.167724609375,43.85986328125
1663861768635758600,13.627758544921875,-43.93310546875,4.22210693359375,43.0999755859375
1663861768655747600,13.64774755859375,-42.88177490234375,3.4698486328125,43.85986328125
1663861768675736600,13.667736572265625,-41.1834716796875,4.39300537109375,44.781494140625
1663861768696092000,13.688091796875,-41.77398681640625,5.29632568359375,43.87054443359375
1663861768715867100,13.7078671875,-41.80755615234375,3.78265380859375,44.62432861328125
1663861768735734300,13.727734375,-43.6187744140625,4.541015625,44.9310302734375
1663861768755692500,13.747692626953125,-40.41595458984375,4.55474853515625,45.697021484375
1663861768775681800,13.767681884765626,-43.02978515625,3.63922119140625,45.84197998046875
1663861768795670800,13.7876708984375,-43.62030029296875,4.53643798828125,44.32220458984375
1663861768815659800,13.80765966796875,-43.304443359375,4.9957275390625,44.62890625
1663861768835648800,13.827648681640625,-42.12646484375,3.17230224609375,44.31610107421875
1663861768855637800,13.8476376953125,-42.7154541015625,4.0802001953125,44.0155029296875
1663861768875626800,13.867626708984375,-43.51348876953125,2.55584716796875,43.70269775390625
1663861768895615700,13.88761572265625,-42.11883544921875,3.48052978515625,44.927978515625
1663861768915574300,13.90757421875,-40.9027099609375,3.33099365234375,44.775390625
1663861768935593700,13.92759375,-42.52777099609375,5.6060791015625,44.63348388671875
1663861768955582700,13.947582763671875,-41.1834716796875,4.39300537109375,44.781494140625
1663861768975571700,13.96757177734375,-42.706298828125,4.39910888671875,45.8465576171875
1663861768995560700,13.987560791015625,-42.706298828125,4.4036865234375,46.30279541015625
1663861769015550000,14.007550048828126,-42.39501953125,4.70123291015625,45.54290771484375
1663861769035539000,14.0275390625,-42.10052490234375,4.248046875,45.6939697265625
1663861769055528000,14.04752783203125,-42.98858642578125,5.4534912109375,44.7845458984375
1663861769075517000,14.067516845703125,-39.202880859375,4.2510986328125,45.391845703125
1663861769095506000,14.087505859375,-42.1112060546875,3.78570556640625,44.92950439453125
1663861769115464400,14.10746435546875,-41.9525146484375,4.0924072265625,45.2362060546875
1663861769135484000,14.12748388671875,-40.71197509765625,5.0079345703125,45.3948974609375
1663861769155473000,14.147472900390625,-41.63970947265625,4.39910888671875,45.54290771484375
1663861769175462000,14.1674619140625,-40.71044921875,5.01708984375,46.46148681640625
1663861769195451000,14.187450927734375,-41.8212890625,3.17840576171875,44.92645263671875
1663861769215440000,14.20743994140625,-42.41180419921875,4.071044921875,42.94891357421875
1663861769235428900,14.227428955078125,-42.07611083984375,5.31158447265625,45.69854736328125
1663861769255418000,14.247418212890626,-43.45245361328125,5.157470703125,45.849609375
1663861769275407000,14.267406982421875,-43.94989013671875,3.46832275390625,43.85833740234375
1663861769295396000,14.28739599609375,-40.71197509765625,5.0079345703125,45.3948974609375
1663861769315354600,14.307354736328126,-42.08526611328125,4.9957275390625,44.32525634765625
1663861769335374000,14.3273740234375,-42.8741455078125,3.7872314453125,45.3857421875
1663861769355363000,14.347363037109375,-41.6046142578125,5.91888427734375,45.550537109375
1663861769375352000,14.36735205078125,-39.66217041015625,4.24346923828125,44.62890625
1663861769395341000,14.387341064453125,-42.39654541015625,4.69512939453125,44.781494140625
1663861769415330000,14.407330078125,-41.46728515625,5.30548095703125,44.9371337890625
1663861769435319000,14.427319091796875,-41.8121337890625,3.4881591796875,45.69091796875
1663861769455308000,14.44730810546875,-43.46466064453125,4.6844482421875,43.71337890625
1663861769475297000,14.467297119140625,-42.39501953125,4.70123291015625,45.54290771484375
1663861769495286300,14.487286376953126,-42.38433837890625,5.1605224609375,45.849609375
1663861769515275300,14.507275146484375,-42.3980712890625,4.68597412109375,43.71490478515625
1663861769535264300,14.52726416015625,-41.78924560546875,4.54559326171875,44.93408203125
1663861769555253200,14.547253173828125,-41.77398681640625,5.29327392578125,43.56536865234375
1663861769575486500,14.567486572265626,-42.99468994140625,5.15594482421875,45.54443359375
1663861769595414300,14.587414306640625,-42.1112060546875,3.78570556640625,44.92950439453125
1663861769615220200,14.60722021484375,-41.65802001953125,3.62701416015625,44.01397705078125
1663861769635209200,14.627209228515625,-41.17584228515625,4.70733642578125,45.849609375
1663861769655198200,14.6471982421875,-42.40264892578125,4.3914794921875,44.77996826171875
1663861769675187200,14.667187255859375,-43.03436279296875,3.3477783203125,47.36480712890625
1663861769695176200,14.68717626953125,-42.10052490234375,4.2449951171875,45.3887939453125
1663861769715165400,14.70716552734375,-42.8863525390625,3.192138671875,46.90704345703125
1663861769735185000,14.727184814453125,-43.5028076171875,2.88238525390625,46.295166015625
1663861769755143400,14.747143310546875,-41.7724609375,5.31005859375,45.3948974609375
1663861769775132400,14.76713232421875,-43.011474609375,4.40216064453125,46.30279541015625
1663861769795152000,14.78715185546875,-42.37823486328125,5.45501708984375,44.7845458984375
1663861769815202000,14.8072021484375,-40.88287353515625,4.10308837890625,46.3043212890625
1663861769835129900,14.8271298828125,-42.4102783203125,4.0802001953125,44.0155029296875
1663861769855088400,14.84708837890625,-42.7154541015625,4.0863037109375,44.7784423828125
1663861769875077400,14.867077392578125,-43.65997314453125,2.72216796875,45.379638671875
1663861769895096800,14.887096923828125,-42.54150390625,5.00335693359375,45.391845703125
1663861769915055400,14.907055419921875,-42.07000732421875,5.609130859375,44.93865966796875
1663861769935044400,14.92704443359375,-41.76483154296875,5.61370849609375,45.39642333984375
1663861769955033600,14.94703369140625,-44.097900390625,3.62701416015625,44.77386474609375
1663861769975022600,14.967022705078126,-43.43414306640625,5.9173583984375,45.8526611328125
1663861769995042000,14.9870419921875,-43.8079833984375,2.880859375,46.295166015625
1663861770015061500,15.0070615234375,-41.78924560546875,4.5501708984375,45.39031982421875
1663861770034989600,15.026989501953125,-42.5750732421875,3.48663330078125,45.68939208984375
1663861770054978600,15.046978515625,-42.5933837890625,2.71759033203125,44.61822509765625
1663861770074998000,15.066998046875,-42.4102783203125,4.08477783203125,44.4732666015625
1663861770094987000,15.086987060546875,-43.32122802734375,4.23583984375,44.6258544921875
1663861770114945500,15.106945556640625,-42.57049560546875,3.77960205078125,44.31915283203125
1663861770134934500,15.1269345703125,-42.85736083984375,4.5440673828125,44.93255615234375
1663861770154923500,15.146923583984375,-43.02215576171875,4.0740966796875,43.4051513671875
1663861770174912500,15.16691259765625,-43.6187744140625,4.54864501953125,45.6939697265625
1663861770194901800,15.18690185546875,-43.03741455078125,3.3294677734375,45.23162841796875
1663861770214890800,15.206890869140626,-43.304443359375,4.99267578125,44.32373046875
1663861770234910200,15.22691015625,-42.55828857421875,4.24041748046875,44.9310302734375
1663861770254868700,15.24686865234375,-42.68951416015625,5.16510009765625,46.612548828125
1663861770274857700,15.266857666015625,-41.80755615234375,3.77655029296875,43.8629150390625
1663861770294846700,15.2868466796875,-43.59588623046875,5.5999755859375,44.3267822265625
1663861770314835700,15.306835693359375,-44.96612548828125,5.615234375,46.45843505859375
1663861770334824700,15.32682470703125,-43.30291748046875,5.0048828125,45.69549560546875
1663861770354813700,15.346813720703125,-42.55828857421875,4.24957275390625,46.15020751953125
1663861770374802700,15.366802734375,-43.01300048828125,4.39300537109375,45.2362060546875
1663861770394791700,15.386791748046875,-42.83905029296875,5.303955078125,44.93560791015625
1663861770414780700,15.40678076171875,-42.85736083984375,4.541015625,44.62738037109375
1663861770434770000,15.42677001953125,-43.7164306640625,6.97174072265625,44.7906494140625
1663861770455033600,15.44703369140625,-42.12646484375,3.16619873046875,43.5546875
1663861770474961400,15.46696142578125,-41.50238037109375,3.78570556640625,44.92950439453125
1663861770494737000,15.48673681640625,-43.475341796875,4.09698486328125,46.30126953125
1663861770514726000,15.506725830078125,-43.48602294921875,3.6376953125,45.84197998046875
1663861770534715000,15.52671484375,-42.70782470703125,4.388427734375,44.47479248046875
1663861770554704000,15.546703857421875,-42.8619384765625,4.25567626953125,46.91162109375
1663861770574692900,15.56669287109375,-43.78204345703125,4.08477783203125,44.77691650390625
1663861770594681900,15.586681884765625,-41.78009033203125,4.9896240234375,43.5638427734375
1663861770614670800,15.6066708984375,-44.7052001953125,3.77655029296875,44.62127685546875
1663861770634659800,15.626659912109375,-44.40460205078125,3.48968505859375,46.44927978515625
1663861770654648800,15.64664892578125,-42.72613525390625,3.63006591796875,44.775390625
1663861770674638000,15.66663818359375,-43.6370849609375,3.7811279296875,44.927978515625
1663861770694627000,15.686626953125,-42.5750732421875,3.48968505859375,46.14715576171875
1663861770714616000,15.706615966796875,-41.17584228515625,4.70733642578125,45.849609375
1663861770734605000,15.72660498046875,-41.94488525390625,4.39605712890625,45.23773193359375
1663861770754594000,15.746593994140625,-43.487548828125,3.6285400390625,44.775390625
1663861770774552600,15.766552490234375,-43.47686767578125,4.09088134765625,45.538330078125
1663861770794572000,15.786572021484375,-43.487548828125,3.63311767578125,45.23162841796875
1663861770814561000,15.80656103515625,-42.8802490234375,3.48358154296875,45.38421630859375
1663861770834519600,15.82651953125,-42.5506591796875,4.5501708984375,45.6939697265625
1663861770854539000,15.8465390625,-43.8995361328125,5.615234375,46.15631103515625
1663861770874528000,15.866528076171875,-43.798828125,3.32794189453125,45.2301025390625
1663861770894517200,15.886517333984376,-43.609619140625,4.99725341796875,44.93408203125
1663861770914506200,15.90650634765625,-43.00537109375,4.69818115234375,45.23773193359375
1663861770934495200,15.9264951171875,-42.99468994140625,5.15289306640625,45.2392578125
1663861770954484200,15.946484130859375,-44.52056884765625,5.15289306640625,45.54290771484375
1663861770974473200,15.96647314453125,-44.073486328125,4.69512939453125,45.2362060546875
1663861770994462200,15.986462158203125,-43.768310546875,4.69818115234375,45.5413818359375
1663861771014451200,16.006451171875,-43.6248779296875,4.248046875,46.148681640625
1663861771034440200,16.026440185546875,-42.71392822265625,4.10003662109375,46.30126953125
1663861771054429200,16.04642919921875,-42.09442138671875,4.54559326171875,44.93255615234375
1663861771074418200,16.066418212890625,-41.9525146484375,4.08782958984375,44.7784423828125
1663861771094407200,16.0864072265625,-43.7744140625,4.400634765625,46.30279541015625
1663861771114365700,16.10636572265625,-43.80035400390625,3.32489013671875,44.7723388671875
1663861771134385400,16.126385498046876,-42.7154541015625,4.0771484375,43.7103271484375
1663861771154374400,16.14637451171875,-42.07611083984375,5.31158447265625,45.69854736328125
1663861771174363400,16.16636328125,-42.40875244140625,4.09393310546875,45.53985595703125
1663861771194352400,16.186352294921875,-43.60809326171875,5.0018310546875,45.39031982421875
1663861771214341400,16.20634130859375,-44.67010498046875,5.2947998046875,44.32373046875
1663861771234330400,16.226330322265625,-42.55828857421875,4.24652099609375,45.69244384765625
1663861771254319400,16.2463193359375,-43.65234375,3.1646728515625,43.85833740234375
1663861771274308400,16.266308349609375,-43.31512451171875,4.5379638671875,44.32220458984375
1663861771294297300,16.28629736328125,-42.535400390625,5.303955078125,44.9371337890625
1663861771314286300,16.306286376953125,-42.8802490234375,3.48663330078125,45.68939208984375
1663861771334580500,16.32658056640625,-42.38433837890625,5.157470703125,45.54595947265625
1663861771354508500,16.346508544921875,-42.7032470703125,4.6783447265625,42.95196533203125
1663861771374284000,16.366283935546875,-44.06280517578125,5.14678955078125,44.781494140625
1663861771394242600,16.38624267578125,-41.796875,4.23583984375,44.32220458984375
1663861771414231600,16.4062314453125,-44.37408447265625,4.97589111328125,42.49420166015625
1663861771434220500,16.426220458984375,-43.035888671875,3.33251953125,45.5352783203125
1663861771454209500,16.44620947265625,-42.8466796875,5.00335693359375,45.391845703125
1663861771474198500,16.466198486328125,-41.46728515625,5.30548095703125,44.9371337890625
1663861771494157000,16.486156982421875,-45.7366943359375,5.303955078125,45.69549560546875
1663861771514176500,16.506176513671875,-43.31512451171875,4.5379638671875,44.32220458984375
1663861771534165500,16.52616552734375,-42.57049560546875,3.77960205078125,44.31915283203125
1663861771554124000,16.5461240234375,-43.43719482421875,5.8990478515625,43.719482421875
1663861771574143500,16.5661435546875,-42.9718017578125,6.21337890625,44.78759765625
1663861771594132500,16.586132568359375,-43.90716552734375,5.29632568359375,44.32525634765625
1663861771614121700,16.606121826171876,-41.94488525390625,4.39910888671875,45.54290771484375
1663861771634110700,16.62611083984375,-43.8995361328125,5.60455322265625,44.93560791015625
1663861771654099700,16.646099609375,-41.78009033203125,4.99267578125,43.8690185546875
1663861771674088700,16.666088623046875,-43.32275390625,4.229736328125,43.8629150390625
1663861771694077700,16.68607763671875,-43.46466064453125,4.68597412109375,44.0185546875
1663861771714036200,16.7060361328125,-44.05517578125,5.45501708984375,45.24078369140625
1663861771734055700,16.7260556640625,-41.796875,4.2327880859375,43.86444091796875
1663861771754044700,16.746044677734375,-42.4041748046875,4.388427734375,44.47479248046875
1663861771774003200,16.766003173828125,-43.65997314453125,2.72216796875,45.379638671875
1663861771794022700,16.786022705078125,-42.724609375,3.63616943359375,45.538330078125
1663861771814011600,16.80601171875,-42.40264892578125,4.39453125,45.2362060546875
1663861771834000600,16.826000732421875,-43.02978515625,3.63006591796875,44.775390625
1663861771853990000,16.845989990234376,-42.57659912109375,3.47747802734375,44.622802734375
1663861771873979000,16.865978759765625,-42.7154541015625,4.083251953125,44.4732666015625
1663861771893968000,16.8859677734375,-42.1112060546875,3.78875732421875,45.38726806640625
1663861771913956900,16.905956787109375,-43.890380859375,6.0577392578125,44.63348388671875
1663861771933945900,16.92594580078125,-43.7835693359375,4.0771484375,44.01397705078125
1663861771953934800,16.945934814453125,-42.5689697265625,3.790283203125,45.69091796875
1663861771973923800,16.965923828125,-44.53125,4.6905517578125,44.7784423828125
1663861771993912800,16.985912841796875,-45.49102783203125,2.70843505859375,44.30999755859375
1663861772013901800,17.00590185546875,-42.1112060546875,3.78875732421875,45.38726806640625
1663861772033860400,17.0258603515625,-43.62640380859375,4.23736572265625,44.92950439453125
1663861772053879800,17.0458798828125,-43.03741455078125,3.3294677734375,45.23162841796875
1663861772073868800,17.065868896484375,-44.0887451171875,4.0740966796875,43.70880126953125
1663861772093858000,17.085858154296876,-42.9962158203125,5.14373779296875,44.02008056640625
1663861772113847000,17.105846923828125,-42.8741455078125,3.790283203125,45.69091796875
1663861772133836000,17.1258359375,-42.42095947265625,3.6224365234375,43.70880126953125
1663861772153825000,17.145824951171875,-41.1590576171875,5.46112060546875,45.24383544921875
1663861772173814000,17.16581396484375,-41.92047119140625,5.462646484375,45.5474853515625
1663861772193803000,17.185802978515625,-43.32122802734375,4.2388916015625,44.92950439453125
1663861772213761500,17.205761474609375,-42.1112060546875,3.79180908203125,45.69091796875
1663861772234055700,17.2260556640625,-42.84515380859375,5.00640869140625,45.697021484375
1663861772253831200,17.2458310546875,-42.7093505859375,4.3792724609375,43.408203125
1663861772273789700,17.265789794921876,-44.08111572265625,4.38079833984375,44.0155029296875
1663861772293748000,17.285748046875,-43.46160888671875,4.705810546875,46.3043212890625
1663861772313767700,17.305767578125,-43.817138671875,2.557373046875,44.00634765625
1663861772333726200,17.325726318359376,-43.33343505859375,3.77044677734375,43.55621337890625
1663861772353684500,17.3456845703125,-43.03131103515625,3.62701416015625,44.47021484375
1663861772373704200,17.3657041015625,-44.3634033203125,5.303955078125,45.391845703125
1663861772393693200,17.385693115234375,-43.7408447265625,5.9051513671875,44.48089599609375
1663861772413682200,17.40568212890625,-44.842529296875,4.39453125,45.843505859375
1663861772433671200,17.425671142578125,-42.70172119140625,4.69512939453125,44.781494140625
1663861772453660200,17.44566015625,-42.83905029296875,5.303955078125,44.93560791015625
1663861772473649200,17.465649169921875,-43.4967041015625,3.31268310546875,43.402099609375
1663861772493638100,17.48563818359375,-43.46466064453125,4.68597412109375,44.0185546875
1663861772513627100,17.505627197265625,-42.3797607421875,5.44891357421875,44.02313232421875
1663861772533616000,17.5256162109375,-44.6868896484375,4.534912109375,44.3206787109375
1663861772553605400,17.54560546875,-44.70977783203125,3.47900390625,45.3826904296875
1663861772573594400,17.565594482421876,-44.12384033203125,2.5543212890625,43.701171875
1663861772593552600,17.585552734375,-43.33953857421875,3.4759521484375,44.62127685546875
1663861772613572400,17.605572265625,-44.6929931640625,4.241943359375,45.69091796875
1663861772633561300,17.625561279296875,-42.99774169921875,5.13458251953125,42.9534912109375
1663861772653550300,17.64555029296875,-43.75762939453125,5.1544189453125,45.54443359375
1663861772673539300,17.665539306640625,-43.792724609375,3.631591796875,45.23162841796875
1663861772693528300,17.6855283203125,-42.987060546875,5.462646484375,45.85113525390625
1663861772713517300,17.705517333984375,-43.6431884765625,3.4820556640625,45.3826904296875
1663861772733475800,17.725475830078125,-43.8018798828125,3.31268310546875,43.40057373046875
1663861772753495300,17.745495361328125,-43.3319091796875,3.78265380859375,44.927978515625
1663861772773484300,17.765484375,-42.5689697265625,3.7872314453125,45.3857421875
1663861772793473500,17.7854736328125,-42.5689697265625,3.7811279296875,44.62432861328125
1663861772813462500,17.805462646484376,-41.7724609375,5.30242919921875,44.6319580078125
1663861772833451500,17.825451416015625,-43.33953857421875,3.472900390625,44.317626953125
1663861772853440500,17.8454404296875,-43.61114501953125,4.9774169921875,42.4957275390625
1663861772873429500,17.865429443359375,-43.34564208984375,3.173828125,44.9249267578125
1663861772893418500,17.88541845703125,-43.316650390625,4.52728271484375,43.10302734375
1663861772913407500,17.905407470703125,-41.49322509765625,4.23126220703125,43.560791015625
1663861772933396500,17.925396484375,-43.47076416015625,4.38690185546875,44.4732666015625
1663861772953385500,17.945385498046875,-45.7794189453125,3.4637451171875,43.8568115234375
1663861772973374500,17.96537451171875,-42.88787841796875,3.17230224609375,44.62127685546875
1663861772993363500,17.985363525390625,-43.768310546875,4.68902587890625,44.47479248046875
1663861773013352400,18.0053525390625,-44.537353515625,4.38995361328125,45.23468017578125
1663861773033341700,18.025341796875,-42.86346435546875,4.2388916015625,44.9310302734375
1663861773053330700,18.04533056640625,-42.57049560546875,3.77960205078125,44.31915283203125
1663861773073319700,18.065319580078125,-42.559814453125,4.23736572265625,44.6258544921875
1663861773093278200,18.0852783203125,-42.88787841796875,3.17535400390625,44.9249267578125
1663861773113633300,18.10563330078125,-44.54345703125,4.08935546875,45.538330078125
1663861773133378300,18.12537841796875,-43.94989013671875,3.46832275390625,43.85833740234375
1663861773153275600,18.145275634765625,-43.4722900390625,4.37774658203125,43.40667724609375
1663861773173264600,18.1652646484375,-43.94378662109375,3.7689208984375,43.55621337890625
1663861773193284000,18.1852841796875,-41.96319580078125,3.631591796875,44.77691650390625
1663861773213242600,18.20524267578125,-42.87567138671875,3.76739501953125,43.0999755859375
1663861773233201200,18.225201171875,-44.38934326171875,4.23583984375,44.92950439453125
1663861773253220600,18.245220703125,-42.55828857421875,4.24041748046875,44.9310302734375
1663861773273209900,18.2652099609375,-43.3319091796875,3.778076171875,44.317626953125
1663861773293198800,18.28519873046875,-43.80035400390625,3.32183837890625,44.46868896484375
1663861773313187800,18.305187744140625,-43.94989013671875,3.47137451171875,44.31610107421875
1663861773333176800,18.3251767578125,-44.37255859375,4.98504638671875,43.560791015625
1663861773353165800,18.345165771484375,-44.08111572265625,4.3792724609375,43.7103271484375
1663861773373154800,18.36515478515625,-42.8466796875,4.99420166015625,44.32525634765625
1663861773393143800,18.385143798828125,-44.097900390625,3.62548828125,44.46868896484375
1663861773413132800,18.4051328125,-43.33343505859375,3.77349853515625,43.86138916015625
1663861773433121800,18.425121826171875,-43.0389404296875,3.30810546875,42.64068603515625
1663861773453110800,18.44511083984375,-42.55218505859375,4.53948974609375,44.32373046875
1663861773473099800,18.465099853515625,-41.9464111328125,4.3853759765625,44.0185546875
1663861773493119500,18.485119384765625,-43.4783935546875,4.07867431640625,44.0155029296875
1663861773513078000,18.505078125,-43.29681396484375,5.29937744140625,44.63043212890625
1663861773533067000,18.52506689453125,-43.78509521484375,4.06951904296875,42.9473876953125
1663861773553056000,18.545055908203125,-44.36492919921875,5.2947998046875,44.32525634765625
1663861773573045000,18.565044921875,-42.83447265625,5.59844970703125,43.87054443359375
1663861773593034000,18.585033935546875,-43.0206298828125,4.07867431640625,44.0155029296875
1663861773613023000,18.60502294921875,-43.65234375,3.16162109375,43.55316162109375
1663861773632981500,18.6249814453125,-44.537353515625,4.39300537109375,45.53985595703125
1663861773653001000,18.6450009765625,-43.00689697265625,4.6875,44.0185546875
1663861773672990000,18.664989990234375,-44.1162109375,2.86102294921875,44.00787353515625
1663861773692948500,18.684948486328125,-42.87567138671875,3.7750244140625,43.86138916015625
1663861773712968000,18.704968017578125,-43.292236328125,5.59539794921875,43.56536865234375
1663861773732957200,18.724957275390626,-43.37310791015625,1.959228515625,44.9188232421875
1663861773752946200,18.7449462890625,-41.79534912109375,4.248046875,45.6939697265625
1663861773772935200,18.76493505859375,-43.3319091796875,3.78265380859375,44.927978515625
1663861773792924200,18.784924072265625,-42.10205078125,4.24041748046875,44.9310302734375
1663861773812913200,18.8049130859375,-43.304443359375,4.99267578125,44.32373046875
1663861773832871700,18.82487158203125,-43.01910400390625,4.08935546875,45.23468017578125
1663861773852891100,18.84489111328125,-42.54150390625,5.00335693359375,45.391845703125
1663861773872880000,18.864880126953125,-42.71392822265625,4.09088134765625,45.23468017578125
1663861773892869000,18.884869140625,-41.49322509765625,4.2327880859375,43.865966796875
1663861773912858000,18.904858154296875,-42.70782470703125,4.39453125,45.2362060546875
1663861773932847000,18.92484716796875,-43.78204345703125,4.08172607421875,44.47174072265625
1663861773952836000,18.944836181640625,-43.01300048828125,4.38690185546875,44.47479248046875
1663861773972825300,18.964825439453126,-42.8466796875,4.99725341796875,44.63043212890625
1663861773993180400,18.985180419921875,-44.84405517578125,4.37469482421875,43.4051513671875
1663861774012925400,19.004925537109376,-43.03741455078125,3.31878662109375,44.01092529296875
1663861774032792300,19.024792236328125,-42.437744140625,2.8717041015625,44.7723388671875
1663861774052781300,19.04478125,-42.6910400390625,5.14373779296875,44.0216064453125
1663861774072770300,19.064770263671875,-41.7724609375,5.30242919921875,44.6319580078125
1663861774092759300,19.08475927734375,-44.84405517578125,4.3792724609375,44.0155029296875
1663861774112748300,19.104748291015625,-41.16668701171875,5.14678955078125,44.02313232421875
1663861774132737300,19.1247373046875,-43.463134765625,4.6966552734375,45.23773193359375
1663861774152726300,19.144726318359375,-41.81365966796875,3.4759521484375,44.31915283203125
1663861774172715300,19.16471533203125,-43.47991943359375,4.06951904296875,42.9473876953125
1663861774192704300,19.184704345703125,-43.29986572265625,5.28717041015625,43.1060791015625
1663861774212693500,19.204693603515626,-42.840576171875,5.3009033203125,44.6319580078125
1663861774232682500,19.2246826171875,-41.9403076171875,4.6844482421875,43.40972900390625
1663861774252671500,19.24467138671875,-42.8497314453125,4.97894287109375,42.4957275390625
1663861774272660500,19.264660400390625,-43.81103515625,2.862548828125,44.00787353515625
1663861774292649500,19.2846494140625,-42.4102783203125,4.08477783203125,44.4732666015625
1663861774312638500,19.304638427734375,-45.3277587890625,3.2989501953125,42.17987060546875
1663861774332627500,19.32462744140625,-42.71392822265625,4.09088134765625,45.23468017578125
1663861774352616400,19.344616455078125,-42.4102783203125,4.08477783203125,44.4732666015625
1663861774372605400,19.36460546875,-42.09442138671875,4.54559326171875,44.93255615234375
1663861774392594400,19.384594482421875,-42.12646484375,3.16619873046875,43.5546875
1663861774412553000,19.404552978515625,-42.55218505859375,4.5440673828125,44.93255615234375
1663861774432572400,19.424572509765625,-41.78009033203125,4.9957275390625,44.3267822265625
1663861774452561700,19.444561767578126,-42.8466796875,4.99725341796875,44.63043212890625
1663861774472550700,19.464550537109375,-43.92547607421875,4.53033447265625,43.55926513671875
1663861774492539600,19.48453955078125,-43.4783935546875,4.08172607421875,44.47174072265625
1663861774512498200,19.504498291015626,-43.49517822265625,3.32489013671875,44.77386474609375
1663861774532517600,19.524517578125,-43.34564208984375,3.16925048828125,44.31610107421875
1663861774552506600,19.544506591796875,-42.095947265625,4.53948974609375,44.32373046875
1663861774572495600,19.56449560546875,-43.4295654296875,6.21337890625,44.78759765625
1663861774592484600,19.584484619140625,-41.98150634765625,2.8656005859375,44.01092529296875
1663861774612443100,19.604443115234375,-41.51763916015625,3.16619873046875,43.5546875
1663861774632462600,19.624462646484375,-43.4783935546875,4.08172607421875,44.47174072265625
1663861774652451600,19.64445166015625,-43.6279296875,4.22821044921875,43.8629150390625
1663861774672440800,19.66444091796875,-41.93878173828125,4.693603515625,44.476318359375
1663861774692429800,19.684429931640626,-42.58270263671875,3.179931640625,45.3826904296875
1663861774712418800,19.704418701171875,-42.120361328125,3.4698486328125,43.55621337890625
1663861774732407800,19.72440771484375,-42.83447265625,5.58929443359375,42.803955078125
1663861774752396800,19.744396728515625,-43.44635009765625,5.4534912109375,44.78302001953125
1663861774772385800,19.7643857421875,-43.60809326171875,5.0018310546875,45.39031982421875
1663861774792374800,19.784374755859375,-43.80950927734375,2.8717041015625,45.22705078125
1663861774812363800,19.80436376953125,-44.54498291015625,4.0863037109375,45.233154296875
1663861774832352800,19.824352783203125,-43.49517822265625,3.32183837890625,44.46868896484375
1663861774852341800,19.844341796875,-44.9920654296875,4.53643798828125,44.62432861328125
1663861774872605400,19.86460546875,-43.9422607421875,3.77197265625,43.85986328125
1663861774892472300,19.884472412109375,-41.796875,4.2388916015625,44.62738037109375
1663861774912309000,19.90430908203125,-42.9901123046875,5.4473876953125,44.0216064453125
1663861774932328400,19.924328369140625,-45.01190185546875,3.75518798828125,42.03033447265625
1663861774952287000,19.944286865234375,-43.792724609375,3.6285400390625,44.77386474609375
1663861774972276000,19.96427587890625,-42.55828857421875,4.24041748046875,44.9310302734375
1663861774992265000,19.984264892578125,-44.54498291015625,4.0863037109375,45.233154296875
1663861775012254000,20.00425390625,-44.11468505859375,2.8717041015625,45.22705078125
1663861775032243000,20.024242919921875,-43.45245361328125,5.157470703125,45.849609375
1663861775052232000,20.04423193359375,-41.766357421875,5.5999755859375,43.8720703125
1663861775072221000,20.064220947265625,-42.73223876953125,3.33099365234375,45.23162841796875
1663861775092210000,20.0842099609375,-43.93157958984375,4.23431396484375,44.62432861328125
1663861775112199000,20.104198974609375,-44.0643310546875,5.13916015625,43.71490478515625
1663861775132188000,20.12418798828125,-42.11273193359375,3.77655029296875,43.8629150390625
1663861775152177200,20.14417724609375,-44.09027099609375,4.058837890625,41.88079833984375
1663861775172166100,20.164166259765626,-42.5537109375,4.5318603515625,43.560791015625
1663861775192155100,20.184155029296875,-43.4783935546875,4.08172607421875,44.47174072265625
1663861775212144000,20.20414404296875,-41.46881103515625,5.2978515625,43.87054443359375
1663861775232133000,20.224133056640625,-43.9483642578125,3.48358154296875,45.6878662109375
1663861775252122000,20.2441220703125,-43.91632080078125,4.97589111328125,42.49420166015625
1663861775272080600,20.26408056640625,-42.559814453125,4.23736572265625,44.6258544921875
1663861775292100000,20.28410009765625,-42.57049560546875,3.7750244140625,43.86138916015625
1663861775312089000,20.304089111328125,-42.4041748046875,4.3792724609375,43.408203125
1663861775332078000,20.324078125,-43.487548828125,3.62701416015625,44.47021484375
1663861775352067000,20.344067138671875,-43.75152587890625,5.44586181640625,44.0216064453125
1663861775372056000,20.36405615234375,-44.07501220703125,4.6844482421875,44.01702880859375
1663861775392045300,20.38404541015625,-44.9920654296875,4.53643798828125,44.62432861328125
1663861775412034300,20.404034423828126,-42.5689697265625,3.7811279296875,44.62432861328125
1663861775432023300,20.424023193359375,-42.11273193359375,3.77655029296875,43.8629150390625
1663861775452012300,20.44401220703125,-44.122314453125,2.5604248046875,44.464111328125
1663861775472001300,20.464001220703125,-43.02978515625,3.63006591796875,44.775390625
1663861775491990300,20.483990234375,-43.95599365234375,3.1646728515625,43.8568115234375
1663861775511948800,20.50394873046875,-43.47686767578125,4.08477783203125,44.77691650390625
1663861775531968300,20.52396826171875,-44.08721923828125,4.083251953125,44.77691650390625
1663861775551957200,20.543957275390625,-44.99359130859375,4.52423095703125,43.10150146484375
1663861775571946200,20.5639462890625,-42.11883544921875,3.485107421875,45.3857421875
1663861775591935200,20.583935302734375,-43.621826171875,4.52117919921875,42.49267578125
1663861775611924200,20.60392431640625,-43.68133544921875,1.93328857421875,42.022705078125
1663861775631913500,20.62391357421875,-41.95404052734375,4.08172607421875,44.01702880859375
1663861775651902500,20.64390234375,-43.31512451171875,4.53338623046875,43.86444091796875
1663861775671891500,20.663891357421875,-43.62640380859375,4.23736572265625,44.92950439453125
1663861775691880400,20.68388037109375,-44.38934326171875,4.23126220703125,44.31915283203125
1663861775711869400,20.703869384765625,-44.08111572265625,4.3792724609375,43.7103271484375
1663861775731858400,20.7238583984375,-44.53125,4.6844482421875,44.01702880859375
1663861775752122000,20.7441220703125,-41.8304443359375,2.728271484375,45.68634033203125
1663861775772019500,20.76401953125,-43.65234375,3.16162109375,43.55316162109375
1663861775791825400,20.783825439453125,-44.580078125,2.55584716796875,44.00634765625
1663861775811814400,20.803814453125,-42.6910400390625,5.14373779296875,44.0216064453125
1663861775831803400,20.823803466796875,-43.75762939453125,5.1483154296875,44.781494140625
1663861775851792400,20.84379248046875,-43.91632080078125,4.97894287109375,42.79937744140625
1663861775871781600,20.86378173828125,-43.5089111328125,2.84423828125,41.87469482421875
1663861775891770600,20.8837705078125,-43.7835693359375,4.07562255859375,43.7103271484375
1663861775911759600,20.903759521484375,-44.573974609375,2.85186767578125,42.9412841796875
1663861775931748600,20.92374853515625,-43.33343505859375,3.76739501953125,43.09844970703125
1663861775951737600,20.943737548828125,-44.68994140625,4.52117919921875,42.79632568359375
1663861775971726600,20.9637265625,-43.03131103515625,3.61785888671875,43.40362548828125
1663861775991715600,20.983715576171875,-43.6370849609375,3.77655029296875,44.317626953125
1663861776011704600,21.00370458984375,-42.7093505859375,4.38079833984375,43.71185302734375
1663861776031693600,21.023693603515625,-41.64276123046875,4.38079833984375,43.408203125
1663861776051682600,21.0436826171875,-43.0145263671875,4.37469482421875,42.950439453125
1663861776071671600,21.063671630859375,-43.03131103515625,3.62091064453125,43.70880126953125
1663861776091630000,21.083630126953125,-43.34716796875,3.16314697265625,43.55316162109375
1663861776111649800,21.10364990234375,-44.08416748046875,4.3609619140625,41.5771484375
1663861776131638800,21.123638671875,-44.86236572265625,3.61480712890625,43.402099609375
1663861776151627800,21.143627685546875,-44.86236572265625,3.6102294921875,42.9443359375
1663861776171616800,21.16361669921875,-44.40155029296875,3.76434326171875,43.09844970703125
1663861776191605800,21.183605712890625,-44.09942626953125,3.61175537109375,42.9443359375
1663861776211594800,21.2035947265625,-43.48907470703125,3.619384765625,43.707275390625
1663861776231583700,21.223583740234375,-44.0826416015625,4.37164306640625,42.94891357421875
1663861776251572700,21.24357275390625,-46.36383056640625,4.669189453125,42.6422119140625
1663861776271561700,21.263561767578125,-44.0673828125,5.120849609375,41.5802001953125
1663861776291520300,21.283520263671875,-43.63861083984375,3.76129150390625,42.4896240234375
1663861776311539700,21.303539794921875,-42.57659912109375,3.47137451171875,43.85986328125
1663861776331529000,21.323529052734376,-42.889404296875,3.16619873046875,43.85833740234375
1663861776351518000,21.34351806640625,-42.41180419921875,4.07867431640625,43.71185302734375
1663861776371507000,21.3635068359375,-44.1070556640625,3.302001953125,42.181396484375
1663861776391496000,21.383495849609375,-43.49517822265625,3.31878662109375,44.01092529296875
1663861776411485000,21.40348486328125,-43.48907470703125,3.61328125,42.94586181640625
1663861776431474000,21.423473876953125,-44.85321044921875,4.05731201171875,41.8792724609375
1663861776451463000,21.443462890625,-43.6279296875,4.22210693359375,43.10150146484375
1663861776471452000,21.463451904296875,-43.62945556640625,4.21142578125,41.729736328125
1663861776491441000,21.48344091796875,-45.5108642578125,1.93634033203125,42.7825927734375
1663861776511430000,21.503429931640625,-43.48907470703125,3.61328125,42.94586181640625
1663861776531419000,21.5234189453125,-42.4530029296875,2.252197265625,43.39752197265625
1663861776551407900,21.543407958984375,-42.12799072265625,3.1585693359375,42.79327392578125
1663861776571397000,21.563397216796876,-44.88525390625,2.55584716796875,44.00634765625
1663861776591386000,21.58338623046875,-43.35784912109375,2.703857421875,43.0938720703125
1663861776611375000,21.603375,-42.57659912109375,3.47137451171875,43.85986328125
1663861776631669200,21.623669189453125,-43.63861083984375,3.76129150390625,42.4896240234375
1663861776651597300,21.643597412109376,-43.66912841796875,2.40936279296875,44.3115234375
1663861776671342000,21.663342041015625,-44.677734375,4.98046875,43.10302734375
1663861776691331000,21.6833310546875,-43.6279296875,4.22210693359375,43.10150146484375
1663861776711320000,21.703320068359375,-44.58160400390625,2.545166015625,42.63458251953125
1663861776731309000,21.72330908203125,-44.0826416015625,4.37164306640625,42.94891357421875
1663861776751298000,21.743298095703125,-43.9178466796875,4.97283935546875,42.0379638671875
1663861776771287000,21.763287109375,-43.7835693359375,4.07257080078125,43.4051513671875
1663861776791276000,21.783276123046875,-43.66302490234375,2.70233154296875,43.0938720703125
1663861776811265300,21.803265380859376,-43.951416015625,3.45611572265625,42.486572265625
1663861776831254300,21.823254150390625,-43.951416015625,3.45916748046875,42.791748046875
1663861776851243300,21.8432431640625,-43.0084228515625,4.6783447265625,42.95196533203125
1663861776871232300,21.863232177734375,-43.03741455078125,3.31878662109375,44.01092529296875
1663861776891221200,21.88322119140625,-43.9422607421875,3.77197265625,43.85986328125
1663861776911210200,21.903210205078125,-43.4661865234375,4.67681884765625,42.950439453125
1663861776931199200,21.92319921875,-42.4285888671875,3.3111572265625,42.94586181640625
1663861776951188200,21.943188232421875,-43.4722900390625,4.3792724609375,43.71185302734375
1663861776971177200,21.96317724609375,-43.621826171875,4.5257568359375,43.10302734375
1663861776991166200,21.983166259765625,-41.21856689453125,2.86712646484375,44.01092529296875
1663861777011155200,22.0031552734375,-44.12384033203125,2.55279541015625,43.39752197265625
1663861777031144200,22.023144287109375,-44.41680908203125,3.14178466796875,41.265869140625
1663861777051133400,22.043133544921876,-42.57659912109375,3.47137451171875,43.85986328125
1663861777071122400,22.063122314453125,-43.66912841796875,2.40936279296875,44.3115234375
1663861777091081000,22.0830810546875,-42.5537109375,4.5257568359375,42.79937744140625
1663861777111100400,22.103100341796875,-42.82379150390625,6.048583984375,43.11065673828125
1663861777131089400,22.12308935546875,-44.72198486328125,3.14483642578125,41.7236328125
1663861777151078400,22.143078369140625,-43.31512451171875,4.5379638671875,44.32220458984375
1663861777171067400,22.1630673828125,-43.5150146484375,2.54058837890625,41.8731689453125
1663861777191026000,22.18302587890625,-44.976806640625,5.27801513671875,42.4957275390625
1663861777211045400,22.20304541015625,-44.40765380859375,3.4576416015625,42.791748046875
1663861777231034400,22.223034423828125,-43.95751953125,3.1524658203125,42.48504638671875
1663861777251023400,22.2430234375,-44.7052001953125,3.76739501953125,43.5546875
1663861777271012600,22.2630126953125,-45.01190185546875,3.75518798828125,42.03033447265625
1663861777291001600,22.283001708984376,-44.99359130859375,4.52117919921875,42.79632568359375
1663861777310990600,22.302990478515625,-42.88482666015625,3.45458984375,42.0318603515625
1663861777330979600,22.3229794921875,-43.9178466796875,4.96673583984375,41.2750244140625
1663861777350968600,22.342968505859375,-42.7337646484375,3.3111572265625,42.94586181640625
1663861777370957600,22.36295751953125,-43.63861083984375,3.77044677734375,43.55621337890625
1663861777390946600,22.382946533203125,-44.573974609375,2.85186767578125,42.9412841796875
1663861777410935600,22.402935546875,-43.63861083984375,3.77044677734375,43.55621337890625
1663861777430924500,22.422924560546875,-43.670654296875,2.3956298828125,42.78717041015625
1663861777450913500,22.44291357421875,-43.621826171875,4.5257568359375,43.10302734375
1663861777470902500,22.462902587890625,-43.78509521484375,4.06646728515625,42.6422119140625
1663861777490891500,22.4828916015625,-44.403076171875,3.753662109375,41.7266845703125
1663861777511216400,22.50321630859375,-44.09027099609375,4.05731201171875,41.57562255859375
1663861777531144200,22.523144287109375,-44.4061279296875,3.47442626953125,44.6197509765625
1663861777550889200,22.54288916015625,-43.316650390625,4.53033447265625,43.560791015625
1663861777570847700,22.56284765625,-43.32427978515625,4.2205810546875,42.79632568359375
1663861777590867200,22.5828671875,-42.54302978515625,4.98504638671875,43.1060791015625
1663861777610795300,22.602795166015625,-43.7530517578125,5.4412841796875,43.4112548828125
1663861777630814700,22.622814697265625,-42.8680419921875,4.21295166015625,41.729736328125
1663861777650803700,22.6428037109375,-44.09027099609375,4.06494140625,42.6422119140625
1663861777670792700,22.662792724609375,-42.55218505859375,4.541015625,44.62738037109375
1663861777690765000,22.68276513671875,-43.29986572265625,5.27801513671875,42.03948974609375
1663861777710754000,22.702754150390625,-42.56134033203125,4.22515869140625,43.10150146484375
1663861777730743000,22.722742919921874,-43.621826171875,4.52423095703125,42.7978515625
1663861777750701600,22.74270166015625,-43.03131103515625,3.62701416015625,44.47021484375
1663861777770721000,22.762720947265624,-44.55718994140625,3.61175537109375,42.9443359375
1663861777790710000,22.7827099609375,-43.48907470703125,3.61328125,42.94586181640625
1663861777810699000,22.802698974609374,-42.12799072265625,3.1524658203125,42.03033447265625
1663861777830688000,22.82268798828125,-44.1162109375,2.85797119140625,43.70269775390625
1663861777850646500,22.842646484375,-44.4000244140625,3.7750244140625,44.317626953125
1663861777870666200,22.862666259765625,-41.50848388671875,3.48052978515625,44.62432861328125
1663861777890655200,22.8826552734375,-42.73529052734375,3.30810546875,42.64068603515625
1663861777910644200,22.902644287109375,-44.7052001953125,3.76739501953125,43.5546875
1663861777930633200,22.92263330078125,-42.877197265625,3.759765625,42.03338623046875
1663861777950591700,22.942591796875,-43.7744140625,4.3914794921875,45.23468017578125
1663861777970611200,22.962611083984374,-43.32275390625,4.2266845703125,43.55926513671875
1663861777990600200,22.98260009765625,-43.316650390625,4.53033447265625,43.560791015625
1663861778010589200,23.002589111328124,-43.29833984375,5.29022216796875,43.5638427734375
1663861778030578200,23.022578125,-41.9708251953125,3.3172607421875,43.40362548828125
1663861778050536700,23.04253662109375,-43.46923828125,4.39453125,45.53985595703125
1663861778070556200,23.06255615234375,-43.621826171875,4.51812744140625,42.034912109375
1663861778090545200,23.082545166015624,-42.72613525390625,3.62091064453125,43.70880126953125
1663861778110534400,23.102534423828125,-42.88330078125,3.46832275390625,43.5546875
1663861778130523400,23.1225234375,-42.0867919921875,4.9835205078125,42.80242919921875
1663861778150512400,23.142512451171875,-43.94378662109375,3.7628173828125,42.79327392578125
1663861778170501400,23.16250146484375,-43.951416015625,3.45306396484375,42.03033447265625
1663861778190490400,23.182490478515625,-43.48907470703125,3.61785888671875,43.40362548828125
1663861778210540300,23.202540283203124,-40.5914306640625,3.62396240234375,43.40667724609375
1663861778230468400,23.22246826171875,-42.7459716796875,2.84881591796875,42.181396484375
1663861778250487800,23.24248779296875,-43.341064453125,3.4637451171875,43.096923828125
1663861778270476800,23.262476806640624,-41.64886474609375,4.0771484375,43.40667724609375
1663861778290435300,23.282435302734374,-43.6370849609375,3.7811279296875,44.927978515625
1663861778310424300,23.30242431640625,-43.316650390625,4.52423095703125,42.7978515625
1663861778330444000,23.322444091796875,-43.4722900390625,4.3731689453125,42.94891357421875
1663861778350433000,23.34243310546875,-41.80755615234375,3.78570556640625,44.92950439453125
1663861778370422000,23.362422119140625,-43.0206298828125,4.0771484375,43.7103271484375
1663861778390411000,23.382410888671874,-40.58074951171875,4.09088134765625,44.77996826171875
1663861778410857700,23.402857666015624,-43.4722900390625,4.37774658203125,43.40667724609375
1663861778430541600,23.42254150390625,-42.7154541015625,4.0771484375,43.7103271484375
1663861778450378000,23.4423779296875,-41.51611328125,3.173828125,44.317626953125
1663861778470367000,23.462366943359374,-42.4041748046875,4.3853759765625,44.01702880859375
1663861778490386700,23.48238671875,-42.37823486328125,5.45806884765625,45.2423095703125
1663861778510345000,23.502344970703124,-42.85736083984375,4.5440673828125,44.93255615234375
1663861778530303500,23.522303466796874,-41.95404052734375,4.08172607421875,44.01702880859375
1663861778550292500,23.54229248046875,-42.9962158203125,5.14373779296875,44.02008056640625
1663861778570281500,23.562281494140624,-42.55828857421875,4.24041748046875,44.9310302734375
1663861778590240000,23.582239990234374,-41.80755615234375,3.78265380859375,44.62432861328125
1663861778610259700,23.602259765625,-42.07000732421875,5.609130859375,44.93865966796875
1663861778630248700,23.622248779296875,-43.27545166015625,6.3507080078125,43.1121826171875
1663861778650237700,23.64223779296875,-42.57049560546875,3.77960205078125,44.31915283203125
1663861778670226700,23.662226806640625,-40.69976806640625,5.60302734375,43.87359619140625
1663861778690185200,23.682185302734375,-41.17584228515625,4.70428466796875,45.54443359375
1663861778710204700,23.70220458984375,-41.6168212890625,5.4534912109375,44.48089599609375
1663861778730193700,23.722193603515624,-43.44635009765625,5.4534912109375,44.78302001953125
1663861778750152200,23.742152099609374,-42.68341064453125,5.462646484375,45.85113525390625
1663861778770171600,23.762171630859374,-42.69256591796875,5.14068603515625,43.7164306640625
1663861778790160600,23.78216064453125,-43.75152587890625,5.45196533203125,44.78302001953125
1663861778810149600,23.802149658203124,-42.8741455078125,3.778076171875,44.31915283203125
1663861778830139000,23.822138916015625,-42.41943359375,3.6346435546875,45.233154296875
1663861778850097200,23.84209716796875,-42.9046630859375,2.4261474609375,46.14105224609375
1663861778870116900,23.862116943359375,-41.17431640625,4.71649169921875,47.06878662109375
1663861778890105900,23.88210595703125,-41.79534912109375,4.2449951171875,45.3887939453125
1663861778910064400,23.902064453125,-42.85888671875,4.534912109375,43.865966796875
1663861778930083800,23.922083740234374,-42.8741455078125,3.790283203125,45.69091796875
1663861778950072800,23.94207275390625,-41.14532470703125,5.9356689453125,47.38006591796875
1663861778970061800,23.962061767578124,-40.56396484375,4.718017578125,47.06878662109375
1663861778990050800,23.98205078125,-40.899658203125,3.34625244140625,46.60491943359375
1663861779010039800,24.002039794921874,-41.0430908203125,3.7933349609375,45.69244384765625
1663861779030028800,24.02202880859375,-40.5548095703125,5.16357421875,45.8526611328125
1663861779050018000,24.04201806640625,-40.72723388671875,4.2572021484375,46.4569091796875
1663861779070007000,24.062007080078125,-40.88287353515625,4.10614013671875,46.6094970703125
1663861779089996000,24.08199609375,-42.4072265625,4.10614013671875,47.064208984375
1663861779109985000,24.101985107421875,-40.8599853515625,5.1666259765625,46.30889892578125
1663861779129974000,24.12197412109375,-41.0430908203125,3.79791259765625,46.15020751953125
1663861779149963000,24.141962890625,-41.015625,5.01556396484375,46.4599609375
1663861779169921500,24.161921630859375,-40.89508056640625,3.6346435546875,44.77691650390625
1663861779189941000,24.18194091796875,-40.106201171875,4.71954345703125,47.0703125
1663861779209930000,24.201929931640624,-40.875244140625,4.412841796875,47.0672607421875
1663861779229919000,24.2219189453125,-40.10772705078125,4.7088623046875,45.85113525390625
1663861779249908000,24.241907958984374,-39.044189453125,4.42657470703125,48.13690185546875
1663861779269897000,24.26189697265625,-41.8060302734375,3.79638671875,46.148681640625
1663861779290221800,24.282221923828125,-40.7196044921875,4.56695556640625,47.22137451171875
1663861779309966600,24.301966552734374,-39.79949951171875,4.73480224609375,48.89984130859375
1663861779329864200,24.3218642578125,-40.07110595703125,6.2408447265625,47.381591796875
1663861779349883600,24.341883544921874,-39.78424072265625,5.48248291015625,47.3785400390625
1663861779369842200,24.36184228515625,-40.1123046875,4.41741943359375,47.3724365234375
1663861779389831200,24.3818310546875,-39.1845703125,5.029296875,47.52960205078125
1663861779409820200,24.401820068359374,-40.4205322265625,4.2694091796875,47.98126220703125
1663861779429809200,24.42180908203125,-40.40374755859375,5.0262451171875,47.528076171875
1663861779449798100,24.441798095703124,-39.4866943359375,5.17578125,47.0733642578125
1663861779469756700,24.461756591796874,-39.65301513671875,4.56695556640625,46.917724609375
1663861779489776000,24.481776123046874,-40.0970458984375,5.17120361328125,46.6156005859375
1663861779509765000,24.50176513671875,-40.88134765625,4.11834716796875,48.13232421875
1663861779529754400,24.52175439453125,-40.1611328125,2.29339599609375,47.81951904296875
1663861779549773800,24.54177392578125,-40.838623046875,5.94940185546875,48.9044189453125
1663861779569732400,24.561732421875,-39.50347900390625,4.412841796875,46.612548828125
1663861779589721300,24.581721435546875,-40.69366455078125,5.6396484375,48.29254150390625
1663861779609710300,24.60171044921875,-40.09552001953125,5.17730712890625,47.37701416015625
1663861779629699300,24.62169921875,-39.80255126953125,4.71649169921875,46.612548828125
1663861779649688300,24.641688232421874,-39.0533447265625,4.11376953125,47.06878662109375
1663861779669677300,24.66167724609375,-38.56658935546875,5.3436279296875,48.7518310546875
1663861779689635800,24.6816357421875,-39.495849609375,4.7271728515625,47.833251953125
1663861779709655300,24.7016552734375,-38.2904052734375,4.1168212890625,47.37396240234375
1663861779729644300,24.721644287109374,-38.57421875,5.03387451171875,47.98736572265625
1663861779749633300,24.74163330078125,-38.299560546875,3.6712646484375,48.43902587890625
1663861779769622500,24.76162255859375,-38.24615478515625,5.95703125,49.21112060546875
1663861779789580800,24.781580810546874,-38.739013671875,4.42962646484375,48.44207763671875
1663861779809600500,24.8016005859375,-38.6993408203125,6.24847412109375,47.84088134765625
1663861779829589500,24.821589599609375,-37.8387451171875,3.81927490234375,47.9827880859375
1663861779849578500,24.84157861328125,-39.02740478515625,5.19256591796875,48.90289306640625
1663861779869567500,24.8615673828125,-37.9852294921875,4.11529541015625,47.06878662109375
1663861779889556500,24.881556396484374,-38.1103515625,5.33294677734375,47.22747802734375
1663861779909545500,24.90154541015625,-38.59100341796875,4.26788330078125,47.22137451171875
1663861779929504000,24.92150390625,-39.95819091796875,4.5654296875,46.91619873046875
1663861779949523500,24.9415234375,-38.134765625,4.266357421875,46.917724609375
1663861779969512400,24.961512451171874,-37.78839111328125,6.08978271484375,46.9268798828125
1663861779989501400,24.98150146484375,-38.0035400390625,3.3447265625,45.8465576171875
1663861780009490700,25.00149072265625,-38.15765380859375,3.2135009765625,48.28338623046875
1663861780029479700,25.021479736328125,-37.066650390625,4.26788330078125,46.91925048828125
1663861780049468700,25.04146875,-37.0849609375,3.50799560546875,46.9146728515625
1663861780069457700,25.061457763671875,-37.6739501953125,4.41436767578125,46.30889892578125
1663861780089446700,25.08144677734375,-38.6016845703125,3.8116455078125,47.2198486328125
1663861780109435600,25.101435546875,-37.8814697265625,1.983642578125,46.44927978515625
1663861780129424600,25.121424560546874,-37.2100830078125,4.7149658203125,45.85418701171875
1663861780149413600,25.14141357421875,-39.05181884765625,4.11529541015625,47.3724365234375
1663861780169769000,25.16176904296875,-39.6759033203125,3.50494384765625,47.216796875
1663861780189544200,25.181544189453124,-37.21771240234375,4.40826416015625,45.5474853515625
1663861780209380600,25.201380615234374,-37.66632080078125,4.72412109375,47.0733642578125
1663861780229369900,25.221369873046875,-39.21966552734375,3.50341796875,46.91314697265625
1663861780249358800,25.24135888671875,-39.642333984375,5.01556396484375,46.1578369140625
1663861780269347800,25.261347900390625,-38.70697021484375,5.93109130859375,46.31500244140625
1663861780289336800,25.2813369140625,-39.654541015625,4.5501708984375,44.93560791015625
1663861780309325800,25.301325927734375,-39.95819091796875,4.5623779296875,46.4599609375
1663861780329314800,25.321314697265624,-39.801025390625,4.71954345703125,47.0703125
1663861780349303800,25.3413037109375,-38.3087158203125,3.3416748046875,45.5413818359375
1663861780369292800,25.361292724609374,-40.1611328125,2.28729248046875,47.05810546875
1663861780389281800,25.38128173828125,-38.922119140625,3.19671630859375,46.453857421875
1663861780409270800,25.401270751953124,-40.5792236328125,4.09698486328125,45.54290771484375
1663861780429229300,25.421229248046874,-38.7359619140625,4.7119140625,45.8526611328125
1663861780449248800,25.441248779296874,-40.44036865234375,3.4881591796875,45.38726806640625
1663861780469238000,25.461238037109375,-39.0533447265625,4.11376953125,47.06878662109375
1663861780489227000,25.48122705078125,-39.82696533203125,3.6407470703125,45.2362060546875
1663861780509216000,25.501216064453125,-39.83612060546875,3.32183837890625,43.4051513671875
1663861780529205000,25.521205078125,-39.8040771484375,4.693603515625,44.0216064453125
1663861780549194000,25.541194091796875,-40.58990478515625,3.6407470703125,45.53985595703125
1663861780569183000,25.561182861328124,-41.15753173828125,5.46722412109375,45.8526611328125
1663861780589172000,25.581171875,-40.41595458984375,4.55169677734375,45.391845703125
1663861780609161000,25.601160888671874,-40.4266357421875,4.229736328125,43.10455322265625
1663861780629119500,25.621119384765624,-40.9149169921875,2.862548828125,43.402099609375
1663861780649139000,25.641138916015624,-42.4041748046875,4.38232421875,43.71337890625
1663861780669128000,25.6611279296875,-40.8966064453125,3.6224365234375,43.40667724609375
1663861780689117000,25.681116943359374,-41.1773681640625,4.68902587890625,43.7164306640625
1663861780709106200,25.701106201171875,-39.97955322265625,3.77197265625,42.7978515625
1663861780729064400,25.721064453125,-43.0145263671875,4.37469482421875,42.950439453125
1663861780749084200,25.741084228515625,-40.5975341796875,3.3355712890625,45.233154296875
1663861780769073200,25.7610732421875,-41.49322509765625,4.2236328125,42.79937744140625
1663861780789062100,25.781062255859375,-41.63665771484375,4.6783447265625,42.6483154296875
1663861780809051100,25.801051025390624,-41.2017822265625,3.61785888671875,42.94891357421875
1663861780829040000,25.8210400390625,-42.1142578125,3.76129150390625,42.03338623046875
1663861780849029000,25.841029052734374,-41.17889404296875,4.67529296875,42.19207763671875
1663861780868987600,25.860987548828124,-39.80560302734375,4.68902587890625,43.41278076171875
1663861780889007000,25.881007080078124,-42.83599853515625,5.58319091796875,42.04254150390625
1663861780908996000,25.90099609375,-41.1773681640625,4.68597412109375,43.4112548828125
1663861780928985000,25.920985107421874,-42.7276611328125,3.61328125,42.6422119140625
1663861780948974300,25.940974365234375,-42.138671875,2.703857421875,42.79022216796875
1663861780968963300,25.96096337890625,-41.05987548828125,3.1646728515625,43.09844970703125
1663861780988952300,25.980952392578125,-41.96624755859375,3.607177734375,41.88079833984375
1663861781008941300,26.00094140625,-41.48712158203125,4.5257568359375,42.4957275390625
1663861781028930300,26.020930419921875,-41.95556640625,4.0618896484375,41.57867431640625
1663861781049163500,26.04116357421875,-43.64166259765625,3.74908447265625,40.96527099609375
1663861781069091300,26.06109130859375,-41.0369873046875,4.21905517578125,42.03643798828125
1663861781088897300,26.080897216796874,-41.949462890625,4.3670654296875,41.88385009765625
1663861781108886300,26.10088623046875,-42.4224853515625,3.61328125,42.6422119140625
1663861781128875300,26.120875244140624,-41.4764404296875,4.98199462890625,42.49725341796875
1663861781148864300,26.1408642578125,-40.12603759765625,4.0679931640625,41.8853759765625
1663861781168853200,26.160853271484374,-41.79229736328125,4.53033447265625,43.10455322265625
1663861781188842500,26.180842529296875,-42.7276611328125,3.61328125,42.6422119140625
1663861781208831500,26.20083154296875,-41.78009033203125,4.9896240234375,43.5638427734375
1663861781228820500,26.220820556640625,-40.88897705078125,4.05731201171875,40.8172607421875
1663861781248809500,26.2408095703125,-40.8966064453125,3.6224365234375,43.40667724609375
1663861781268798500,26.260798583984375,-42.85888671875,4.534912109375,43.865966796875
1663861781288787500,26.280787353515624,-42.578125,3.46527099609375,43.09844970703125
1663861781308776400,26.3007763671875,-41.19110107421875,4.0802001953125,43.71337890625
1663861781328735000,26.32073486328125,-39.80560302734375,4.68292236328125,42.64984130859375
1663861781348754400,26.34075439453125,-41.046142578125,3.7750244140625,43.55926513671875
1663861781368774100,26.360774169921875,-41.07666015625,2.410888671875,43.8568115234375
1663861781388732400,26.380732421875,-39.8468017578125,2.8656005859375,43.40362548828125
1663861781408721400,26.400721435546874,-43.34716796875,3.16314697265625,43.55316162109375
1663861781428710700,26.420710693359375,-40.740966796875,3.77197265625,43.10150146484375
1663861781448699600,26.44069970703125,-40.59906005859375,3.31268310546875,42.6422119140625
1663861781468688600,26.460688720703125,-39.68658447265625,3.1707763671875,43.5577392578125
1663861781488677600,26.480677734375,-41.66717529296875,3.30657958984375,42.1844482421875
1663861781508666600,26.50066650390625,-41.0614013671875,3.1585693359375,42.4896240234375
1663861781528655600,26.520655517578124,-39.8193359375,4.08172607421875,43.40972900390625
1663861781548644600,26.54064453125,-40.11688232421875,4.38690185546875,43.71490478515625
1663861781568664000,26.5606640625,-40.12451171875,4.0802001953125,43.40972900390625
1663861781588622600,26.58062255859375,-40.11688232421875,4.38690185546875,43.71490478515625
1663861781608611600,26.600611572265624,-40.92864990234375,2.24456787109375,42.17987060546875
1663861781628600600,26.6206005859375,-39.95208740234375,4.98504638671875,42.498779296875
1663861781648589800,26.64058984375,-41.510009765625,3.47747802734375,44.31915283203125
1663861781668609300,26.660609375,-41.79229736328125,4.53033447265625,43.10455322265625
1663861781688567800,26.68056787109375,-41.0308837890625,4.5135498046875,40.97137451171875
1663861781708556800,26.700556884765625,-40.4205322265625,4.52423095703125,42.03948974609375
1663861781728545800,26.7205458984375,-41.20941162109375,3.3111572265625,42.6422119140625
1663861781748534800,26.74053466796875,-41.6015625,6.201171875,42.96112060546875
1663861781768523800,26.760523681640624,-40.740966796875,3.77197265625,43.10150146484375
1663861781788512800,26.7805126953125,-41.5191650390625,3.15399169921875,42.0318603515625
1663861781808501800,26.800501708984374,-41.8182373046875,3.4454345703125,40.66009521484375
1663861781828490800,26.82049072265625,-41.2017822265625,3.61785888671875,42.94891357421875
1663861781848479700,26.840479736328124,-41.66107177734375,3.60870361328125,41.88079833984375
1663861781868468700,26.86046875,-40.728759765625,4.24346923828125,44.93255615234375
1663861781888458000,26.8804580078125,-39.9627685546875,4.5257568359375,42.03948974609375
1663861781908447000,26.900447021484375,-41.50390625,3.765869140625,42.49114990234375
1663861781928710700,26.920710693359375,-40.78369140625,1.94549560546875,42.7886962890625
1663861781948669000,26.9406689453125,-41.2017822265625,3.61785888671875,42.94891357421875
1663861781968414000,26.9604140625,-40.59295654296875,3.6163330078125,42.64373779296875
1663861781988403000,26.98040283203125,-39.532470703125,3.3172607421875,42.94891357421875
1663861782008392000,27.000391845703124,-40.59906005859375,3.31268310546875,42.6422119140625
1663861782028381000,27.020380859375,-41.17889404296875,4.67987060546875,42.6483154296875
1663861782048370000,27.040369873046874,-39.99176025390625,3.1707763671875,43.5577392578125
1663861782068359000,27.06035888671875,-40.44342041015625,3.4698486328125,43.10150146484375
1663861782088348000,27.080347900390624,-40.62347412109375,2.2491455078125,42.63763427734375
1663861782108337000,27.1003369140625,-39.96124267578125,4.5318603515625,42.80242919921875
1663861782128326100,27.120326171875,-39.69879150390625,2.70233154296875,42.0318603515625
1663861782148345600,27.140345703125,-39.97039794921875,4.2205810546875,42.0379638671875
1663861782168304000,27.16030419921875,-39.056396484375,4.08782958984375,44.02008056640625
1663861782188293000,27.180293212890625,-37.6953125,3.62548828125,42.95196533203125
1663861782208282000,27.2002822265625,-39.8223876953125,4.0618896484375,41.12396240234375
1663861782228271000,27.22027099609375,-39.22271728515625,3.47137451171875,43.10302734375
