time,seconds_elapsed,z,y,x
1663861755203164200,0.1951640625,-41.4459228515625,-14.61944580078125,25.830078125
1663861755223120600,0.21512060546875,-42.041015625,-14.00909423828125,26.28936767578125
1663861755243079200,0.2350791015625,-41.53594970703125,-11.8865966796875,25.53863525390625
1663861755263098600,0.2550986328125,-40.948486328125,-12.9364013671875,27.05841064453125
1663861755283118000,0.2751181640625,-41.05682373046875,-10.96649169921875,26.458740234375
1663861755303076600,0.29507666015625,-41.38031005859375,-11.72943115234375,26.14898681640625
1663861755323065600,0.315065673828125,-43.5150146484375,-11.7401123046875,25.384521484375
1663861755343054600,0.3350546875,-40.8843994140625,-10.0616455078125,25.54779052734375
1663861755363043600,0.355043701171875,-43.06182861328125,-11.8988037109375,24.47052001953125
1663861755383032600,0.375032470703125,-43.8018798828125,-10.845947265625,23.406982421875
1663861755403021600,0.395021484375,-44.41070556640625,-10.83984375,24.16839599609375
1663861755423010800,0.4150107421875,-42.44384765625,-11.45172119140625,23.25439453125
1663861755442999800,0.434999755859375,-43.1884765625,-10.69793701171875,22.7996826171875
1663861755463324400,0.455324462890625,-43.8507080078125,-12.9730224609375,23.3978271484375
1663861755483100000,0.475099853515625,-44.45343017578125,-12.677001953125,22.63641357421875
1663861755502966800,0.494966796875,-43.24798583984375,-13.28582763671875,22.1771240234375
1663861755522986200,0.514986328125,-43.41278076171875,-13.7603759765625,20.0408935546875
1663861755542944800,0.53494482421875,-44.33135986328125,-13.91143798828125,20.34454345703125
1663861755562933800,0.554933837890625,-44.34356689453125,-14.3829345703125,18.51348876953125
1663861755582953200,0.574953125,-44.1925048828125,-14.51873779296875,20.49407958984375
1663861755602911700,0.594911865234375,-43.5699462890625,-13.92059326171875,19.1253662109375
1663861755622900700,0.614900634765625,-44.99664306640625,-16.34979248046875,19.72198486328125
1663861755642889700,0.6348896484375,-43.43719482421875,-14.82391357421875,20.03631591796875
1663861755662879000,0.65487890625,-45.13092041015625,-15.45562744140625,17.74444580078125
1663861755682868000,0.674867919921875,-43.463134765625,-15.8935546875,19.42138671875
1663861755702857000,0.69485693359375,-44.061279296875,-15.43426513671875,19.879150390625
1663861755722846000,0.714845947265625,-43.14422607421875,-15.28778076171875,18.9666748046875
1663861755742835000,0.7348349609375,-43.60504150390625,-15.435791015625,19.57550048828125
1663861755762793500,0.75479345703125,-43.878173828125,-14.07012939453125,19.42901611328125
1663861755782813000,0.77481298828125,-42.55523681640625,-16.20330810546875,18.505859375
1663861755802802000,0.794802001953125,-45.11260986328125,-14.678955078125,19.5770263671875
1663861755822760400,0.814760498046875,-44.00482177734375,-12.8631591796875,18.5211181640625
1663861755842780000,0.83477978515625,-43.6126708984375,-15.7562255859375,17.74444580078125
1663861755862769000,0.854768798828125,-44.20318603515625,-14.8529052734375,16.83349609375
1663861755882758000,0.8747578125,-45.45440673828125,-16.22161865234375,16.97845458984375
1663861755902747000,0.894746826171875,-43.36395263671875,-18.060302734375,14.68505859375
1663861755922735900,0.91473583984375,-44.23980712890625,-16.3848876953125,15.30303955078125
1663861755942724900,0.934724853515625,-43.95294189453125,-17.1478271484375,14.99481201171875
1663861755962714000,0.954714111328125,-44.56939697265625,-17.449951171875,15.29693603515625
1663861755982672400,0.97467236328125,-44.52056884765625,-15.3289794921875,14.54620361328125
1663861756002692000,0.994692138671875,-43.50433349609375,-17.47283935546875,12.40234375
1663861756022681000,1.01468115234375,-45.75653076171875,-15.95458984375,12.71209716796875
1663861756042670000,1.034670166015625,-44.83795166015625,-15.7989501953125,12.8662109375
1663861756062659000,1.0546591796875,-43.50433349609375,-17.47589111328125,11.944580078125
1663861756082648000,1.07464794921875,-45.013427734375,-16.7236328125,11.3372802734375
1663861756102637000,1.094636962890625,-44.27337646484375,-17.77801513671875,12.40081787109375
1663861756122626000,1.1146259765625,-45.3369140625,-17.49114990234375,10.5712890625
1663861756142615000,1.134614990234375,-44.07958984375,-15.82794189453125,9.210205078125
1663861756162604000,1.15460400390625,-44.41070556640625,-16.90216064453125,8.13751220703125
1663861756182593000,1.174593017578125,-45.51239013671875,-18.42041015625,8.58612060546875
1663861756202582300,1.194582275390625,-43.487548828125,-16.4581298828125,6.463623046875
1663861756222571300,1.2145712890625,-44.4488525390625,-18.44940185546875,4.7760009765625
1663861756242560300,1.234560302734375,-45.196533203125,-17.71240234375,2.3406982421875
1663861756262518800,1.254518798828125,-43.4234619140625,-20.025634765625,-2.08740234375
1663861756282538200,1.274538330078125,-42.37060546875,-20.63751220703125,-2.85186767578125
1663861756302527200,1.29452734375,-39.35699462890625,-22.0458984375,-8.49456787109375
1663861756322516200,1.31451611328125,-37.408447265625,-23.3001708984375,-13.52691650390625
1663861756342749400,1.33474951171875,-34.4024658203125,-25.01068115234375,-18.865966796875
1663861756362616300,1.3546162109375,-29.6966552734375,-25.79193115234375,-22.52197265625
1663861756382483200,1.374483154296875,-24.78485107421875,-24.15924072265625,-28.45306396484375
1663861756402472200,1.39447216796875,-21.8017578125,-20.2301025390625,-31.78253173828125
1663861756422430700,1.4144306640625,-17.15087890625,-16.7572021484375,-35.5712890625
1663861756442450400,1.434450439453125,-16.2689208984375,-11.32049560546875,-39.9627685546875
1663861756462439400,1.454439453125,-10.97564697265625,-6.451416015625,-40.5426025390625
1663861756482428400,1.474428466796875,-7.342529296875,-0.83770751953125,-42.49114990234375
1663861756502417400,1.49441748046875,-3.58123779296875,3.58428955078125,-41.70379638671875
1663861756522406400,1.514406494140625,-4.736328125,6.4697265625,-41.69158935546875
1663861756542395400,1.5343955078125,-4.9652099609375,9.81292724609375,-41.6748046875
1663861756562354000,1.55435400390625,-5.9661865234375,12.701416015625,-41.357421875
1663861756582373400,1.574373291015625,-7.0343017578125,12.69683837890625,-41.66259765625
1663861756602362400,1.5943623046875,-9.7900390625,12.09869384765625,-39.6881103515625
1663861756622351400,1.614351318359375,-10.41259765625,11.627197265625,-41.3665771484375
1663861756642340400,1.63434033203125,-10.858154296875,12.09716796875,-39.68963623046875
1663861756662329300,1.654329345703125,-11.7523193359375,13.0126953125,-39.07623291015625
1663861756682318600,1.674318603515625,-12.689208984375,12.08038330078125,-41.21551513671875
1663861756702307600,1.6943076171875,-11.48834228515625,11.18316650390625,-39.8468017578125
1663861756722296600,1.714296630859375,-12.713623046875,11.0198974609375,-40.76385498046875
1663861756742285600,1.73428564453125,-9.87396240234375,8.44573974609375,-40.46783447265625
1663861756762274600,1.754274658203125,-11.62109375,5.39398193359375,-41.39862060546875
1663861756782263600,1.774263671875,-11.30218505859375,6.00433349609375,-41.24298095703125
1663861756802252500,1.79425244140625,-10.1318359375,3.87420654296875,-41.70989990234375
1663861756822241500,1.814241455078125,-8.79058837890625,2.51007080078125,-41.7144775390625
1663861756842230500,1.83423046875,-5.10711669921875,3.57818603515625,-42.1630859375
1663861756862219500,1.854219482421875,-6.2896728515625,5.2459716796875,-42.30804443359375
1663861756882178000,1.874177978515625,-3.8421630859375,5.55419921875,-42.303466796875
1663861756902197800,1.89419775390625,-3.8177490234375,6.6192626953125,-42.29888916015625
1663861756922186800,1.914186767578125,-3.1890869140625,7.51800537109375,-43.9697265625
1663861756942175700,1.93417578125,-3.16009521484375,8.7432861328125,-42.89703369140625
1663861756962164700,1.954164794921875,-4.63409423828125,10.894775390625,-39.5355224609375
1663861756982123300,1.974123291015625,-5.02777099609375,13.641357421875,-38.1500244140625
1663861757002142700,1.994142822265625,-5.5938720703125,15.60821533203125,-39.056396484375
1663861757022131700,2.014131591796875,-4.0283203125,17.431640625,-39.501953125
1663861757042120700,2.03412060546875,-3.7689208984375,22.015380859375,-36.737060546875
1663861757062109700,2.054109619140625,-4.96063232421875,23.2330322265625,-36.12213134765625
1663861757082098700,2.0740986328125,-3.09295654296875,24.77569580078125,-33.978271484375
1663861757102087700,2.094087646484375,-1.8524169921875,25.69122314453125,-33.82110595703125
1663861757122076700,2.11407666015625,-1.9775390625,26.904296875,-33.96759033203125
1663861757142066000,2.13406591796875,-4.248046875,27.65960693359375,-33.966064453125
1663861757162055000,2.154054931640625,-3.96270751953125,26.7608642578125,-32.598876953125
1663861757182044000,2.1740439453125,-2.88848876953125,27.06298828125,-33.0535888671875
1663861757202033000,2.194032958984375,-3.3782958984375,25.68817138671875,-33.8226318359375
1663861757222266000,2.21426611328125,-2.72979736328125,27.23236083984375,-31.07147216796875
1663861757242163500,2.23416357421875,-2.8289794921875,29.65545654296875,-31.9732666015625
1663861757261999900,2.253999755859375,-2.679443359375,29.50286865234375,-32.1258544921875
1663861757281988900,2.27398876953125,-1.94091796875,28.44085693359375,-32.13043212890625
1663861757302008300,2.29400830078125,-0.75225830078125,27.07366943359375,-32.28912353515625
1663861757321966800,2.313966796875,0.48065185546875,27.6763916015625,-33.19854736328125
1663861757341955800,2.333955810546875,-0.701904296875,29.35028076171875,-32.58209228515625
1663861757361944800,2.35394482421875,-0.52032470703125,30.5755615234375,-31.6619873046875
1663861757381934000,2.37393408203125,1.959228515625,32.26165771484375,-30.43060302734375
1663861757401923000,2.393923095703125,1.16424560546875,30.75408935546875,-28.9154052734375
1663861757421912000,2.413912109375,3.3660888671875,33.660888671875,-27.07061767578125
1663861757441901000,2.433901123046875,4.67681884765625,37.49542236328125,-23.2391357421875
1663861757461890000,2.45389013671875,5.3192138671875,38.87481689453125,-22.0123291015625
1663861757481879000,2.473879150390625,3.36456298828125,40.093994140625,-21.09527587890625
1663861757501868000,2.493867919921875,3.9886474609375,40.58074951171875,-17.58575439453125
1663861757521857000,2.51385693359375,3.253173828125,41.656494140625,-16.058349609375
1663861757541846000,2.533845947265625,3.40423583984375,41.52069091796875,-14.0777587890625
1663861757561835000,2.5538349609375,1.14593505859375,42.7459716796875,-12.39776611328125
1663861757581824000,2.573823974609375,1.17034912109375,43.8079833984375,-12.69683837890625
1663861757601843700,2.59384375,-1.4434814453125,42.76275634765625,-9.80987548828125
1663861757621802200,2.61380224609375,-2.0263671875,43.9788818359375,-9.65118408203125
1663861757641791200,2.633791259765625,0.567626953125,43.98956298828125,-8.88671875
1663861757661780200,2.6537802734375,-1.70440673828125,44.60296630859375,-7.66754150390625
1663861757681761300,2.67376123046875,-3.85284423828125,43.99261474609375,-7.51953125
1663861757701750300,2.693750244140625,-2.4505615234375,45.35980224609375,-7.96966552734375
1663861757721739500,2.713739501953125,-2.47344970703125,44.30694580078125,-6.60247802734375
1663861757741728500,2.733728515625,-1.68914794921875,45.34759521484375,-9.49249267578125
1663861757761686800,2.753686767578125,0.39520263671875,43.0816650390625,-8.43353271484375
1663861757781706500,2.77370654296875,0.262451171875,43.99566650390625,-8.12530517578125
1663861757801695500,2.793695556640625,0.88958740234375,44.757080078125,-8.1207275390625
1663861757821684500,2.8136845703125,-0.94146728515625,44.74334716796875,-9.3414306640625
1663861757841673500,2.833673583984375,0.75836181640625,45.66650390625,-8.42132568359375
1663861757861662500,2.853662353515625,-0.0213623046875,44.90509033203125,-8.4259033203125
1663861757881651500,2.8736513671875,0.72784423828125,44.3023681640625,-7.97119140625
1663861757901640400,2.893640380859375,-0.04425048828125,43.8507080078125,-7.2113037109375
1663861757921629400,2.91362939453125,-0.6317138671875,44.89898681640625,-9.0362548828125
1663861757941618400,2.933618408203125,0.42266845703125,44.30389404296875,-7.666015625
1663861757961577000,2.953576904296875,-0.3387451171875,44.30694580078125,-7.20977783203125
1663861757981596700,2.9735966796875,-0.6439208984375,44.3023681640625,-7.66754150390625
1663861758001585700,2.993585693359375,0.90179443359375,45.2239990234375,-6.74591064453125
1663861758021574700,3.01357470703125,0.30517578125,45.819091796875,-8.11614990234375
1663861758041563600,3.033563720703125,0.29296875,45.22705078125,-6.2896728515625
1663861758061552600,3.053552734375,-0.628662109375,44.92950439453125,-5.37872314453125
1663861758081511200,3.07351123046875,0.58135986328125,44.47479248046875,-5.53131103515625
1663861758101805300,3.093805419921875,-0.14801025390625,45.8526611328125,-4.1534423828125
1663861758121733400,3.1137333984375,0.32501220703125,46.60186767578125,-5.5206298828125
1663861758141508600,3.133508544921875,0.76446533203125,45.71380615234375,-2.78167724609375
1663861758161528300,3.1535283203125,1.21917724609375,45.69549560546875,-5.06744384765625
1663861758181486600,3.173486572265625,0.28533935546875,44.793701171875,-3.7017822265625
1663861758201506300,3.19350634765625,0.45928955078125,45.709228515625,-3.23944091796875
1663861758221464800,3.21346484375,0.45013427734375,45.38726806640625,-5.3741455078125
1663861758241453800,3.233453857421875,0.738525390625,44.63653564453125,-4.31060791015625
1663861758261412400,3.253412353515625,0.31585693359375,46.28753662109375,-6.7413330078125
1663861758281431800,3.273431884765625,1.96990966796875,45.233154296875,-5.98297119140625
1663861758301420800,3.2934208984375,0.40740966796875,43.5577392578125,-6.146240234375
1663861758321409800,3.313409912109375,1.66473388671875,45.2301025390625,-6.28814697265625
1663861758341398800,3.333398681640625,0.579833984375,44.4610595703125,-7.0556640625
1663861758361387800,3.3533876953125,0.0213623046875,46.74072265625,-6.89239501953125
1663861758381376800,3.373376708984375,0.58746337890625,44.7784423828125,-5.52978515625
1663861758401365800,3.39336572265625,0.4364013671875,44.90509033203125,-8.42437744140625
1663861758421354800,3.413354736328125,0.72784423828125,44.3023681640625,-7.97119140625
1663861758441344000,3.433343994140625,0.9063720703125,45.50628662109375,-9.3353271484375
1663861758461333000,3.4533330078125,-0.13427734375,46.588134765625,-7.0465087890625
1663861758481322000,3.473322021484375,-0.05035400390625,43.55010986328125,-6.90765380859375
1663861758501311000,3.49331103515625,1.86004638671875,47.18780517578125,-8.41217041015625
1663861758521300000,3.513300048828125,0.4638671875,46.1273193359375,-7.6568603515625
1663861758541258500,3.533258544921875,1.4892578125,44.29931640625,-8.42742919921875
1663861758561278000,3.55327783203125,0.4486083984375,45.38116455078125,-6.1370849609375
1663861758581267000,3.573266845703125,-0.970458984375,43.38531494140625,-8.1298828125
1663861758601256000,3.593255859375,1.4739990234375,43.5546875,-6.60247802734375
1663861758621245000,3.613244873046875,1.348876953125,44.76318359375,-7.5103759765625
1663861758641234000,3.63323388671875,0.30517578125,45.8282470703125,-7.049560546875
1663861758661223000,3.653222900390625,1.5045166015625,44.92034912109375,-6.9000244140625
1663861758681212200,3.673212158203125,1.62353515625,43.40667724609375,-6.29730224609375
1663861758701201200,3.693201171875,1.36566162109375,45.51849365234375,-8.11614990234375
1663861758721190100,3.713190185546875,1.18560791015625,44.305419921875,-7.66448974609375
1663861758741179100,3.73317919921875,1.9683837890625,45.21484375,-8.11767578125
1663861758761168100,3.753168212890625,0.5859375,44.7662353515625,-7.05413818359375
1663861758781157000,3.7731572265625,0.87432861328125,44.00634765625,-7.05718994140625
1663861758801115600,3.79311572265625,-0.32501220703125,44.91424560546875,-7.20672607421875
1663861758821135000,3.813135009765625,0.77056884765625,46.13494873046875,-6.8939208984375
1663861758841124000,3.8331240234375,-1.1016845703125,44.30084228515625,-7.66754150390625
1663861758861113000,3.853113037109375,0.57830810546875,44.451904296875,-8.12225341796875
1663861758881102000,3.87310205078125,0.848388671875,42.9290771484375,-8.58612060546875
1663861758901091300,3.89309130859375,0.26397705078125,44.00787353515625,-6.7535400390625
1663861758921080300,3.913080322265625,1.5045166015625,44.91424560546875,-7.66143798828125
1663861758941069300,3.9330693359375,1.8096923828125,44.9188232421875,-7.20367431640625
1663861758961058300,3.953058349609375,0.91705322265625,45.83892822265625,-5.9814453125
1663861758981352400,3.9733525390625,1.3580322265625,45.21942138671875,-7.50885009765625
1663861759001280500,3.993280517578125,-0.0091552734375,45.37353515625,-6.9000244140625
1663861759021025300,4.013025390625,-0.02593994140625,44.6197509765625,-6.14166259765625
1663861759041014300,4.03301416015625,0.27618408203125,44.47021484375,-5.98907470703125
1663861759061003300,4.053003173828125,1.65252685546875,44.76165771484375,-7.8155517578125
1663861759080992300,4.0729921875,-1.06964111328125,45.684814453125,-5.8319091796875
1663861759100981200,4.092981201171875,0.72784423828125,44.3084716796875,-7.208251953125
1663861759120970200,4.11297021484375,1.17645263671875,43.8568115234375,-6.9061279296875
1663861759140959500,4.13295947265625,0.5615234375,43.6981201171875,-7.5164794921875
1663861759160948500,4.152948486328125,1.62200927734375,43.3929443359375,-7.8216552734375
1663861759180937500,4.1729375,-0.921630859375,45.513916015625,-8.11920166015625
1663861759200926500,4.192926513671875,-0.4638671875,45.5230712890625,-7.05108642578125
1663861759220885000,4.212885009765625,0.72784423828125,44.29779052734375,-8.42742919921875
1663861759240904400,4.232904541015625,1.18560791015625,44.305419921875,-7.66448974609375
1663861759260893400,4.2528935546875,-0.02593994140625,44.61669921875,-6.597900390625
1663861759280852000,4.27285205078125,-0.30975341796875,45.66192626953125,-8.72650146484375
1663861759300871400,4.292871337890625,1.3641357421875,45.51239013671875,-8.8775634765625
1663861759320860400,4.3128603515625,-0.49896240234375,43.994140625,-8.12530517578125
1663861759340849400,4.332849365234375,0.71868896484375,43.85833740234375,-6.6009521484375
1663861759360838400,4.35283837890625,0.57830810546875,44.4549560546875,-7.81707763671875
1663861759380797000,4.372796875,0.3173828125,46.29058837890625,-6.28509521484375
1663861759400816600,4.392816650390625,-0.0091552734375,45.37353515625,-6.9000244140625
1663861759420805600,4.4128056640625,-0.0213623046875,44.90814208984375,-7.9681396484375
1663861759440794600,4.432794677734375,1.21002197265625,45.37811279296875,-6.59332275390625
1663861759460783600,4.45278369140625,-1.40533447265625,44.30999755859375,-6.6009521484375
1663861759480742100,4.4727421875,1.1932373046875,44.61822509765625,-6.59637451171875
1663861759500761600,4.49276171875,-0.06256103515625,43.0877685546875,-7.672119140625
1663861759520750600,4.51275048828125,1.33209228515625,44.0093994140625,-6.75201416015625
1663861759540709000,4.532709228515625,0.75836181640625,45.672607421875,-7.65838623046875
1663861759560728600,4.552728515625,0.4547119140625,45.68023681640625,-6.591796875
1663861759580717600,4.572717529296875,0.24871826171875,43.38836669921875,-8.12835693359375
1663861759600676000,4.592676025390625,0.42266845703125,44.30084228515625,-7.97119140625
1663861759620695800,4.61269580078125,-0.15869140625,45.52001953125,-7.50885009765625
1663861759640684800,4.632684814453125,0.6103515625,45.8251953125,-7.50579833984375
1663861759660673800,4.652673828125,-0.0091552734375,45.3765869140625,-6.5948486328125
1663861759680662800,4.672662841796875,-0.48828125,44.45953369140625,-7.05718994140625
1663861759700651800,4.69265185546875,0.56915283203125,44.00634765625,-7.05718994140625
1663861759720640800,4.712640869140625,1.34124755859375,44.4549560546875,-8.1207275390625
1663861759740629800,4.732629638671875,0.88348388671875,44.45648193359375,-7.81707763671875
1663861759760618800,4.75261865234375,-0.35552978515625,43.5577392578125,-5.841064453125
1663861759780607700,4.772607666015625,0.7598876953125,45.67718505859375,-7.2021484375
1663861759800596700,4.7925966796875,-0.02593994140625,44.6197509765625,-6.14166259765625
1663861759820585700,4.812585693359375,1.94091796875,44.00787353515625,-7.0556640625
1663861759840574700,4.83257470703125,-0.92010498046875,45.52459716796875,-6.7474365234375
1663861759860899600,4.852899658203125,1.6357421875,44.00177001953125,-7.818603515625
1663861759880827600,4.87282763671875,0.41351318359375,43.8568115234375,-6.6009521484375
1663861759900603000,4.892602783203125,-0.35552978515625,43.54705810546875,-7.21282958984375
1663861759920531000,4.912531005859375,-0.03509521484375,44.30389404296875,-7.666015625
1663861759940550400,4.93255029296875,-0.2166748046875,42.94586181640625,-6.3018798828125
1663861759960539400,4.952539306640625,2.25982666015625,44.61822509765625,-6.9000244140625
1663861759980498000,4.972497802734375,1.35040283203125,44.77386474609375,-6.29119873046875
1663861760000487000,4.99248681640625,1.36566162109375,45.5230712890625,-7.50732421875
1663861760020476000,5.012475830078125,-0.48828125,44.45343017578125,-7.818603515625
1663861760040465000,5.03246484375,0.4364013671875,44.90966796875,-7.9681396484375
1663861760060454000,5.052453857421875,0.7110595703125,43.5455322265625,-7.6690673828125
1663861760080443000,5.07244287109375,1.5167236328125,45.3857421875,-5.83038330078125
1663861760100432100,5.09243212890625,-0.0335693359375,44.31610107421875,-6.1431884765625
1663861760120421000,5.112421142578125,0.61187744140625,45.83892822265625,-5.9814453125
1663861760140410000,5.13241015625,0.73394775390625,44.59991455078125,-8.7310791015625
1663861760160399000,5.152399169921875,0.47760009765625,46.73004150390625,-8.416748046875
1663861760180388000,5.17238818359375,-0.0457763671875,43.841552734375,-8.43048095703125
1663861760200377000,5.192377197265625,-0.164794921875,45.22705078125,-6.29119873046875
1663861760220396500,5.212396484375,-1.25274658203125,44.44427490234375,-8.58154296875
1663861760240355000,5.23235498046875,-0.201416015625,43.69049072265625,-8.1268310546875
1663861760260344000,5.252343994140625,-1.26800537109375,43.69964599609375,-6.756591796875
1663861760280333000,5.2723330078125,0.7415771484375,44.91729736328125,-7.2052001953125
1663861760300322000,5.292322021484375,-1.6876220703125,45.361328125,-7.9681396484375
1663861760320311300,5.312311279296875,1.3427734375,44.46563720703125,-6.75048828125
1663861760340300300,5.33230029296875,0.77056884765625,46.13494873046875,-6.8939208984375
1663861760360258600,5.352258544921875,0.42266845703125,44.29779052734375,-8.42742919921875
1663861760380278300,5.3722783203125,-0.164794921875,45.22705078125,-6.29119873046875
1663861760400267300,5.392267333984375,0.7537841796875,45.37811279296875,-6.59332275390625
1663861760420256300,5.41225634765625,-0.33111572265625,44.6136474609375,-6.903076171875
1663861760440245200,5.432245361328125,3.20281982421875,45.831298828125,-7.50274658203125
1663861760460234200,5.452234130859375,-0.13580322265625,46.5728759765625,-8.87451171875
1663861760480223200,5.47222314453125,-0.0213623046875,44.90814208984375,-7.9681396484375
1663861760500212200,5.492212158203125,2.25982666015625,44.61822509765625,-6.9000244140625
1663861760520201200,5.512201171875,0.4241943359375,44.31915283203125,-5.83648681640625
1663861760540190200,5.532190185546875,0.7415771484375,44.9127197265625,-7.6629638671875
1663861760560179500,5.552179443359375,0.4364013671875,44.9127197265625,-7.6629638671875
1663861760580168400,5.57216845703125,1.52130126953125,45.67108154296875,-7.96356201171875
1663861760600157400,5.592157470703125,-0.04425048828125,43.853759765625,-6.9061279296875
1663861760620146400,5.612146484375,-0.3570556640625,43.54248046875,-7.67059326171875
1663861760640135400,5.632135498046875,1.95159912109375,44.4580078125,-7.8155517578125
1663861760660124400,5.65212451171875,1.654052734375,44.77386474609375,-6.29119873046875
1663861760680113400,5.672113525390625,-0.45623779296875,45.8343505859375,-6.28814697265625
1663861760700102400,5.692102294921875,1.63726806640625,44.00787353515625,-7.05718994140625
1663861760720061000,5.71206103515625,1.19171142578125,44.60906982421875,-7.6629638671875
1663861760740080400,5.732080322265625,1.30615234375,42.93670654296875,-7.82470703125
1663861760760374500,5.75237451171875,0.86517333984375,43.68896484375,-8.58306884765625
1663861760780119600,5.77211962890625,0.71868896484375,43.85223388671875,-7.2113037109375
1663861760800047600,5.792047607421875,1.7791748046875,43.5516357421875,-7.2113037109375
1663861760820036600,5.81203662109375,0.28076171875,44.76470947265625,-7.05413818359375
1663861760840025600,5.832025634765625,1.49078369140625,44.31304931640625,-6.903076171875
1663861760860014600,5.8520146484375,-0.02593994140625,44.61669921875,-6.597900390625
1663861760880003600,5.872003662109375,0.71868896484375,43.85223388671875,-7.2113037109375
1663861760899992600,5.89199267578125,1.4984130859375,44.622802734375,-6.13861083984375
1663861760919981600,5.911981689453125,-0.0030517578125,45.68023681640625,-6.59332275390625
1663861760939970600,5.931970458984375,0.445556640625,45.361328125,-8.4228515625
1663861760959959600,5.95195947265625,0.4058837890625,43.548583984375,-7.21282958984375
1663861760979948500,5.971948486328125,2.410888671875,44.47784423828125,-5.52978515625
1663861760999937500,5.9919375,-0.469970703125,45.21942138671875,-7.0526123046875
1663861761019926500,6.011926513671875,2.38494873046875,43.40362548828125,-6.7535400390625
1663861761039915800,6.031915771484375,4.09393310546875,44.647216796875,-4.00238037109375
1663861761059904800,6.05190478515625,1.1749267578125,43.853759765625,-7.20977783203125
1663861761079893800,6.071893798828125,1.8280029296875,45.68328857421875,-6.59027099609375
1663861761099882800,6.0918828125,1.49383544921875,44.32830810546875,-5.07354736328125
1663861761119871700,6.111871826171875,0.4486083984375,45.37506103515625,-6.89849853515625
1663861761139830300,6.131830322265625,1.81884765625,45.3704833984375,-7.659912109375
1663861761159849700,6.151849609375,0.59814453125,45.22857666015625,-6.2896728515625
1663861761179838700,6.171838623046875,1.666259765625,45.2392578125,-5.2215576171875
1663861761199827700,6.19182763671875,1.50604248046875,44.92645263671875,-6.1370849609375
1663861761219816700,6.211816650390625,0.90179443359375,45.2239990234375,-6.74591064453125
1663861761239805700,6.2318056640625,1.35040283203125,44.77386474609375,-6.29119873046875
1663861761259794700,6.251794677734375,0.91094970703125,45.5413818359375,-5.2215576171875
1663861761279784000,6.271783935546875,1.5472412109375,46.746826171875,-6.585693359375
1663861761299773000,6.29177294921875,2.72216796875,44.77691650390625,-6.2896728515625
1663861761319762000,6.311761962890625,1.99432373046875,46.295166015625,-6.2835693359375
1663861761339751000,6.3317509765625,1.36871337890625,45.55206298828125,-4.1534423828125
1663861761359740000,6.351739990234375,1.48162841796875,43.865966796875,-5.8380126953125
1663861761379729000,6.37172900390625,2.5726318359375,44.9249267578125,-6.59332275390625
1663861761399718000,6.3917177734375,1.67236328125,45.54290771484375,-5.22003173828125
1663861761419829000,6.4118291015625,0.7293701171875,44.3206787109375,-5.83648681640625
1663861761439696000,6.43169580078125,2.44140625,45.8465576171875,-5.52215576171875
1663861761459715600,6.451715576171875,2.83050537109375,42.81158447265625,-5.07965087890625
1663861761479673900,6.471673828125,3.7841796875,44.49005126953125,-4.46014404296875
1663861761499663000,6.4916630859375,2.26287841796875,44.63043212890625,-5.37567138671875
1663861761519682600,6.5116826171875,2.5604248046875,44.329833984375,-5.072021484375
1663861761539671600,6.531671630859375,2.59246826171875,45.70159912109375,-4.608154296875
1663861761559660500,6.55166064453125,2.569580078125,44.647216796875,-3.54766845703125
1663861761579619000,6.571619140625,1.20086669921875,44.92645263671875,-6.13861083984375
1663861761599608000,6.591608154296875,3.35540771484375,45.709228515625,-3.997802734375
1663861761619627500,6.61162744140625,3.485107421875,44.77996826171875,-5.9844970703125
1663861761640043800,6.632043701171875,4.57000732421875,45.54595947265625,-5.52215576171875
1663861761659758000,6.651758056640625,2.764892578125,46.612548828125,-4.90875244140625
1663861761679686100,6.67168603515625,2.25830078125,44.34967041015625,-2.7862548828125
1663861761699583700,6.691583740234375,4.241943359375,44.48699951171875,-4.91790771484375
1663861761719542000,6.7115419921875,2.4139404296875,44.49615478515625,-3.39508056640625
1663861761739531300,6.73153125,3.7841796875,44.48699951171875,-4.91790771484375
1663861761759550700,6.75155078125,3.1585693359375,43.7347412109375,-3.70330810546875
1663861761779509200,6.77150927734375,1.812744140625,44.940185546875,-4.61273193359375
1663861761799498200,6.791498291015625,3.497314453125,45.25909423828125,-3.3905029296875
1663861761819517700,6.811517578125,3.15704345703125,43.7286376953125,-4.4647216796875
1663861761839506700,6.831506591796875,3.33099365234375,44.63958740234375,-4.61273193359375
1663861761859526100,6.851526123046875,3.48052978515625,44.4976806640625,-3.39508056640625
1663861761879515400,6.871515380859375,2.40325927734375,44.03839111328125,-3.70330810546875
1663861761899504400,6.89150439453125,2.72369384765625,44.78759765625,-4.91790771484375
1663861761919493400,6.911493408203125,4.3914794921875,44.33746337890625,-4.61273193359375
1663861761939482400,6.931482421875,2.2705078125,44.9462890625,-4.00390625
1663861761959501800,6.951501708984375,4.705810546875,44.66094970703125,-2.47802734375
1663861761979460400,6.97146044921875,4.26025390625,45.26214599609375,-3.0853271484375
1663861761999479800,6.991479736328125,5.31005859375,44.49310302734375,-4.4586181640625
1663861762019377400,7.01137744140625,3.80859375,45.556640625,-4.150390625
1663861762039366400,7.031366455078125,3.33251953125,44.65179443359375,-3.240966796875
1663861762059355400,7.05135546875,4.4158935546875,45.4132080078125,-3.23638916015625
1663861762079344400,7.071344482421875,4.87518310546875,45.550537109375,-5.21697998046875
1663861762099333400,7.09133349609375,2.899169921875,45.71380615234375,-3.23638916015625
1663861762119322400,7.111322265625,4.876708984375,45.5657958984375,-3.387451171875
1663861762139311400,7.131311279296875,4.89501953125,46.32720947265625,-3.0792236328125
1663861762159300400,7.15130029296875,4.27398681640625,45.8709716796875,-3.082275390625
1663861762179289300,7.171289306640625,5.20172119140625,46.47216796875,-3.99169921875
1663861762199278300,7.1912783203125,6.2286376953125,44.65789794921875,-3.2379150390625
1663861762219267600,7.211267578125,4.8858642578125,45.87860107421875,-2.3193359375
1663861762239256600,7.231256591796875,5.77239990234375,44.66094970703125,-2.78167724609375
1663861762259245600,7.25124560546875,6.27288818359375,46.49658203125,-1.4007568359375
1663861762279295500,7.27129541015625,4.85382080078125,44.5037841796875,-3.08837890625
1663861762299284500,7.291284423828125,6.5521240234375,45.42694091796875,-2.166748046875
1663861762319273500,7.3112734375,7.31353759765625,45.41015625,-4.2999267578125
1663861762339262500,7.331262451171875,6.524658203125,44.3359375,-5.37261962890625
1663861762359251700,7.351251708984375,6.52618408203125,44.34814453125,-4.0008544921875
1663861762379240700,7.37124072265625,6.96868896484375,43.60198974609375,-2.4810791015625
1663861762399382300,7.39138232421875,7.12890625,44.04449462890625,-4.15496826171875
1663861762419340800,7.4113408203125,7.40509033203125,42.69256591796875,-2.33154296875
1663861762439329800,7.431329833984375,6.22100830078125,44.34661865234375,-4.00238037109375
1663861762459318800,7.45131884765625,8.01849365234375,42.8436279296875,-2.48260498046875
1663861762479368700,7.47136865234375,6.35986328125,43.73779296875,-4.156494140625
1663861762499296800,7.491296875,8.97674560546875,44.80743408203125,-4.14886474609375
1663861762520048600,7.512048583984375,7.15789794921875,45.26824951171875,-3.082275390625
1663861762539427300,7.53142724609375,7.025146484375,46.1700439453125,-4.296875
1663861762559111200,7.551111083984375,5.621337890625,44.7998046875,-4.15191650390625
1663861762579100200,7.57110009765625,6.24542236328125,45.41168212890625,-3.99627685546875
1663861762599089200,7.591089111328125,6.41021728515625,45.87860107421875,-2.62298583984375
1663861762619017200,7.611017333984375,7.45086669921875,44.79827880859375,-4.91180419921875
1663861762639036700,7.63103662109375,7.12890625,44.03533935546875,-5.2215576171875
1663861762659025700,7.651025634765625,8.2305908203125,45.5596923828125,-4.9072265625
1663861762679015000,7.671014892578125,5.63201904296875,45.2545166015625,-4.45556640625
1663861762699004000,7.69100390625,6.0546875,43.7347412109375,-4.461669921875
1663861762718993000,7.710992919921875,4.3731689453125,43.57757568359375,-4.6173095703125
1663861762738982000,7.73098193359375,7.32879638671875,46.160888671875,-5.36346435546875
1663861762758940400,7.7509404296875,6.6650390625,43.73626708984375,-4.461669921875
1663861762778960000,7.7709599609375,5.6304931640625,45.245361328125,-5.52215576171875
1663861762798948900,7.790948974609375,6.1126708984375,46.3104248046875,-5.51605224609375
1663861762818937900,7.810937744140625,5.61981201171875,44.7845458984375,-5.9814453125
1663861762838957300,7.830957275390625,3.6346435546875,44.63348388671875,-5.3741455078125
1663861762858915800,7.850915771484375,4.7271728515625,45.703125,-5.0628662109375
1663861762878904800,7.87090478515625,5.7861328125,45.3948974609375,-5.8258056640625
1663861762898893800,7.890893798828125,6.524658203125,44.329833984375,-6.13555908203125
1663861762918883000,7.910883056640625,6.4971923828125,43.12286376953125,-5.07354736328125
1663861762938872000,7.9308720703125,4.8736572265625,45.53375244140625,-7.04498291015625
1663861762958861000,7.950861083984375,4.693603515625,44.32525634765625,-6.1370849609375
1663861762978850000,7.97085009765625,4.388427734375,44.31915283203125,-6.9000244140625
1663861762998839000,7.990839111328125,4.86602783203125,45.2301025390625,-7.0465087890625
1663861763018828000,8.010828125,6.646728515625,42.9718017578125,-4.9224853515625
1663861763038786600,8.03078662109375,4.3487548828125,42.5079345703125,-5.38482666015625
1663861763058806000,8.050805908203126,5.7861328125,45.391845703125,-6.1309814453125
1663861763078795000,8.070794921875,5.61370849609375,44.48699951171875,-5.2215576171875
1663861763098784000,8.090783935546876,5.76934814453125,44.6319580078125,-6.134033203125
1663861763118773000,8.11077294921875,6.48956298828125,42.81005859375,-6.1431884765625
1663861763138762000,8.130761962890626,3.32794189453125,44.62127685546875,-6.89849853515625
1663861763158751200,8.150751220703125,6.04705810546875,43.42193603515625,-5.52978515625
1663861763178740200,8.170740234375,4.0985107421875,44.93255615234375,-6.134033203125
1663861763198729200,8.190729248046875,2.691650390625,43.4112548828125,-5.99212646484375
1663861763218718200,8.21071826171875,6.54754638671875,45.38421630859375,-7.196044921875
1663861763238707200,8.230707275390625,3.4942626953125,45.2239990234375,-7.50579833984375
1663861763258696200,8.2506962890625,3.45306396484375,43.40972900390625,-6.2957763671875
1663861763278715600,8.270715576171876,4.56085205078125,45.22552490234375,-7.5042724609375
1663861763298674200,8.290674072265626,4.54254150390625,44.45648193359375,-8.575439453125
1663861763318663200,8.3106630859375,4.5440673828125,44.47174072265625,-6.74591064453125
1663861763338683000,8.330682861328125,4.07257080078125,43.85986328125,-7.20672607421875
1663861763358672000,8.350671875,4.6905517578125,44.30084228515625,-9.033203125
1663861763378660900,8.370660888671875,3.631591796875,44.61517333984375,-7.66143798828125
1663861763398955000,8.390955078125,5.31463623046875,44.7784423828125,-6.744384765625
1663861763418883000,8.410883056640625,3.2867431640625,42.80242919921875,-6.146240234375
1663861763438750000,8.43075,3.3111572265625,43.85833740234375,-7.208251953125
1663861763458616800,8.450616943359375,4.71649169921875,45.3765869140625,-7.65533447265625
1663861763478636300,8.47063623046875,4.2266845703125,44.000244140625,-8.57696533203125
1663861763498594800,8.4905947265625,3.4759521484375,44.4610595703125,-7.81402587890625
1663861763518583800,8.510583740234376,2.87628173828125,44.91424560546875,-7.965087890625
1663861763538542300,8.530542236328126,3.7811279296875,44.45953369140625,-8.11920166015625
1663861763558531300,8.55053125,4.0557861328125,43.10455322265625,-6.6009521484375
1663861763578520300,8.570520263671876,4.09698486328125,44.92340087890625,-7.2021484375
1663861763598509300,8.59050927734375,3.326416015625,44.6136474609375,-7.66143798828125
1663861763618498300,8.610498291015626,3.81317138671875,45.83282470703125,-7.50274658203125
1663861763638487600,8.630487548828125,4.39453125,44.6197509765625,-7.2021484375
1663861763658445800,8.65044580078125,3.45916748046875,43.701171875,-7.818603515625
1663861763678465500,8.670465576171875,1.6876220703125,46.28143310546875,-7.80792236328125
1663861763698454500,8.69045458984375,3.607177734375,43.54248046875,-8.73260498046875
1663861763718413000,8.7104130859375,4.7332763671875,46.13494873046875,-7.95745849609375
1663861763738432500,8.7304326171875,2.67791748046875,42.93060302734375,-8.8897705078125
1663861763758421500,8.75042138671875,3.61480712890625,43.84918212890625,-8.42742919921875
1663861763778410500,8.770410400390626,3.62548828125,44.3145751953125,-7.2052001953125
1663861763798399500,8.7903994140625,3.61480712890625,43.84918212890625,-8.42742919921875
1663861763818358000,8.81035791015625,4.06494140625,43.548583984375,-7.97119140625
1663861763838377500,8.83037744140625,3.62548828125,44.3084716796875,-7.96661376953125
1663861763858366500,8.850366455078126,4.559326171875,45.21636962890625,-8.57086181640625
1663861763878355700,8.870355712890625,4.86602783203125,45.22705078125,-7.5042724609375
1663861763898344700,8.8903447265625,3.46527099609375,44.0032958984375,-8.1207275390625
1663861763918333700,8.910333740234375,1.94091796875,44.00482177734375,-7.513427734375
1663861763938322700,8.93032275390625,4.06646728515625,43.560791015625,-6.59942626953125
1663861763958311700,8.950311767578125,3.6468505859375,45.35369873046875,-10.247802734375
1663861763978300700,8.97030078125,2.56500244140625,44.61212158203125,-7.66143798828125
1663861763998289700,8.99028955078125,3.16009521484375,43.99871826171875,-8.5784912109375
1663861764018278700,9.010278564453126,3.76434326171875,43.70880126953125,-7.0556640625
1663861764038267600,9.030267578125,3.7689208984375,43.99261474609375,-9.33990478515625
1663861764058256600,9.050256591796876,1.31683349609375,43.3929443359375,-7.8216552734375
1663861764078245600,9.07024560546875,2.5634765625,44.60601806640625,-8.42437744140625
1663861764098235000,9.09023486328125,4.2572021484375,45.22857666015625,-7.04803466796875
1663861764118193200,9.110193115234376,2.86865234375,44.6044921875,-8.72802734375
1663861764138212900,9.130212890625,3.3203125,44.30694580078125,-7.9681396484375
1663861764158201900,9.150201904296875,3.7689208984375,43.9910888671875,-9.64508056640625
1663861764178190800,9.17019091796875,4.071044921875,43.84918212890625,-8.4259033203125
1663861764198179800,9.190179931640625,3.64837646484375,45.36285400390625,-9.02862548828125
1663861764218168800,9.2101689453125,4.26177978515625,45.52459716796875,-8.11309814453125
1663861764238157800,9.23015771484375,4.2144775390625,43.3990478515625,-7.818603515625
1663861764258146800,9.250146728515626,2.8533935546875,43.8568115234375,-7.208251953125
1663861764278410500,9.270410400390626,2.398681640625,44.0032958984375,-7.81707763671875
1663861764298338600,9.290338623046875,4.54254150390625,44.45648193359375,-8.575439453125
1663861764318113800,9.31011376953125,3.45916748046875,43.707275390625,-7.0556640625
1663861764338103000,9.33010302734375,3.30657958984375,43.8323974609375,-10.25543212890625
1663861764358092000,9.350092041015625,2.87628173828125,44.91424560546875,-7.965087890625
1663861764378081000,9.3700810546875,2.862548828125,44.3023681640625,-8.4259033203125
1663861764398070000,9.390070068359375,4.05426025390625,43.08624267578125,-8.734130859375
1663861764418059000,9.41005908203125,3.4912109375,45.20263671875,-9.94415283203125
1663861764438048000,9.430048095703125,2.84423828125,43.54248046875,-8.428955078125
1663861764458037000,9.450037109375,1.4801025390625,43.84765625,-7.97119140625
1663861764478026000,9.47002587890625,2.36663818359375,42.626953125,-8.89129638671875
1663861764498015000,9.490014892578126,3.77960205078125,44.45343017578125,-8.880615234375
1663861764518004000,9.51000390625,6.21795654296875,44.31304931640625,-7.96356201171875
1663861764537993000,9.529992919921876,3.62548828125,44.3145751953125,-7.2052001953125
1663861764557982000,9.54998193359375,2.42462158203125,45.2056884765625,-9.3353271484375
1663861764577971200,9.56997119140625,3.350830078125,45.6756591796875,-7.96051025390625
1663861764597960200,9.589960205078125,1.52130126953125,45.67413330078125,-7.65838623046875
1663861764617949200,9.60994921875,3.28521728515625,42.78717041015625,-7.97576904296875
1663861764637938200,9.629938232421875,3.1707763671875,44.4549560546875,-8.57696533203125
1663861764657927200,9.64992724609375,3.29132080078125,43.084716796875,-8.73565673828125
1663861764677916200,9.669916259765625,2.52838134765625,43.08319091796875,-8.7371826171875
1663861764697905200,9.6899052734375,2.73590087890625,45.5108642578125,-9.33380126953125
1663861764717894100,9.70989404296875,4.08782958984375,44.6044921875,-9.03167724609375
1663861764737883100,9.729883056640626,2.41546630859375,44.7601318359375,-8.11920166015625
1663861764757872000,9.7498720703125,3.7689208984375,43.99261474609375,-9.33990478515625
1663861764777861000,9.769861083984376,2.83355712890625,43.0755615234375,-9.80224609375
1663861764797850000,9.78985009765625,4.2266845703125,43.9971923828125,-8.88214111328125
1663861764817839400,9.80983935546875,2.70233154296875,43.9971923828125,-8.58001708984375
1663861764837828400,9.829828369140625,4.0283203125,42.0166015625,-9.50164794921875
1663861764857817300,9.8498173828125,3.16009521484375,43.99566650390625,-8.8836669921875
1663861764877806300,9.869806396484375,1.93939208984375,43.98651123046875,-9.6466064453125
1663861764897795300,9.88979541015625,1.63421630859375,43.988037109375,-9.34295654296875
1663861764917784300,9.909784423828125,1.93328857421875,43.6920166015625,-8.58154296875
1663861764937773300,9.929773193359376,1.78375244140625,43.83544921875,-9.49554443359375
1663861764957762300,9.94976220703125,2.86712646484375,44.5953369140625,-9.796142578125
1663861764977781800,9.96978173828125,1.50299072265625,44.90203857421875,-9.033203125
1663861764997740300,9.989740234375,2.42156982421875,45.1904296875,-11.16485595703125
1663861765017760000,10.009760009765625,0.4608154296875,46.10595703125,-10.247802734375
1663861765037718300,10.02971826171875,3.1341552734375,42.92755126953125,-9.34600830078125
1663861765057707500,10.04970751953125,2.88543701171875,45.361328125,-9.0301513671875
1663861765077727000,10.06972705078125,2.24151611328125,43.84307861328125,-8.73260498046875
1663861765097716000,10.089716064453125,2.5543212890625,44.287109375,-10.25390625
1663861765117705000,10.109705078125,3.1585693359375,43.98345947265625,-10.40802001953125
1663861765137663500,10.12966357421875,1.76544189453125,43.072509765625,-9.80377197265625
1663861765158049300,10.15004931640625,2.3956298828125,43.9849853515625,-9.9517822265625
1663861765178160400,10.170160400390625,1.92413330078125,43.37615966796875,-9.954833984375
1663861765197752600,10.189752685546875,0.714111328125,43.8262939453125,-10.25848388671875
1663861765217650000,10.20964990234375,1.60980224609375,42.919921875,-9.9578857421875
1663861765237669600,10.229669677734375,1.751708984375,42.46063232421875,-10.26458740234375
1663861765257628200,10.249628173828125,3.58734130859375,42.767333984375,-10.565185546875
1663861765277586700,10.269586669921875,0.421142578125,44.28863525390625,-9.49554443359375
1663861765297575700,10.28957568359375,1.65252685546875,44.75555419921875,-8.57696533203125
1663861765317564700,10.309564697265625,2.85186767578125,43.84765625,-8.42742919921875
1663861765337553700,10.3295537109375,0.7080078125,43.5211181640625,-10.565185546875
1663861765357542700,10.349542724609375,1.4617919921875,43.07861328125,-9.0423583984375
1663861765377531600,10.36953173828125,0.921630859375,46.2554931640625,-10.70404052734375
1663861765397520600,10.389520751953125,2.43072509765625,45.50933837890625,-9.33380126953125
1663861765417509600,10.409509521484376,0.73089599609375,44.57855224609375,-11.322021484375
1663861765437498600,10.42949853515625,1.190185546875,44.59228515625,-9.79766845703125
1663861765457457200,10.44945703125,1.776123046875,43.52874755859375,-9.80224609375
1663861765477476600,10.4694765625,2.728271484375,45.20111083984375,-9.9456787109375
1663861765497465600,10.489465576171876,0.7080078125,43.52264404296875,-10.260009765625
1663861765517454800,10.509454833984375,2.5543212890625,44.287109375,-10.25390625
1663861765537443800,10.52944384765625,2.55584716796875,44.293212890625,-9.49249267578125
1663861765557402000,10.549402099609376,1.64337158203125,44.43511962890625,-10.406494140625
1663861765577421800,10.569421875,2.545166015625,43.83697509765625,-9.4940185546875
1663861765597410800,10.589410888671875,1.63421630859375,43.98345947265625,-9.9517822265625
1663861765617399800,10.60939990234375,2.25982666015625,44.60906982421875,-7.96661376953125
1663861765637388800,10.629388916015625,0.8819580078125,44.43817138671875,-9.95025634765625
1663861765657377800,10.649377685546876,1.79290771484375,44.29168701171875,-9.4940185546875
1663861765677366800,10.66936669921875,1.6448974609375,44.4427490234375,-9.64508056640625
1663861765697355800,10.689355712890626,0.54168701171875,42.913818359375,-10.4156494140625
1663861765717344800,10.7093447265625,1.49383544921875,44.580078125,-11.32049560546875
1663861765737333800,10.729333740234376,1.61895751953125,43.37615966796875,-9.954833984375
1663861765757323000,10.749322998046875,1.470947265625,43.52874755859375,-9.80224609375
1663861765777312000,10.76931201171875,1.83563232421875,46.11968994140625,-9.027099609375
1663861765797301000,10.789301025390625,0.421142578125,44.28558349609375,-9.7991943359375
1663861765817259500,10.809259521484375,2.52838134765625,43.07708740234375,-9.49859619140625
1663861765837279000,10.829279052734375,2.54058837890625,43.5455322265625,-7.97271728515625
1663861765857268000,10.84926806640625,2.25830078125,44.60296630859375,-8.72955322265625
1663861765877226500,10.8692265625,-0.51422119140625,43.37310791015625,-9.6527099609375
1663861765897246000,10.889245849609376,1.60980224609375,42.92449951171875,-9.3475341796875
1663861765917235000,10.90923486328125,1.47247314453125,43.5394287109375,-8.43048095703125
1663861765937224000,10.929223876953126,1.94854736328125,44.43359375,-10.711669921875
1663861765957213000,10.949212890625,1.92413330078125,43.37310791015625,-10.41259765625
1663861765977202000,10.969201904296876,3.18756103515625,45.21484375,-8.5723876953125
1663861765997191200,10.989191162109375,2.22320556640625,43.07403564453125,-9.80377197265625
1663861766017180200,11.00918017578125,1.18255615234375,44.27947998046875,-10.86578369140625
1663861766037504800,11.0295048828125,2.67791748046875,42.92755126953125,-9.34600830078125
1663861766057432800,11.049432861328125,1.77459716796875,43.51959228515625,-10.86883544921875
1663861766077177600,11.069177490234376,0.55389404296875,43.38226318359375,-8.8897705078125
1663861766097136000,11.08913623046875,1.9378662109375,43.97735595703125,-10.7147216796875
1663861766117125000,11.109125,2.7008056640625,43.988037109375,-9.6466064453125
1663861766137114000,11.129114013671876,3.17535400390625,44.74945068359375,-9.64202880859375
1663861766157103000,11.14910302734375,2.40478515625,44.43511962890625,-10.711669921875
1663861766177092000,11.169092041015626,0.421142578125,44.28558349609375,-9.7991943359375
1663861766197081000,11.1890810546875,1.95770263671875,44.75555419921875,-8.57696533203125
1663861766217070000,11.209070068359376,2.252197265625,44.305419921875,-7.9681396484375
1663861766237028600,11.229028564453126,1.3458251953125,44.7479248046875,-9.33990478515625
1663861766257048300,11.24904833984375,1.6448974609375,44.4488525390625,-8.8836669921875
1663861766277037300,11.269037353515625,2.23388671875,43.5333251953125,-9.4970703125
1663861766296995800,11.288995849609375,1.48773193359375,44.29168701171875,-9.4940185546875
1663861766317015300,11.309015380859375,1.6265869140625,43.68133544921875,-9.649658203125
1663861766337004300,11.32900439453125,2.52227783203125,42.7764892578125,-9.0423583984375
1663861766356993300,11.3489931640625,2.3834228515625,43.3868408203125,-8.88824462890625
1663861766376982300,11.368982177734376,2.27508544921875,45.35369873046875,-9.7930908203125
1663861766396971300,11.38897119140625,1.6754150390625,45.8160400390625,-8.87603759765625
1663861766416960300,11.408960205078126,1.37176513671875,45.8160400390625,-8.87603759765625
1663861766436918800,11.428918701171876,2.3956298828125,43.9849853515625,-9.9517822265625
1663861766456938200,11.448938232421876,2.84423828125,43.54248046875,-8.428955078125
1663861766476927500,11.468927490234375,2.42462158203125,45.2117919921875,-8.57391357421875
1663861766496916500,11.48891650390625,1.800537109375,44.5953369140625,-9.49249267578125
1663861766516905500,11.508905517578125,1.9134521484375,42.913818359375,-10.71929931640625
1663861766536864000,11.528864013671875,2.25067138671875,44.293212890625,-9.49249267578125
1663861766556883500,11.548883544921875,1.33056640625,43.994140625,-8.58154296875
1663861766576872400,11.56887255859375,3.44085693359375,42.93212890625,-8.88824462890625
1663861766596861400,11.588861328125,2.6947021484375,43.68438720703125,-9.64813232421875
1663861766616850400,11.608850341796876,3.4576416015625,43.68896484375,-9.3414306640625
1663861766636809000,11.62880908203125,2.239990234375,43.83697509765625,-9.49554443359375
1663861766656828400,11.648828369140626,0.7171630859375,43.84307861328125,-8.43048095703125
1663861766676817400,11.6688173828125,2.23541259765625,43.54095458984375,-8.43048095703125
1663861766696776000,11.68877587890625,0.70953369140625,43.5333251953125,-9.04083251953125
1663861766716795600,11.708795654296875,3.1707763671875,44.4549560546875,-8.57696533203125
1663861766736784600,11.72878466796875,2.4261474609375,45.21942138671875,-7.81097412109375
1663861766756773600,11.748773681640625,3.6376953125,44.90966796875,-8.72650146484375
1663861766776762600,11.7687626953125,1.51214599609375,45.34912109375,-10.2508544921875
1663861766796751600,11.788751708984375,2.8350830078125,43.08624267578125,-8.4320068359375
1663861766816740600,11.80874072265625,0.88958740234375,44.74639892578125,-9.33990478515625
1663861766836729600,11.8287294921875,2.26593017578125,44.90966796875,-8.4228515625
1663861766856718600,11.848718505859376,2.4139404296875,44.757080078125,-8.575439453125
1663861766876707600,11.86870751953125,3.33251953125,44.91119384765625,-8.42132568359375
1663861766896696600,11.888696533203126,3.1707763671875,44.4549560546875,-8.57696533203125
1663861766916685600,11.908685546875,1.82342529296875,45.648193359375,-10.858154296875
1663861766936980000,11.92897998046875,2.85186767578125,43.8446044921875,-8.73260498046875
1663861766956755200,11.948755126953126,3.57208251953125,42.02423095703125,-8.43505859375
1663861766976652800,11.96865283203125,2.252197265625,44.305419921875,-7.9681396484375
1663861766996672300,11.98867236328125,2.85186767578125,43.8446044921875,-8.73260498046875
1663861767016630800,12.008630859375,2.67791748046875,42.93365478515625,-8.5845947265625
1663861767036619800,12.028619873046875,1.6510009765625,44.74334716796875,-9.94873046875
1663861767056608800,12.04860888671875,1.18255615234375,44.2840576171875,-10.25543212890625
1663861767076597800,12.06859765625,1.910400390625,42.63458251953125,-7.82470703125
1663861767096586800,12.088586669921876,3.28369140625,42.779541015625,-9.0423583984375
1663861767116575700,12.10857568359375,0.88348388671875,44.45343017578125,-8.12225341796875
1663861767136534300,12.1285341796875,2.252197265625,44.3084716796875,-7.66448974609375
1663861767156553700,12.1485537109375,3.46527099609375,43.99566650390625,-8.8836669921875
1663861767176543000,12.16854296875,2.85186767578125,43.8446044921875,-8.73260498046875
1663861767196532000,12.188531982421875,1.19171142578125,44.6014404296875,-8.7310791015625
1663861767216521000,12.20852099609375,1.9500732421875,44.4488525390625,-8.88214111328125
1663861767236510000,12.228510009765625,2.25372314453125,44.3115234375,-7.20672607421875
1663861767256499000,12.2484990234375,2.54669189453125,43.841552734375,-9.03778076171875
1663861767276488000,12.268488037109375,1.91650390625,42.93212890625,-8.58612060546875
1663861767296477000,12.288476806640626,3.302001953125,43.5394287109375,-9.03778076171875
1663861767316466000,12.3084658203125,3.48052978515625,44.75250244140625,-9.33685302734375
1663861767336455000,12.328454833984376,3.1707763671875,44.4549560546875,-8.57696533203125
1663861767356413400,12.348413330078126,3.28369140625,42.77496337890625,-9.49859619140625
1663861767376433000,12.368432861328126,0.39520263671875,43.09234619140625,-7.21435546875
1663861767396422000,12.388421875,2.25830078125,44.60601806640625,-8.42437744140625
1663861767416380400,12.40838037109375,2.56195068359375,44.5953369140625,-9.796142578125
1663861767436400000,12.428400146484375,0.5584716796875,43.670654296875,-10.7177734375
1663861767456389000,12.44838916015625,2.252197265625,44.305419921875,-7.9681396484375
1663861767476378000,12.468378173828125,0.57830810546875,44.44580078125,-8.8836669921875
1663861767496367000,12.4883671875,2.7130126953125,44.45648193359375,-8.11920166015625
1663861767516356000,12.508356201171875,3.19671630859375,45.53070068359375,-7.04803466796875
1663861767536314600,12.528314697265625,2.3956298828125,43.988037109375,-9.6466064453125
1663861767556334000,12.548333984375,0.71563720703125,43.83392333984375,-9.4970703125
1663861767576323000,12.568322998046876,2.4261474609375,45.21942138671875,-7.81097412109375
1663861767596312000,12.58831201171875,2.25067138671875,44.293212890625,-9.49249267578125
1663861767616301000,12.608301025390626,1.32293701171875,43.69354248046875,-8.12530517578125
1663861767636259600,12.628259521484376,1.800537109375,44.59991455078125,-9.03472900390625
1663861767656279300,12.648279296875,1.6632080078125,45.21484375,-8.11767578125
1663861767676286000,12.668285888671875,2.57110595703125,44.91424560546875,-7.965087890625
1663861767696275000,12.68827490234375,2.84423828125,43.54095458984375,-8.734130859375
1663861767716264000,12.708263916015625,1.94091796875,44.00177001953125,-7.818603515625
1663861767736253000,12.7282529296875,1.80206298828125,44.60906982421875,-7.9681396484375
1663861767756242000,12.748241943359375,2.862548828125,44.3023681640625,-8.4259033203125
1663861767776231000,12.76823095703125,3.75518798828125,43.38836669921875,-8.88671875
1663861767796220000,12.788219970703125,2.43072509765625,45.50933837890625,-9.33380126953125
1663861767816544800,12.808544677734375,2.51617431640625,42.48504638671875,-7.672119140625
1663861767836320000,12.828320068359375,2.54058837890625,43.5455322265625,-7.97271728515625
1663861767856187100,12.848187255859376,2.69622802734375,43.69659423828125,-8.123779296875
1663861767876176100,12.868176025390625,1.48162841796875,43.865966796875,-5.8380126953125
1663861767896165000,12.8881650390625,2.703857421875,44.0032958984375,-7.81707763671875
1663861767916154000,12.908154052734375,1.80816650390625,44.903564453125,-9.033203125
1663861767936143000,12.92814306640625,2.8717041015625,44.6258544921875,-6.1370849609375
1663861767956132000,12.948132080078125,1.80206298828125,44.610595703125,-7.6629638671875
1663861767976121000,12.96812109375,3.17535400390625,44.74945068359375,-9.64202880859375
1663861767996110000,12.988110107421875,1.959228515625,44.77081298828125,-6.7474365234375
1663861768016099000,13.00809912109375,2.874755859375,44.90509033203125,-9.03167724609375
1663861768036057600,13.0280576171875,0.7110595703125,43.548583984375,-7.21282958984375
1663861768056077000,13.0480771484375,0.89111328125,44.7662353515625,-7.05413818359375
1663861768076066300,13.06806640625,1.19781494140625,44.90203857421875,-9.033203125
1663861768096055300,13.08805517578125,3.46527099609375,44.00482177734375,-7.81707763671875
1663861768116044300,13.108044189453125,1.3153076171875,43.3837890625,-8.88824462890625
1663861768136002800,13.1280029296875,2.886962890625,45.3704833984375,-7.96356201171875
1663861768156022300,13.148022216796875,3.48358154296875,44.76776123046875,-7.50732421875
1663861768176011300,13.16801123046875,2.39715576171875,43.9971923828125,-8.58001708984375
1663861768196000300,13.188000244140625,2.28424072265625,45.6817626953125,-6.89544677734375
1663861768215989200,13.2079892578125,1.5045166015625,44.91424560546875,-7.66143798828125
1663861768235978200,13.227978271484375,3.15399169921875,43.701171875,-7.818603515625
1663861768255967200,13.24796728515625,2.82745361328125,42.7825927734375,-8.43353271484375
1663861768275956200,13.267956298828125,2.86865234375,44.610595703125,-7.96661376953125
1663861768295945200,13.2879453125,4.1229248046875,46.1273193359375,-8.72039794921875
1663861768315934500,13.3079345703125,2.70233154296875,44.00177001953125,-8.12225341796875
1663861768335923500,13.32792333984375,4.10614013671875,45.37506103515625,-7.6568603515625
1663861768355882000,13.347882080078126,2.41546630859375,44.7662353515625,-7.50885009765625
1663861768375901400,13.3679013671875,2.41546630859375,44.7601318359375,-8.11920166015625
1663861768395890400,13.387890380859375,3.656005859375,45.6756591796875,-7.96051025390625
1663861768415879400,13.40787939453125,2.27508544921875,45.36285400390625,-8.7249755859375
1663861768435868400,13.427868408203125,1.49078369140625,44.31304931640625,-6.903076171875
1663861768455827000,13.447826904296875,1.92718505859375,43.39447021484375,-7.8216552734375
1663861768475846400,13.467846435546875,2.23541259765625,43.5455322265625,-7.97271728515625
1663861768495835400,13.48783544921875,4.412841796875,45.3857421875,-6.5887451171875
1663861768515824400,13.507824462890625,3.350830078125,45.6695556640625,-8.72344970703125
1663861768535813600,13.527813720703126,4.5745849609375,45.831298828125,-7.806396484375
1663861768555802600,13.547802734375,1.93328857421875,43.68896484375,-8.88671875
1663861768575791600,13.56779150390625,2.886962890625,45.3704833984375,-7.96356201171875
1663861768595780600,13.587780517578125,1.48773193359375,44.29168701171875,-9.4940185546875
1663861768615769600,13.60776953125,3.1463623046875,43.389892578125,-8.58154296875
1663861768635758600,13.627758544921875,1.3397216796875,44.44427490234375,-9.3414306640625
1663861768655747600,13.64774755859375,2.39105224609375,43.6920166015625,-8.58154296875
1663861768675736600,13.667736572265625,4.08935546875,44.61517333984375,-7.659912109375
1663861768696092000,13.688091796875,3.49884033203125,45.51849365234375,-8.57086181640625
1663861768715867100,13.7078671875,3.46527099609375,44.00482177734375,-7.81707763671875
1663861768735734300,13.727734375,1.654052734375,44.76318359375,-7.5103759765625
1663861768755692500,13.747692626953125,4.85687255859375,44.77691650390625,-6.744384765625
1663861768775681800,13.767681884765626,2.2430419921875,43.86138916015625,-6.59942626953125
1663861768795670800,13.7876708984375,1.65252685546875,44.75860595703125,-8.11920166015625
1663861768815659800,13.80765966796875,1.9683837890625,45.2178955078125,-7.8125
1663861768835648800,13.827648681640625,3.1463623046875,43.39447021484375,-8.12530517578125
1663861768855637800,13.8476376953125,2.557373046875,44.3023681640625,-8.4259033203125
1663861768875626800,13.867626708984375,1.75933837890625,42.77801513671875,-8.73870849609375
1663861768895615700,13.88761572265625,3.15399169921875,43.70269775390625,-7.513427734375
1663861768915574300,13.90757421875,4.3701171875,43.55316162109375,-7.666015625
1663861768935593700,13.92759375,2.74505615234375,45.8282470703125,-7.80792236328125
1663861768955582700,13.947582763671875,4.08935546875,44.61517333984375,-7.659912109375
1663861768975571700,13.96757177734375,2.5665283203125,44.62127685546875,-6.5948486328125
1663861768995560700,13.987560791015625,2.5665283203125,44.6258544921875,-6.13861083984375
1663861769015550000,14.007550048828126,2.8778076171875,44.92340087890625,-6.89849853515625
1663861769035539000,14.0275390625,3.17230224609375,44.47021484375,-6.7474365234375
1663861769055528000,14.04752783203125,2.28424072265625,45.6756591796875,-7.6568603515625
1663861769075517000,14.067516845703125,6.0699462890625,44.4732666015625,-7.049560546875
1663861769095506000,14.087505859375,3.16162109375,44.00787353515625,-7.51190185546875
1663861769115464400,14.10746435546875,3.3203125,44.3145751953125,-7.2052001953125
1663861769135484000,14.12748388671875,4.56085205078125,45.2301025390625,-7.0465087890625
1663861769155473000,14.147472900390625,3.63311767578125,44.62127685546875,-6.89849853515625
1663861769175462000,14.1674619140625,4.5623779296875,45.2392578125,-5.97991943359375
1663861769195451000,14.187450927734375,3.4515380859375,43.40057373046875,-7.51495361328125
1663861769215440000,14.20743994140625,2.86102294921875,44.293212890625,-9.49249267578125
1663861769235428900,14.227428955078125,3.19671630859375,45.53375244140625,-6.74285888671875
1663861769255418000,14.247418212890626,1.82037353515625,45.379638671875,-6.591796875
1663861769275407000,14.267406982421875,1.32293701171875,43.69049072265625,-8.58306884765625
1663861769295396000,14.28739599609375,4.56085205078125,45.2301025390625,-7.0465087890625
1663861769315354600,14.307354736328126,3.18756103515625,45.2178955078125,-8.11614990234375
1663861769335374000,14.3273740234375,2.398681640625,44.0093994140625,-7.0556640625
1663861769355363000,14.347363037109375,3.668212890625,46.14105224609375,-6.890869140625
1663861769375352000,14.36735205078125,5.61065673828125,44.46563720703125,-7.8125
1663861769395341000,14.387341064453125,2.87628173828125,44.91729736328125,-7.659912109375
1663861769415330000,14.407330078125,3.8055419921875,45.52764892578125,-7.5042724609375
1663861769435319000,14.427319091796875,3.460693359375,43.7103271484375,-6.75048828125
1663861769455308000,14.44730810546875,1.80816650390625,44.9066162109375,-8.72802734375
1663861769475297000,14.467297119140625,2.8778076171875,44.92340087890625,-6.89849853515625
1663861769495286300,14.487286376953126,2.88848876953125,45.3826904296875,-6.591796875
1663861769515275300,14.507275146484375,2.874755859375,44.90814208984375,-8.72650146484375
1663861769535264300,14.52726416015625,3.48358154296875,44.76776123046875,-7.50732421875
1663861769555253200,14.547253173828125,3.49884033203125,45.51544189453125,-8.87603759765625
1663861769575486500,14.567486572265626,2.27813720703125,45.37811279296875,-6.89697265625
1663861769595414300,14.587414306640625,3.16162109375,44.00787353515625,-7.51190185546875
1663861769615220200,14.60722021484375,3.61480712890625,43.84918212890625,-8.42742919921875
1663861769635209200,14.627209228515625,4.09698486328125,44.92950439453125,-6.591796875
1663861769655198200,14.6471982421875,2.87017822265625,44.6136474609375,-7.66143798828125
1663861769675187200,14.667187255859375,2.23846435546875,43.5699462890625,-5.07659912109375
1663861769695176200,14.68717626953125,3.17230224609375,44.4671630859375,-7.0526123046875
1663861769715165400,14.70716552734375,2.386474609375,43.414306640625,-5.53436279296875
1663861769735185000,14.727184814453125,1.77001953125,43.10455322265625,-6.146240234375
1663861769755143400,14.747143310546875,3.5003662109375,45.5322265625,-7.0465087890625
1663861769775132400,14.76713232421875,2.2613525390625,44.62432861328125,-6.13861083984375
1663861769795152000,14.78715185546875,2.89459228515625,45.67718505859375,-7.6568603515625
1663861769815202000,14.8072021484375,4.38995361328125,44.32525634765625,-6.1370849609375
1663861769835129900,14.8271298828125,2.862548828125,44.3023681640625,-8.4259033203125
1663861769855088400,14.84708837890625,2.557373046875,44.3084716796875,-7.6629638671875
1663861769875077400,14.867077392578125,1.61285400390625,42.9443359375,-7.061767578125
1663861769895096800,14.887096923828125,2.7313232421875,45.22552490234375,-7.049560546875
1663861769915055400,14.907055419921875,3.20281982421875,45.831298828125,-7.50274658203125
1663861769935044400,14.92704443359375,3.50799560546875,45.83587646484375,-7.04498291015625
1663861769955033600,14.94703369140625,1.1749267578125,43.84918212890625,-7.66754150390625
1663861769975022600,14.967022705078126,1.83868408203125,46.1395263671875,-6.5887451171875
1663861769995042000,14.9870419921875,1.46484375,43.10302734375,-6.146240234375
1663861770015061500,15.0070615234375,3.48358154296875,44.7723388671875,-7.05108642578125
1663861770034989600,15.026989501953125,2.69775390625,43.70880126953125,-6.75201416015625
1663861770054978600,15.046978515625,2.679443359375,42.93975830078125,-7.82318115234375
1663861770074998000,15.066998046875,2.862548828125,44.30694580078125,-7.9681396484375
1663861770094987000,15.086987060546875,1.95159912109375,44.4580078125,-7.8155517578125
1663861770114945500,15.106945556640625,2.70233154296875,44.00177001953125,-8.12225341796875
1663861770134934500,15.1269345703125,2.41546630859375,44.7662353515625,-7.50885009765625
1663861770154923500,15.146923583984375,2.25067138671875,44.2962646484375,-9.0362548828125
1663861770174912500,15.16691259765625,1.654052734375,44.77081298828125,-6.7474365234375
1663861770194901800,15.18690185546875,2.23541259765625,43.5516357421875,-7.20977783203125
1663861770214890800,15.206890869140626,1.9683837890625,45.21484375,-8.11767578125
1663861770234910200,15.22691015625,2.71453857421875,44.46258544921875,-7.5103759765625
1663861770254868700,15.24686865234375,2.58331298828125,45.38726806640625,-5.828857421875
1663861770274857700,15.266857666015625,3.46527099609375,43.99871826171875,-8.5784912109375
1663861770294846700,15.2868466796875,1.67694091796875,45.8221435546875,-8.1146240234375
1663861770314835700,15.306835693359375,0.30670166015625,45.83740234375,-5.98297119140625
1663861770334824700,15.32682470703125,1.96990966796875,45.22705078125,-6.74591064453125
1663861770354813700,15.346813720703125,2.71453857421875,44.47174072265625,-6.29119873046875
1663861770374802700,15.366802734375,2.25982666015625,44.61517333984375,-7.2052001953125
1663861770394791700,15.386791748046875,2.43377685546875,45.526123046875,-7.50579833984375
1663861770414780700,15.40678076171875,2.41546630859375,44.76318359375,-7.81402587890625
1663861770434770000,15.42677001953125,1.556396484375,47.19390869140625,-7.6507568359375
1663861770455033600,15.44703369140625,3.1463623046875,43.38836669921875,-8.88671875
1663861770474961400,15.46696142578125,3.77044677734375,44.00787353515625,-7.51190185546875
1663861770494737000,15.48673681640625,1.7974853515625,44.31915283203125,-6.14013671875
1663861770514726000,15.506725830078125,1.78680419921875,43.85986328125,-6.59942626953125
1663861770534715000,15.52671484375,2.56500244140625,44.610595703125,-7.96661376953125
1663861770554704000,15.546703857421875,2.410888671875,44.47784423828125,-5.52978515625
1663861770574692900,15.56669287109375,1.49078369140625,44.30694580078125,-7.66448974609375
1663861770594681900,15.586681884765625,3.49273681640625,45.2117919921875,-8.8775634765625
1663861770614670800,15.6066708984375,0.567626953125,43.99871826171875,-7.82012939453125
1663861770634659800,15.626659912109375,0.86822509765625,43.71185302734375,-5.99212646484375
1663861770654648800,15.64664892578125,2.54669189453125,43.85223388671875,-7.666015625
1663861770674638000,15.66663818359375,1.6357421875,44.0032958984375,-7.513427734375
1663861770694627000,15.686626953125,2.69775390625,43.71185302734375,-6.29425048828125
1663861770714616000,15.706615966796875,4.09698486328125,44.92950439453125,-6.591796875
1663861770734605000,15.72660498046875,3.32794189453125,44.61822509765625,-7.20367431640625
1663861770754594000,15.746593994140625,1.7852783203125,43.8507080078125,-7.666015625
1663861770774552600,15.766552490234375,1.79595947265625,44.31304931640625,-6.903076171875
1663861770794572000,15.786572021484375,1.7852783203125,43.85528564453125,-7.20977783203125
1663861770814561000,15.80656103515625,2.392578125,43.70574951171875,-7.05718994140625
1663861770834519600,15.82651953125,2.72216796875,44.7723388671875,-6.7474365234375
1663861770854539000,15.8465390625,1.373291015625,45.83740234375,-6.28509521484375
1663861770874528000,15.866528076171875,1.4739990234375,43.55010986328125,-7.2113037109375
1663861770894517200,15.886517333984376,1.6632080078125,45.21942138671875,-7.50732421875
1663861770914506200,15.90650634765625,2.2674560546875,44.92034912109375,-7.20367431640625
1663861770934495200,15.9264951171875,2.27813720703125,45.37506103515625,-7.2021484375
1663861770954484200,15.946484130859375,0.75225830078125,45.37506103515625,-6.89849853515625
1663861770974473200,15.96647314453125,1.1993408203125,44.91729736328125,-7.2052001953125
1663861770994462200,15.986462158203125,1.5045166015625,44.92034912109375,-6.9000244140625
1663861771014451200,16.006451171875,1.64794921875,44.47021484375,-6.292724609375
1663861771034440200,16.026440185546875,2.55889892578125,44.32220458984375,-6.14013671875
1663861771054429200,16.04642919921875,3.17840576171875,44.76776123046875,-7.50885009765625
1663861771074418200,16.066418212890625,3.3203125,44.30999755859375,-7.6629638671875
1663861771094407200,16.0864072265625,1.4984130859375,44.622802734375,-6.13861083984375
1663861771114365700,16.10636572265625,1.47247314453125,43.54705810546875,-7.6690673828125
1663861771134385400,16.126385498046876,2.557373046875,44.29931640625,-8.7310791015625
1663861771154374400,16.14637451171875,3.19671630859375,45.53375244140625,-6.74285888671875
1663861771174363400,16.16636328125,2.86407470703125,44.31610107421875,-6.90155029296875
1663861771194352400,16.186352294921875,1.66473388671875,45.2239990234375,-7.05108642578125
1663861771214341400,16.20634130859375,0.60272216796875,45.5169677734375,-8.11767578125
1663861771234330400,16.226330322265625,2.71453857421875,44.46868896484375,-6.74896240234375
1663861771254319400,16.2463193359375,1.6204833984375,43.3868408203125,-8.58306884765625
1663861771274308400,16.266308349609375,1.95770263671875,44.7601318359375,-8.11920166015625
1663861771294297300,16.28629736328125,2.7374267578125,45.526123046875,-7.5042724609375
1663861771314286300,16.306286376953125,2.392578125,43.70880126953125,-6.75201416015625
1663861771334580500,16.32658056640625,2.88848876953125,45.379638671875,-6.89544677734375
1663861771354508500,16.346508544921875,2.569580078125,44.9005126953125,-9.48944091796875
1663861771374284000,16.366283935546875,1.21002197265625,45.36895751953125,-7.659912109375
1663861771394242600,16.38624267578125,3.4759521484375,44.4580078125,-8.11920166015625
1663861771414231600,16.4062314453125,0.89874267578125,45.19805908203125,-9.94720458984375
1663861771434220500,16.426220458984375,2.2369384765625,43.5546875,-6.9061279296875
1663861771454209500,16.44620947265625,2.4261474609375,45.22552490234375,-7.049560546875
1663861771474198500,16.466198486328125,3.8055419921875,45.52764892578125,-7.5042724609375
1663861771494157000,16.486156982421875,-0.4638671875,45.526123046875,-6.74591064453125
1663861771514176500,16.506176513671875,1.95770263671875,44.7601318359375,-8.11920166015625
1663861771534165500,16.52616552734375,2.70233154296875,44.00177001953125,-8.12225341796875
1663861771554124000,16.5461240234375,1.83563232421875,46.1212158203125,-8.721923828125
1663861771574143500,16.5661435546875,2.301025390625,46.435546875,-7.65380859375
1663861771594132500,16.586132568359375,1.36566162109375,45.51849365234375,-8.11614990234375
1663861771614121700,16.606121826171876,3.32794189453125,44.62127685546875,-6.89849853515625
1663861771634110700,16.62611083984375,1.373291015625,45.82672119140625,-7.50579833984375
1663861771654099700,16.646099609375,3.49273681640625,45.21484375,-8.5723876953125
1663861771674088700,16.666088623046875,1.9500732421875,44.451904296875,-8.5784912109375
1663861771694077700,16.68607763671875,1.80816650390625,44.90814208984375,-8.4228515625
1663861771714036200,16.7060361328125,1.2176513671875,45.67718505859375,-7.20062255859375
1663861771734055700,16.7260556640625,3.4759521484375,44.4549560546875,-8.57696533203125
1663861771754044700,16.746044677734375,2.86865234375,44.610595703125,-7.96661376953125
1663861771774003200,16.766003173828125,1.61285400390625,42.9443359375,-7.061767578125
1663861771794022700,16.786022705078125,2.5482177734375,43.85833740234375,-6.903076171875
1663861771814011600,16.80601171875,2.87017822265625,44.61669921875,-7.2052001953125
1663861771834000600,16.826000732421875,2.2430419921875,43.85223388671875,-7.666015625
1663861771853990000,16.845989990234376,2.69622802734375,43.69964599609375,-7.818603515625
1663861771873979000,16.865978759765625,2.557373046875,44.305419921875,-7.9681396484375
1663861771893968000,16.8859677734375,3.16162109375,44.01092529296875,-7.05413818359375
1663861771913956900,16.905956787109375,1.3824462890625,46.2799072265625,-7.80792236328125
1663861771933945900,16.92594580078125,1.4892578125,44.29931640625,-8.42742919921875
1663861771953934800,16.945934814453125,2.703857421875,44.012451171875,-6.75048828125
1663861771973923800,16.965923828125,0.7415771484375,44.9127197265625,-7.6629638671875
1663861771993912800,16.985912841796875,-0.21820068359375,42.93060302734375,-8.13140869140625
1663861772013901800,17.00590185546875,3.16162109375,44.01092529296875,-7.05413818359375
1663861772033860400,17.0258603515625,1.64642333984375,44.45953369140625,-7.51190185546875
1663861772053879800,17.0458798828125,2.23541259765625,43.5516357421875,-7.20977783203125
1663861772073868800,17.065868896484375,1.18408203125,44.2962646484375,-8.73260498046875
1663861772093858000,17.085858154296876,2.276611328125,45.36590576171875,-8.42132568359375
1663861772113847000,17.105846923828125,2.398681640625,44.012451171875,-6.75048828125
1663861772133836000,17.1258359375,2.85186767578125,43.8446044921875,-8.73260498046875
1663861772153825000,17.145824951171875,4.11376953125,45.68328857421875,-7.19757080078125
1663861772173814000,17.16581396484375,3.35235595703125,45.684814453125,-6.8939208984375
1663861772193803000,17.185802978515625,1.95159912109375,44.4610595703125,-7.51190185546875
1663861772213761500,17.205761474609375,3.16162109375,44.01397705078125,-6.75048828125
1663861772234055700,17.2260556640625,2.42767333984375,45.22857666015625,-6.744384765625
1663861772253831200,17.2458310546875,2.5634765625,44.6014404296875,-9.033203125
1663861772273789700,17.265789794921876,1.19171142578125,44.60296630859375,-8.4259033203125
1663861772293748000,17.285748046875,1.81121826171875,44.927978515625,-6.1370849609375
1663861772313767700,17.305767578125,1.4556884765625,42.779541015625,-8.43505859375
1663861772333726200,17.325726318359376,1.93939208984375,43.99261474609375,-8.88519287109375
1663861772353684500,17.3456845703125,2.24151611328125,43.84918212890625,-7.97119140625
1663861772373704200,17.3657041015625,0.909423828125,45.526123046875,-7.049560546875
1663861772393693200,17.385693115234375,1.531982421875,46.1273193359375,-7.96051025390625
1663861772413682200,17.40568212890625,0.4302978515625,44.61669921875,-6.597900390625
1663861772433671200,17.425671142578125,2.57110595703125,44.91729736328125,-7.659912109375
1663861772453660200,17.44566015625,2.43377685546875,45.526123046875,-7.50579833984375
1663861772473649200,17.465649169921875,1.776123046875,43.53485107421875,-9.039306640625
1663861772493638100,17.48563818359375,1.80816650390625,44.90814208984375,-8.4228515625
1663861772513627100,17.505627197265625,2.89306640625,45.67108154296875,-8.41827392578125
1663861772533616000,17.5256162109375,0.5859375,44.757080078125,-8.1207275390625
1663861772553605400,17.54560546875,0.56304931640625,43.701171875,-7.0587158203125
1663861772573594400,17.565594482421876,1.14898681640625,42.7764892578125,-8.740234375
1663861772593552600,17.585552734375,1.93328857421875,43.6981201171875,-7.82012939453125
1663861772613572400,17.605572265625,0.579833984375,44.464111328125,-6.75048828125
1663861772633561300,17.625561279296875,2.27508544921875,45.35675048828125,-9.4879150390625
1663861772653550300,17.64555029296875,1.51519775390625,45.3765869140625,-6.89697265625
1663861772673539300,17.665539306640625,1.4801025390625,43.853759765625,-7.20977783203125
1663861772693528300,17.6855283203125,2.2857666015625,45.684814453125,-6.59027099609375
1663861772713517300,17.705517333984375,1.629638671875,43.7042236328125,-7.0587158203125
1663861772733475800,17.725475830078125,1.470947265625,43.53485107421875,-9.04083251953125
1663861772753495300,17.745495361328125,1.94091796875,44.00482177734375,-7.513427734375
1663861772773484300,17.765484375,2.703857421875,44.0093994140625,-7.0556640625
1663861772793473500,17.7854736328125,2.703857421875,44.0032958984375,-7.81707763671875
1663861772813462500,17.805462646484376,3.5003662109375,45.52459716796875,-7.8094482421875
1663861772833451500,17.825451416015625,1.93328857421875,43.695068359375,-8.123779296875
1663861772853440500,17.8454404296875,1.66168212890625,45.1995849609375,-9.9456787109375
1663861772873429500,17.865429443359375,1.92718505859375,43.39599609375,-7.5164794921875
1663861772893418500,17.88541845703125,1.9561767578125,44.74945068359375,-9.33837890625
1663861772913407500,17.905407470703125,3.77960205078125,44.45343017578125,-8.880615234375
1663861772933396500,17.925396484375,1.80206298828125,44.60906982421875,-7.9681396484375
1663861772953385500,17.945385498046875,-0.506591796875,43.6859130859375,-8.5845947265625
1663861772973374500,17.96537451171875,2.38494873046875,43.39447021484375,-7.82012939453125
1663861772993363500,17.985363525390625,1.5045166015625,44.91119384765625,-7.96661376953125
1663861773013352400,18.0053525390625,0.7354736328125,44.61212158203125,-7.20672607421875
1663861773033341700,18.025341796875,2.40936279296875,44.4610595703125,-7.5103759765625
1663861773053330700,18.04533056640625,2.70233154296875,44.00177001953125,-8.12225341796875
1663861773073319700,18.065319580078125,2.7130126953125,44.45953369140625,-7.8155517578125
1663861773093278200,18.0852783203125,2.38494873046875,43.39752197265625,-7.5164794921875
1663861773113633300,18.10563330078125,0.7293701171875,44.3115234375,-6.903076171875
1663861773133378300,18.12537841796875,1.32293701171875,43.69049072265625,-8.58306884765625
1663861773153275600,18.145275634765625,1.800537109375,44.59991455078125,-9.03472900390625
1663861773173264600,18.1652646484375,1.32904052734375,43.9910888671875,-8.88519287109375
1663861773193284000,18.1852841796875,3.30963134765625,43.853759765625,-7.66448974609375
1663861773213242600,18.20524267578125,2.39715576171875,43.98956298828125,-9.3414306640625
1663861773233201200,18.225201171875,0.88348388671875,44.4580078125,-7.51190185546875
1663861773253220600,18.245220703125,2.71453857421875,44.46258544921875,-7.5103759765625
1663861773273209900,18.2652099609375,1.94091796875,44.000244140625,-8.123779296875
1663861773293198800,18.28519873046875,1.47247314453125,43.54400634765625,-7.97271728515625
1663861773313187800,18.305187744140625,1.32293701171875,43.69354248046875,-8.12530517578125
1663861773333176800,18.3251767578125,0.9002685546875,45.20721435546875,-8.880615234375
1663861773353165800,18.345165771484375,1.19171142578125,44.6014404296875,-8.7310791015625
1663861773373154800,18.36515478515625,2.4261474609375,45.21636962890625,-8.11614990234375
1663861773393143800,18.385143798828125,1.1749267578125,43.84765625,-7.97271728515625
1663861773413132800,18.4051328125,1.93939208984375,43.99566650390625,-8.58001708984375
1663861773433121800,18.425121826171875,2.23388671875,43.5302734375,-9.80072021484375
1663861773453110800,18.44511083984375,2.72064208984375,44.76165771484375,-8.11767578125
1663861773473099800,18.465099853515625,3.326416015625,44.6075439453125,-8.4228515625
1663861773493119500,18.485119384765625,1.79443359375,44.30084228515625,-8.4259033203125
1663861773513078000,18.505078125,1.97601318359375,45.52154541015625,-7.81097412109375
1663861773533067000,18.52506689453125,1.48773193359375,44.29168701171875,-9.4940185546875
1663861773553056000,18.545055908203125,0.90789794921875,45.5169677734375,-8.11614990234375
1663861773573045000,18.565044921875,2.4383544921875,45.82061767578125,-8.57086181640625
1663861773593034000,18.585033935546875,2.252197265625,44.30084228515625,-8.4259033203125
1663861773613023000,18.60502294921875,1.6204833984375,43.3837890625,-8.88824462890625
1663861773632981500,18.6249814453125,0.7354736328125,44.61517333984375,-6.90155029296875
1663861773653001000,18.6450009765625,2.26593017578125,44.90966796875,-8.4228515625
1663861773672990000,18.664989990234375,1.1566162109375,43.08319091796875,-8.43353271484375
1663861773692948500,18.684948486328125,2.39715576171875,43.9971923828125,-8.58001708984375
1663861773712968000,18.704968017578125,1.9805908203125,45.81756591796875,-8.87603759765625
1663861773732957200,18.724957275390626,1.89971923828125,42.181396484375,-7.5225830078125
1663861773752946200,18.7449462890625,3.47747802734375,44.47021484375,-6.7474365234375
1663861773772935200,18.76493505859375,1.94091796875,44.00482177734375,-7.513427734375
1663861773792924200,18.784924072265625,3.1707763671875,44.46258544921875,-7.5103759765625
1663861773812913200,18.8049130859375,1.9683837890625,45.21484375,-8.11767578125
1663861773832871700,18.82487158203125,2.25372314453125,44.3115234375,-7.20672607421875
1663861773852891100,18.84489111328125,2.7313232421875,45.22552490234375,-7.049560546875
1663861773872880000,18.864880126953125,2.55889892578125,44.31304931640625,-7.20672607421875
1663861773892869000,18.884869140625,3.77960205078125,44.4549560546875,-8.575439453125
1663861773912858000,18.904858154296875,2.56500244140625,44.61669921875,-7.2052001953125
1663861773932847000,18.92484716796875,1.49078369140625,44.30389404296875,-7.96966552734375
1663861773952836000,18.944836181640625,2.25982666015625,44.60906982421875,-7.96661376953125
1663861773972825300,18.964825439453126,2.4261474609375,45.21942138671875,-7.81097412109375
1663861773993180400,18.985180419921875,0.42877197265625,44.59686279296875,-9.0362548828125
1663861774012925400,19.004925537109376,2.23541259765625,43.54095458984375,-8.43048095703125
1663861774032792300,19.024792236328125,2.8350830078125,43.0938720703125,-7.6690673828125
1663861774052781300,19.04478125,2.581787109375,45.36590576171875,-8.4197998046875
1663861774072770300,19.064770263671875,3.5003662109375,45.52459716796875,-7.8094482421875
1663861774092759300,19.08475927734375,0.42877197265625,44.6014404296875,-8.4259033203125
1663861774112748300,19.104748291015625,4.10614013671875,45.36895751953125,-8.41827392578125
1663861774132737300,19.1247373046875,1.8096923828125,44.9188232421875,-7.20367431640625
1663861774152726300,19.144726318359375,3.45916748046875,43.6981201171875,-8.12225341796875
1663861774172715300,19.16471533203125,1.79290771484375,44.29168701171875,-9.4940185546875
1663861774192704300,19.184704345703125,1.97296142578125,45.50933837890625,-9.3353271484375
1663861774212693500,19.204693603515626,2.4322509765625,45.5230712890625,-7.8094482421875
1663861774232682500,19.2246826171875,3.33251953125,44.9066162109375,-9.03167724609375
1663861774252671500,19.24467138671875,2.423095703125,45.20111083984375,-9.9456787109375
1663861774272660500,19.264660400390625,1.4617919921875,43.084716796875,-8.43353271484375
1663861774292649500,19.2846494140625,2.862548828125,44.30694580078125,-7.9681396484375
1663861774312638500,19.304638427734375,-0.054931640625,43.5211181640625,-10.26153564453125
1663861774332627500,19.32462744140625,2.55889892578125,44.31304931640625,-7.20672607421875
1663861774352616400,19.344616455078125,2.862548828125,44.30694580078125,-7.9681396484375
1663861774372605400,19.36460546875,3.17840576171875,44.76776123046875,-7.50885009765625
1663861774392594400,19.384594482421875,3.1463623046875,43.38836669921875,-8.88671875
1663861774412553000,19.404552978515625,2.72064208984375,44.7662353515625,-7.50885009765625
1663861774432572400,19.424572509765625,3.49273681640625,45.2178955078125,-8.1146240234375
1663861774452561700,19.444561767578126,2.4261474609375,45.21942138671875,-7.81097412109375
1663861774472550700,19.464550537109375,1.34735107421875,44.75250244140625,-8.88214111328125
1663861774492539600,19.48453955078125,1.79443359375,44.30389404296875,-7.96966552734375
1663861774512498200,19.504498291015626,1.77764892578125,43.54705810546875,-7.66754150390625
1663861774532517600,19.524517578125,1.92718505859375,43.39141845703125,-8.12530517578125
1663861774552506600,19.544506591796875,3.1768798828125,44.76165771484375,-8.11767578125
1663861774572495600,19.56449560546875,1.84326171875,46.435546875,-7.65380859375
1663861774592484600,19.584484619140625,3.29132080078125,43.0877685546875,-8.43048095703125
1663861774612443100,19.604443115234375,3.75518798828125,43.38836669921875,-8.88671875
1663861774632462600,19.624462646484375,1.79443359375,44.30389404296875,-7.96966552734375
1663861774652451600,19.64445166015625,1.6448974609375,44.45037841796875,-8.5784912109375
1663861774672440800,19.66444091796875,3.33404541015625,44.915771484375,-7.965087890625
1663861774692429800,19.684429931640626,2.69012451171875,43.402099609375,-7.0587158203125
1663861774712418800,19.704418701171875,3.1524658203125,43.6920166015625,-8.88519287109375
1663861774732407800,19.72440771484375,2.4383544921875,45.81146240234375,-9.637451171875
1663861774752396800,19.744396728515625,1.82647705078125,45.6756591796875,-7.65838623046875
1663861774772385800,19.7643857421875,1.66473388671875,45.2239990234375,-7.05108642578125
1663861774792374800,19.784374755859375,1.46331787109375,43.0938720703125,-7.21435546875
1663861774812363800,19.80436376953125,0.72784423828125,44.3084716796875,-7.208251953125
1663861774832352800,19.824352783203125,1.77764892578125,43.54400634765625,-7.97271728515625
1663861774852341800,19.844341796875,0.28076171875,44.75860595703125,-7.81707763671875
1663861774872605400,19.86460546875,1.33056640625,43.994140625,-8.58154296875
1663861774892472300,19.884472412109375,3.4759521484375,44.4610595703125,-7.81402587890625
1663861774912309000,19.90430908203125,2.28271484375,45.6695556640625,-8.4197998046875
1663861774932328400,19.924328369140625,0.26092529296875,43.97735595703125,-10.41107177734375
1663861774952287000,19.944286865234375,1.4801025390625,43.8507080078125,-7.66754150390625
1663861774972276000,19.96427587890625,2.71453857421875,44.46258544921875,-7.5103759765625
1663861774992265000,19.984264892578125,0.72784423828125,44.3084716796875,-7.208251953125
1663861775012254000,20.00425390625,1.15814208984375,43.0938720703125,-7.21435546875
1663861775032243000,20.024242919921875,1.82037353515625,45.379638671875,-6.591796875
1663861775052232000,20.04423193359375,3.5064697265625,45.8221435546875,-8.5693359375
1663861775072221000,20.064220947265625,2.54058837890625,43.55316162109375,-7.20977783203125
1663861775092210000,20.0842099609375,1.34124755859375,44.45648193359375,-7.81707763671875
1663861775112199000,20.104198974609375,1.20849609375,45.361328125,-8.72650146484375
1663861775132188000,20.12418798828125,3.16009521484375,43.99871826171875,-8.5784912109375
1663861775152177200,20.14417724609375,1.18255615234375,44.281005859375,-10.56060791015625
1663861775172166100,20.164166259765626,2.7191162109375,44.7540283203125,-8.880615234375
1663861775192155100,20.184155029296875,1.79443359375,44.30389404296875,-7.96966552734375
1663861775212144000,20.20414404296875,3.80401611328125,45.52001953125,-8.57086181640625
1663861775232133000,20.224133056640625,1.324462890625,43.70574951171875,-6.7535400390625
1663861775252122000,20.2441220703125,1.35650634765625,45.19805908203125,-9.94720458984375
1663861775272080600,20.26408056640625,2.7130126953125,44.45953369140625,-7.8155517578125
1663861775292100000,20.28410009765625,2.70233154296875,43.9971923828125,-8.58001708984375
1663861775312089000,20.304089111328125,2.86865234375,44.6014404296875,-9.033203125
1663861775332078000,20.324078125,1.7852783203125,43.84918212890625,-7.97119140625
1663861775352067000,20.344067138671875,1.52130126953125,45.66802978515625,-8.4197998046875
1663861775372056000,20.36405615234375,1.19781494140625,44.9066162109375,-8.42437744140625
1663861775392045300,20.38404541015625,0.28076171875,44.75860595703125,-7.81707763671875
1663861775412034300,20.404034423828126,2.703857421875,44.0032958984375,-7.81707763671875
1663861775432023300,20.424023193359375,3.16009521484375,43.99871826171875,-8.5784912109375
1663861775452012300,20.44401220703125,1.1505126953125,42.7825927734375,-7.977294921875
1663861775472001300,20.464001220703125,2.2430419921875,43.85223388671875,-7.666015625
1663861775491990300,20.483990234375,1.31683349609375,43.3868408203125,-8.5845947265625
1663861775511948800,20.50394873046875,1.79595947265625,44.30694580078125,-7.66448974609375
1663861775531968300,20.52396826171875,1.18560791015625,44.305419921875,-7.66448974609375
1663861775551957200,20.543957275390625,0.27923583984375,44.74639892578125,-9.33990478515625
1663861775571946200,20.5639462890625,3.15399169921875,43.707275390625,-7.0556640625
1663861775591935200,20.583935302734375,1.6510009765625,44.74334716796875,-9.94873046875
1663861775611924200,20.60392431640625,1.59149169921875,42.15545654296875,-10.418701171875
1663861775631913500,20.62391357421875,3.31878662109375,44.30389404296875,-8.42437744140625
1663861775651902500,20.64390234375,1.95770263671875,44.75555419921875,-8.57696533203125
1663861775671891500,20.663891357421875,1.64642333984375,44.45953369140625,-7.51190185546875
1663861775691880400,20.68388037109375,0.88348388671875,44.45343017578125,-8.12225341796875
1663861775711869400,20.703869384765625,1.19171142578125,44.6014404296875,-8.7310791015625
1663861775731858400,20.7238583984375,0.7415771484375,44.9066162109375,-8.42437744140625
1663861775752122000,20.7441220703125,3.4423828125,42.950439453125,-6.75506591796875
1663861775772019500,20.76401953125,1.6204833984375,43.3837890625,-8.88824462890625
1663861775791825400,20.783825439453125,0.6927490234375,42.77801513671875,-8.43505859375
1663861775811814400,20.803814453125,2.581787109375,45.36590576171875,-8.4197998046875
1663861775831803400,20.823803466796875,1.51519775390625,45.3704833984375,-7.659912109375
1663861775851792400,20.84379248046875,1.35650634765625,45.20111083984375,-9.64202880859375
1663861775871781600,20.86378173828125,1.763916015625,43.06640625,-10.56671142578125
1663861775891770600,20.8837705078125,1.4892578125,44.29779052734375,-8.7310791015625
1663861775911759600,20.903759521484375,0.6988525390625,43.07403564453125,-9.5001220703125
1663861775931748600,20.92374853515625,1.93939208984375,43.98956298828125,-9.34295654296875
1663861775951737600,20.943737548828125,0.5828857421875,44.74334716796875,-9.64508056640625
1663861775971726600,20.9637265625,2.24151611328125,43.84002685546875,-9.03778076171875
1663861775991715600,20.983715576171875,1.6357421875,43.99871826171875,-8.123779296875
1663861776011704600,21.00370458984375,2.5634765625,44.60296630859375,-8.72955322265625
1663861776031693600,21.023693603515625,3.63006591796875,44.60296630859375,-9.033203125
1663861776051682600,21.0436826171875,2.25830078125,44.59686279296875,-9.490966796875
1663861776071671600,21.063671630859375,2.24151611328125,43.84307861328125,-8.73260498046875
1663861776091630000,21.083630126953125,1.9256591796875,43.38531494140625,-8.88824462890625
1663861776111649800,21.10364990234375,1.18865966796875,44.5831298828125,-10.8642578125
1663861776131638800,21.123638671875,0.41046142578125,43.83697509765625,-9.039306640625
1663861776151627800,21.143627685546875,0.41046142578125,43.8323974609375,-9.4970703125
1663861776171616800,21.16361669921875,0.87127685546875,43.98651123046875,-9.34295654296875
1663861776191605800,21.183605712890625,1.17340087890625,43.83392333984375,-9.4970703125
1663861776211594800,21.2035947265625,1.78375244140625,43.841552734375,-8.734130859375
1663861776231583700,21.223583740234375,1.190185546875,44.59381103515625,-9.49249267578125
1663861776251572700,21.24357275390625,-1.09100341796875,44.891357421875,-9.7991943359375
1663861776271561700,21.263561767578125,1.2054443359375,45.343017578125,-10.8612060546875
1663861776291520300,21.283520263671875,1.63421630859375,43.98345947265625,-9.9517822265625
1663861776311539700,21.303539794921875,2.69622802734375,43.69354248046875,-8.58154296875
1663861776331529000,21.323529052734376,2.3834228515625,43.38836669921875,-8.58306884765625
1663861776351518000,21.34351806640625,2.86102294921875,44.30084228515625,-8.72955322265625
1663861776371507000,21.3635068359375,1.165771484375,43.524169921875,-10.260009765625
1663861776391496000,21.383495849609375,1.77764892578125,43.54095458984375,-8.43048095703125
1663861776411485000,21.40348486328125,1.78375244140625,43.83544921875,-9.49554443359375
1663861776431474000,21.423473876953125,0.41961669921875,44.27947998046875,-10.5621337890625
1663861776451463000,21.443462890625,1.6448974609375,44.44427490234375,-9.33990478515625
1663861776471452000,21.463451904296875,1.64337158203125,44.43359375,-10.711669921875
1663861776491441000,21.48344091796875,-0.238037109375,42.15850830078125,-9.6588134765625
1663861776511430000,21.503429931640625,1.78375244140625,43.83544921875,-9.49554443359375
1663861776531419000,21.5234189453125,2.81982421875,42.474365234375,-9.04388427734375
1663861776551407900,21.543407958984375,3.14483642578125,43.3807373046875,-9.64813232421875
1663861776571397000,21.563397216796876,0.3875732421875,42.77801513671875,-8.43505859375
1663861776591386000,21.58338623046875,1.91497802734375,42.926025390625,-9.3475341796875
1663861776611375000,21.603375,2.69622802734375,43.69354248046875,-8.58154296875
1663861776631669200,21.623669189453125,1.63421630859375,43.98345947265625,-9.9517822265625
1663861776651597300,21.643597412109376,1.60369873046875,42.63153076171875,-8.1298828125
1663861776671342000,21.663342041015625,0.5950927734375,45.20263671875,-9.33837890625
1663861776691331000,21.6833310546875,1.6448974609375,44.44427490234375,-9.33990478515625
1663861776711320000,21.703320068359375,0.69122314453125,42.767333984375,-9.80682373046875
1663861776731309000,21.72330908203125,1.190185546875,44.59381103515625,-9.49249267578125
1663861776751298000,21.743298095703125,1.35498046875,45.19500732421875,-10.4034423828125
1663861776771287000,21.763287109375,1.4892578125,44.29473876953125,-9.0362548828125
1663861776791276000,21.783276123046875,1.60980224609375,42.92449951171875,-9.3475341796875
1663861776811265300,21.803265380859376,1.3214111328125,43.67828369140625,-9.954833984375
1663861776831254300,21.823254150390625,1.3214111328125,43.68133544921875,-9.649658203125
1663861776851243300,21.8432431640625,2.264404296875,44.9005126953125,-9.48944091796875
1663861776871232300,21.863232177734375,2.23541259765625,43.54095458984375,-8.43048095703125
1663861776891221200,21.88322119140625,1.33056640625,43.994140625,-8.58154296875
1663861776911210200,21.903210205078125,1.806640625,44.89898681640625,-9.490966796875
1663861776931199200,21.92319921875,2.84423828125,43.5333251953125,-9.49554443359375
1663861776951188200,21.943188232421875,1.800537109375,44.6014404296875,-8.72955322265625
1663861776971177200,21.96317724609375,1.6510009765625,44.7479248046875,-9.33837890625
1663861776991166200,21.983166259765625,4.05426025390625,43.08929443359375,-8.43048095703125
1663861777011155200,22.0031552734375,1.14898681640625,42.77496337890625,-9.04388427734375
1663861777031144200,22.023144287109375,0.85601806640625,43.36395263671875,-11.175537109375
1663861777051133400,22.043133544921876,2.69622802734375,43.69354248046875,-8.58154296875
1663861777071122400,22.063122314453125,1.60369873046875,42.63153076171875,-8.1298828125
1663861777091081000,22.0830810546875,2.7191162109375,44.7479248046875,-9.64202880859375
1663861777111100400,22.103100341796875,2.44903564453125,46.270751953125,-9.33074951171875
1663861777131089400,22.12308935546875,0.55084228515625,43.36700439453125,-10.7177734375
1663861777151078400,22.143078369140625,1.95770263671875,44.7601318359375,-8.11920166015625
1663861777171067400,22.1630673828125,1.7578125,42.76275634765625,-10.5682373046875
1663861777191026000,22.18302587890625,0.2960205078125,45.50018310546875,-9.9456787109375
1663861777211045400,22.20304541015625,0.86517333984375,43.6798095703125,-9.649658203125
1663861777231034400,22.223034423828125,1.3153076171875,43.3746337890625,-9.95635986328125
1663861777251023400,22.2430234375,0.567626953125,43.98956298828125,-8.88671875
1663861777271012600,22.2630126953125,0.26092529296875,43.97735595703125,-10.41107177734375
1663861777291001600,22.283001708984376,0.27923583984375,44.74334716796875,-9.64508056640625
1663861777310990600,22.302990478515625,2.38800048828125,43.6767578125,-10.4095458984375
1663861777330979600,22.3229794921875,1.35498046875,45.18890380859375,-11.1663818359375
1663861777350968600,22.342968505859375,2.5390625,43.5333251953125,-9.49554443359375
1663861777370957600,22.36295751953125,1.63421630859375,43.99261474609375,-8.88519287109375
1663861777390946600,22.382946533203125,0.6988525390625,43.07403564453125,-9.5001220703125
1663861777410935600,22.402935546875,1.63421630859375,43.99261474609375,-8.88519287109375
1663861777430924500,22.422924560546875,1.6021728515625,42.6177978515625,-9.65423583984375
1663861777450913500,22.44291357421875,1.6510009765625,44.7479248046875,-9.33837890625
1663861777470902500,22.462902587890625,1.48773193359375,44.28863525390625,-9.7991943359375
1663861777490891500,22.4828916015625,0.8697509765625,43.975830078125,-10.7147216796875
1663861777511216400,22.50321630859375,1.18255615234375,44.27947998046875,-10.86578369140625
1663861777531144200,22.523144287109375,0.86669921875,43.69659423828125,-7.8216552734375
1663861777550889200,22.54288916015625,1.9561767578125,44.75250244140625,-8.880615234375
1663861777570847700,22.56284765625,1.94854736328125,44.4427490234375,-9.64508056640625
1663861777590867200,22.5828671875,2.72979736328125,45.20721435546875,-9.3353271484375
1663861777610795300,22.602795166015625,1.519775390625,45.6634521484375,-9.0301513671875
1663861777630814700,22.622814697265625,2.40478515625,44.43511962890625,-10.711669921875
1663861777650803700,22.6428037109375,1.18255615234375,44.287109375,-9.7991943359375
1663861777670792700,22.662792724609375,2.72064208984375,44.76318359375,-7.81402587890625
1663861777690765000,22.68276513671875,1.97296142578125,45.50018310546875,-10.40191650390625
1663861777710754000,22.702754150390625,2.71148681640625,44.44732666015625,-9.33990478515625
1663861777730743000,22.722742919921874,1.6510009765625,44.74639892578125,-9.6435546875
1663861777750701600,22.74270166015625,2.24151611328125,43.84918212890625,-7.97119140625
1663861777770721000,22.762720947265624,0.71563720703125,43.83392333984375,-9.4970703125
1663861777790710000,22.7827099609375,1.78375244140625,43.83544921875,-9.49554443359375
1663861777810699000,22.802698974609374,3.14483642578125,43.3746337890625,-10.41107177734375
1663861777830688000,22.82268798828125,1.1566162109375,43.08013916015625,-8.73870849609375
1663861777850646500,22.842646484375,0.872802734375,43.9971923828125,-8.123779296875
1663861777870666200,22.862666259765625,3.76434326171875,43.70269775390625,-7.81707763671875
1663861777890655200,22.8826552734375,2.53753662109375,43.5302734375,-9.80072021484375
1663861777910644200,22.902644287109375,0.567626953125,43.98956298828125,-8.88671875
1663861777930633200,22.92263330078125,2.3956298828125,43.98193359375,-10.40802001953125
1663861777950591700,22.942591796875,1.4984130859375,44.6136474609375,-7.20672607421875
1663861777970611200,22.962611083984374,1.9500732421875,44.4488525390625,-8.88214111328125
1663861777990600200,22.98260009765625,1.9561767578125,44.75250244140625,-8.880615234375
1663861778010589200,23.002589111328124,1.9744873046875,45.51239013671875,-8.8775634765625
1663861778030578200,23.022578125,3.302001953125,43.5394287109375,-9.03778076171875
1663861778050536700,23.04253662109375,1.8035888671875,44.61669921875,-6.90155029296875
1663861778070556200,23.06255615234375,1.6510009765625,44.74029541015625,-10.406494140625
1663861778090545200,23.082545166015624,2.54669189453125,43.84307861328125,-8.73260498046875
1663861778110534400,23.102534423828125,2.3895263671875,43.69049072265625,-8.88671875
1663861778130523400,23.1225234375,3.18603515625,45.2056884765625,-9.63897705078125
1663861778150512400,23.142512451171875,1.32904052734375,43.9849853515625,-9.64813232421875
1663861778170501400,23.16250146484375,1.3214111328125,43.67523193359375,-10.41107177734375
1663861778190490400,23.182490478515625,1.78375244140625,43.84002685546875,-9.03778076171875
1663861778210540300,23.202540283203124,4.681396484375,43.84613037109375,-9.03472900390625
1663861778230468400,23.22246826171875,2.52685546875,43.07098388671875,-10.260009765625
1663861778250487800,23.24248779296875,1.9317626953125,43.6859130859375,-9.344482421875
1663861778270476800,23.262476806640624,3.62396240234375,44.29931640625,-9.03472900390625
1663861778290435300,23.282435302734374,1.6357421875,44.0032958984375,-7.513427734375
1663861778310424300,23.30242431640625,1.9561767578125,44.74639892578125,-9.6435546875
1663861778330444000,23.322444091796875,1.800537109375,44.5953369140625,-9.49249267578125
1663861778350433000,23.34243310546875,3.46527099609375,44.00787353515625,-7.51190185546875
1663861778370422000,23.362422119140625,2.252197265625,44.29931640625,-8.7310791015625
1663861778390411000,23.382410888671874,4.69207763671875,44.31304931640625,-7.66143798828125
1663861778410857700,23.402857666015624,1.800537109375,44.59991455078125,-9.03472900390625
1663861778430541600,23.42254150390625,2.557373046875,44.29931640625,-8.7310791015625
1663861778450378000,23.4423779296875,3.7567138671875,43.39599609375,-8.123779296875
1663861778470367000,23.462366943359374,2.86865234375,44.6075439453125,-8.42437744140625
1663861778490386700,23.48238671875,2.89459228515625,45.68023681640625,-7.1990966796875
1663861778510345000,23.502344970703124,2.41546630859375,44.7662353515625,-7.50885009765625
1663861778530303500,23.522303466796874,3.31878662109375,44.30389404296875,-8.42437744140625
1663861778550292500,23.54229248046875,2.276611328125,45.36590576171875,-8.42132568359375
1663861778570281500,23.562281494140624,2.71453857421875,44.46258544921875,-7.5103759765625
1663861778590240000,23.582239990234374,3.46527099609375,44.00482177734375,-7.81707763671875
1663861778610259700,23.602259765625,3.20281982421875,45.831298828125,-7.50274658203125
1663861778630248700,23.622248779296875,1.99737548828125,46.5728759765625,-9.3292236328125
1663861778650237700,23.64223779296875,2.70233154296875,44.00177001953125,-8.12225341796875
1663861778670226700,23.662226806640625,4.57305908203125,45.8251953125,-8.56781005859375
1663861778690185200,23.682185302734375,4.09698486328125,44.92645263671875,-6.89697265625
1663861778710204700,23.70220458984375,3.656005859375,45.6756591796875,-7.96051025390625
1663861778730193700,23.722193603515624,1.82647705078125,45.6756591796875,-7.65838623046875
1663861778750152200,23.742152099609374,2.58941650390625,45.684814453125,-6.59027099609375
1663861778770171600,23.762171630859374,2.58026123046875,45.36285400390625,-8.7249755859375
1663861778790160600,23.78216064453125,1.52130126953125,45.67413330078125,-7.65838623046875
1663861778810149600,23.802149658203124,2.398681640625,44.000244140625,-8.12225341796875
1663861778830139000,23.822138916015625,2.8533935546875,43.8568115234375,-7.208251953125
1663861778850097200,23.84209716796875,2.3681640625,42.6483154296875,-6.30035400390625
1663861778870116900,23.862116943359375,4.0985107421875,44.93865966796875,-5.37261962890625
1663861778890105900,23.88210595703125,3.47747802734375,44.4671630859375,-7.0526123046875
1663861778910064400,23.902064453125,2.4139404296875,44.757080078125,-8.575439453125
1663861778930083800,23.922083740234374,2.398681640625,44.012451171875,-6.75048828125
1663861778950072800,23.94207275390625,4.12750244140625,46.1578369140625,-5.06134033203125
1663861778970061800,23.962061767578124,4.7088623046875,44.940185546875,-5.37261962890625
1663861778990050800,23.98205078125,4.3731689453125,43.56842041015625,-5.83648681640625
1663861779010039800,24.002039794921874,4.229736328125,44.0155029296875,-6.74896240234375
1663861779030028800,24.02202880859375,4.718017578125,45.3857421875,-6.5887451171875
1663861779050018000,24.04201806640625,4.54559326171875,44.4793701171875,-5.9844970703125
1663861779070007000,24.062007080078125,4.38995361328125,44.32830810546875,-5.8319091796875
1663861779089996000,24.08199609375,2.8656005859375,44.32830810546875,-5.377197265625
1663861779109985000,24.101985107421875,4.412841796875,45.3887939453125,-6.13250732421875
1663861779129974000,24.12197412109375,4.229736328125,44.02008056640625,-6.29119873046875
1663861779149963000,24.141962890625,4.2572021484375,45.23773193359375,-5.9814453125
1663861779169921500,24.161921630859375,4.37774658203125,43.8568115234375,-7.66448974609375
1663861779189941000,24.18194091796875,5.1666259765625,44.94171142578125,-5.37109375
1663861779209930000,24.201929931640624,4.3975830078125,44.635009765625,-5.3741455078125
1663861779229919000,24.2219189453125,5.16510009765625,44.9310302734375,-6.59027099609375
1663861779249908000,24.241907958984374,6.2286376953125,44.64874267578125,-4.30450439453125
1663861779269897000,24.26189697265625,3.466796875,44.0185546875,-6.292724609375
1663861779290221800,24.282221923828125,4.55322265625,44.78912353515625,-5.22003173828125
1663861779309966600,24.301966552734374,5.47332763671875,44.95697021484375,-3.54156494140625
1663861779329864200,24.3218642578125,5.20172119140625,46.4630126953125,-5.059814453125
1663861779349883600,24.341883544921874,5.48858642578125,45.70465087890625,-5.0628662109375
1663861779369842200,24.36184228515625,5.1605224609375,44.63958740234375,-5.0689697265625
1663861779389831200,24.3818310546875,6.0882568359375,45.25146484375,-4.91180419921875
1663861779409820200,24.401820068359374,4.852294921875,44.4915771484375,-4.46014404296875
1663861779429809200,24.42180908203125,4.86907958984375,45.2484130859375,-4.913330078125
1663861779449798100,24.441798095703124,5.7861328125,45.39794921875,-5.3680419921875
1663861779469756700,24.461756591796874,5.61981201171875,44.78912353515625,-5.523681640625
1663861779489776000,24.481776123046874,5.17578125,45.39337158203125,-5.8258056640625
1663861779509765000,24.50176513671875,4.3914794921875,44.34051513671875,-4.30908203125
1663861779529754400,24.52175439453125,5.1116943359375,42.51556396484375,-4.62188720703125
1663861779549773800,24.54177392578125,4.4342041015625,46.17156982421875,-3.5369873046875
1663861779569732400,24.561732421875,5.76934814453125,44.635009765625,-5.828857421875
1663861779589721300,24.581721435546875,4.57916259765625,45.86181640625,-4.14886474609375
1663861779609710300,24.60171044921875,5.17730712890625,45.39947509765625,-5.06439208984375
1663861779629699300,24.62169921875,5.47027587890625,44.93865966796875,-5.828857421875
1663861779649688300,24.641688232421874,6.219482421875,44.3359375,-5.37261962890625
1663861779669677300,24.66167724609375,6.70623779296875,45.5657958984375,-3.6895751953125
1663861779689635800,24.6816357421875,5.7769775390625,44.9493408203125,-4.608154296875
1663861779709655300,24.7016552734375,6.982421875,44.3389892578125,-5.06744384765625
1663861779729644300,24.721644287109374,6.6986083984375,45.25604248046875,-4.45404052734375
1663861779749633300,24.74163330078125,6.9732666015625,43.8934326171875,-4.00238037109375
1663861779769622500,24.76162255859375,7.02667236328125,46.17919921875,-3.23028564453125
1663861779789580800,24.781580810546874,6.5338134765625,44.65179443359375,-3.99932861328125
1663861779809600500,24.8016005859375,6.573486328125,46.47064208984375,-4.60052490234375
1663861779829589500,24.821589599609375,7.43408203125,44.04144287109375,-4.4586181640625
1663861779849578500,24.84157861328125,6.24542236328125,45.41473388671875,-3.53851318359375
1663861779869567500,24.8615673828125,7.28759765625,44.33746337890625,-5.37261962890625
1663861779889556500,24.881556396484374,7.1624755859375,45.55511474609375,-5.21392822265625
1663861779909545500,24.90154541015625,6.68182373046875,44.49005126953125,-5.22003173828125
1663861779929504000,24.92150390625,5.31463623046875,44.78759765625,-5.52520751953125
1663861779949523500,24.9415234375,7.1380615234375,44.488525390625,-5.523681640625
1663861779969512400,24.961512451171874,7.48443603515625,46.31195068359375,-5.5145263671875
1663861779989501400,24.98150146484375,7.269287109375,43.56689453125,-6.5948486328125
1663861780009490700,25.00149072265625,7.11517333984375,43.4356689453125,-4.15802001953125
1663861780029479700,25.021479736328125,8.2061767578125,44.49005126953125,-5.52215576171875
1663861780049468700,25.04146875,8.1878662109375,43.73016357421875,-5.5267333984375
1663861780069457700,25.061457763671875,7.598876953125,44.63653564453125,-6.13250732421875
1663861780089446700,25.08144677734375,6.671142578125,44.0338134765625,-5.2215576171875
1663861780109435600,25.101435546875,7.391357421875,42.205810546875,-5.99212646484375
1663861780129424600,25.121424560546874,8.062744140625,44.9371337890625,-6.58721923828125
1663861780149413600,25.14141357421875,6.22100830078125,44.33746337890625,-5.0689697265625
1663861780169769000,25.16176904296875,5.596923828125,43.72711181640625,-5.224609375
1663861780189544200,25.181544189453124,8.05511474609375,44.63043212890625,-6.8939208984375
1663861780209380600,25.201380615234374,7.60650634765625,44.9462890625,-5.3680419921875
1663861780229369900,25.221369873046875,6.05316162109375,43.7255859375,-5.52825927734375
1663861780249358800,25.24135888671875,5.6304931640625,45.23773193359375,-6.2835693359375
1663861780269347800,25.261347900390625,6.56585693359375,46.15325927734375,-6.12640380859375
1663861780289336800,25.2813369140625,5.6182861328125,44.7723388671875,-7.50579833984375
1663861780309325800,25.301325927734375,5.31463623046875,44.7845458984375,-5.9814453125
1663861780329314800,25.321314697265624,5.4718017578125,44.94171142578125,-5.37109375
1663861780349303800,25.3413037109375,6.964111328125,43.5638427734375,-6.9000244140625
1663861780369292800,25.361292724609374,5.1116943359375,42.50946044921875,-5.38330078125
1663861780389281800,25.38128173828125,6.3507080078125,43.41888427734375,-5.987548828125
1663861780409270800,25.401270751953124,4.693603515625,44.31915283203125,-6.89849853515625
1663861780429229300,25.421229248046874,6.536865234375,44.93408203125,-6.5887451171875
1663861780449248800,25.441248779296874,4.83245849609375,43.7103271484375,-7.05413818359375
1663861780469238000,25.461238037109375,6.219482421875,44.3359375,-5.37261962890625
1663861780489227000,25.48122705078125,5.44586181640625,43.8629150390625,-7.2052001953125
1663861780509216000,25.501216064453125,5.43670654296875,43.54400634765625,-9.0362548828125
1663861780529205000,25.521205078125,5.46875,44.915771484375,-8.4197998046875
1663861780549194000,25.541194091796875,4.68292236328125,43.8629150390625,-6.90155029296875
1663861780569183000,25.561182861328124,4.11529541015625,45.68939208984375,-6.5887451171875
1663861780589172000,25.581171875,4.85687255859375,44.77386474609375,-7.049560546875
1663861780609161000,25.601160888671874,4.84619140625,44.451904296875,-9.33685302734375
1663861780629119500,25.621119384765624,4.35791015625,43.084716796875,-9.039306640625
1663861780649139000,25.641138916015624,2.86865234375,44.6044921875,-8.72802734375
1663861780669128000,25.6611279296875,4.376220703125,43.8446044921875,-9.03472900390625
1663861780689117000,25.681116943359374,4.095458984375,44.91119384765625,-8.7249755859375
1663861780709106200,25.701106201171875,5.29327392578125,43.994140625,-9.6435546875
1663861780729064400,25.721064453125,2.25830078125,44.59686279296875,-9.490966796875
1663861780749084200,25.741084228515625,4.67529296875,43.5577392578125,-7.208251953125
1663861780769073200,25.7610732421875,3.77960205078125,44.44580078125,-9.64202880859375
1663861780789062100,25.781062255859375,3.63616943359375,44.9005126953125,-9.7930908203125
1663861780809051100,25.801051025390624,4.071044921875,43.84002685546875,-9.49249267578125
1663861780829040000,25.8210400390625,3.1585693359375,43.98345947265625,-10.40802001953125
1663861780849029000,25.841029052734374,4.09393310546875,44.8974609375,-10.24932861328125
1663861780868987600,25.860987548828124,5.46722412109375,44.91119384765625,-9.02862548828125
1663861780889007000,25.881007080078124,2.43682861328125,45.80535888671875,-10.39886474609375
1663861780908996000,25.90099609375,4.095458984375,44.90814208984375,-9.0301513671875
1663861780928985000,25.920985107421874,2.545166015625,43.83544921875,-9.7991943359375
1663861780948974300,25.940974365234375,3.1341552734375,42.926025390625,-9.65118408203125
1663861780968963300,25.96096337890625,4.21295166015625,43.3868408203125,-9.34295654296875
1663861780988952300,25.980952392578125,3.30657958984375,43.829345703125,-10.56060791015625
1663861781008941300,26.00094140625,3.78570556640625,44.7479248046875,-9.9456787109375
1663861781028930300,26.020930419921875,3.3172607421875,44.2840576171875,-10.86273193359375
1663861781049163500,26.04116357421875,1.63116455078125,43.97125244140625,-11.47613525390625
1663861781069091300,26.06109130859375,4.23583984375,44.44122314453125,-10.40496826171875
1663861781088897300,26.080897216796874,3.3233642578125,44.5892333984375,-10.55755615234375
1663861781108886300,26.10088623046875,2.850341796875,43.83544921875,-9.7991943359375
1663861781128875300,26.120875244140624,3.79638671875,45.20416259765625,-9.94415283203125
1663861781148864300,26.1408642578125,5.14678955078125,44.2901611328125,-10.5560302734375
1663861781168853200,26.160853271484374,3.48052978515625,44.75250244140625,-9.33685302734375
1663861781188842500,26.180842529296875,2.545166015625,43.83544921875,-9.7991943359375
1663861781208831500,26.20083154296875,3.49273681640625,45.2117919921875,-8.8775634765625
1663861781228820500,26.220820556640625,4.38385009765625,44.27947998046875,-11.6241455078125
1663861781248809500,26.2408095703125,4.376220703125,43.8446044921875,-9.03472900390625
1663861781268798500,26.260798583984375,2.4139404296875,44.757080078125,-8.575439453125
1663861781288787500,26.280787353515624,2.6947021484375,43.68743896484375,-9.34295654296875
1663861781308776400,26.3007763671875,4.08172607421875,44.3023681640625,-8.72802734375
1663861781328735000,26.32073486328125,5.46722412109375,44.90509033203125,-9.79156494140625
1663861781348754400,26.34075439453125,4.2266845703125,43.9971923828125,-8.88214111328125
1663861781368774100,26.360774169921875,4.1961669921875,42.633056640625,-8.5845947265625
1663861781388732400,26.380732421875,5.426025390625,43.0877685546875,-9.03778076171875
1663861781408721400,26.400721435546874,1.9256591796875,43.38531494140625,-8.88824462890625
1663861781428710700,26.420710693359375,4.5318603515625,43.994140625,-9.33990478515625
1663861781448699600,26.44069970703125,4.67376708984375,43.53485107421875,-9.7991943359375
1663861781468688600,26.460688720703125,5.58624267578125,43.3929443359375,-8.8836669921875
1663861781488677600,26.480677734375,3.60565185546875,43.52874755859375,-10.2569580078125
1663861781508666600,26.50066650390625,4.21142578125,43.3807373046875,-9.9517822265625
1663861781528655600,26.520655517578124,5.4534912109375,44.30389404296875,-9.03167724609375
1663861781548644600,26.54064453125,5.15594482421875,44.60906982421875,-8.72650146484375
1663861781568664000,26.5606640625,5.1483154296875,44.3023681640625,-9.03167724609375
1663861781588622600,26.58062255859375,5.15594482421875,44.60906982421875,-8.72650146484375
1663861781608611600,26.600611572265624,4.34417724609375,42.46673583984375,-10.26153564453125
1663861781628600600,26.6206005859375,5.32073974609375,45.20721435546875,-9.942626953125
1663861781648589800,26.64058984375,3.7628173828125,43.69964599609375,-8.12225341796875
1663861781668609300,26.660609375,3.48052978515625,44.75250244140625,-9.33685302734375
1663861781688567800,26.68056787109375,4.241943359375,44.7357177734375,-11.47003173828125
1663861781708556800,26.700556884765625,4.852294921875,44.74639892578125,-10.40191650390625
1663861781728545800,26.7205458984375,4.06341552734375,43.5333251953125,-9.7991943359375
1663861781748534800,26.74053466796875,3.6712646484375,46.42333984375,-9.48028564453125
1663861781768523800,26.760523681640624,4.5318603515625,43.994140625,-9.33990478515625
1663861781788512800,26.7805126953125,3.753662109375,43.37615966796875,-10.4095458984375
1663861781808501800,26.800501708984374,3.45458984375,43.6676025390625,-11.78131103515625
1663861781828490800,26.82049072265625,4.071044921875,43.84002685546875,-9.49249267578125
1663861781848479700,26.840479736328124,3.61175537109375,43.83087158203125,-10.56060791015625
1663861781868468700,26.86046875,4.5440673828125,44.46563720703125,-7.50885009765625
1663861781888458000,26.8804580078125,5.31005859375,44.7479248046875,-10.40191650390625
1663861781908447000,26.900447021484375,3.7689208984375,43.988037109375,-9.95025634765625
1663861781928710700,26.920710693359375,4.4891357421875,42.16766357421875,-9.6527099609375
1663861781948669000,26.9406689453125,4.071044921875,43.84002685546875,-9.49249267578125
1663861781968414000,26.9604140625,4.67987060546875,43.8385009765625,-9.79766845703125
1663861781988403000,26.98040283203125,5.7403564453125,43.5394287109375,-9.49249267578125
1663861782008392000,27.000391845703124,4.67376708984375,43.53485107421875,-9.7991943359375
1663861782028381000,27.020380859375,4.09393310546875,44.90203857421875,-9.7930908203125
1663861782048370000,27.040369873046874,5.28106689453125,43.3929443359375,-8.8836669921875
1663861782068359000,27.06035888671875,4.82940673828125,43.6920166015625,-9.33990478515625
1663861782088348000,27.080347900390624,4.64935302734375,42.4713134765625,-9.80377197265625
1663861782108337000,27.1003369140625,5.31158447265625,44.7540283203125,-9.63897705078125
1663861782128326100,27.120326171875,5.57403564453125,42.92449951171875,-10.4095458984375
1663861782148345600,27.140345703125,5.30242919921875,44.4427490234375,-10.4034423828125
1663861782168304000,27.16030419921875,6.2164306640625,44.30999755859375,-8.42132568359375
1663861782188293000,27.180293212890625,7.5775146484375,43.84765625,-9.48944091796875
1663861782208282000,27.2002822265625,5.450439453125,44.2840576171875,-11.31744384765625
1663861782228271000,27.22027099609375,6.05010986328125,43.69354248046875,-9.33837890625
1663861782248260000,27.240260009765624,4.81109619140625,42.926025390625,-9.95330810546875
1663861782268249000,27.2602490234375,5.44281005859375,43.84307861328125,-9.490966796875
1663861782288207600,27.28020751953125,4.559326171875,45.21484375,-8.87603759765625
1663861782308227000,27.30022705078125,6.3323974609375,42.64373779296875,-7.82012939453125
1663861782328216000,27.320216064453124,5.2886962890625,43.70574951171875,-7.8155517578125
1663861782348205000,27.340205078125,6.22406005859375,44.6136474609375,-8.4197998046875
1663861782368194300,27.3601943359375,7.57904052734375,43.86138916015625,-7.965087890625
1663861782388183300,27.380183349609375,5.1544189453125,44.60296630859375,-9.4879150390625
1663861782408172300,27.40017236328125,6.3629150390625,44.01092529296875,-7.8125
1663861782428161300,27.420161376953125,4.8370361328125,43.99566650390625,-9.33837890625
1663861782448150300,27.440150390625,5.731201171875,43.0908203125,-8.73260498046875
