time,seconds_elapsed,z,y,x
1663861755218665000,0.2106650390625,8.073135375976562,2.124755859375,-2.2664031982421875
1663861755228583200,0.220583251953125,8.954208374023438,1.243682861328125,-1.861785888671875
1663861755238471000,0.230470947265625,9.002090454101562,0.302764892578125,-2.5848388671875
1663861755248358700,0.240358642578125,8.590286254882812,0.23333740234375,-2.8984832763671875
1663861755258215700,0.250215576171875,8.559158325195312,1.3131256103515625,-2.4459686279296875
1663861755268073000,0.260072998046875,8.104263305664062,2.3043212890625,-1.9072723388671875
1663861755277930200,0.26993017578125,8.468185424804688,2.991455078125,-1.354217529296875
1663861755287817700,0.279817626953125,9.102645874023438,3.2572174072265625,-0.7891845703125
1663861755297675000,0.289675048828125,9.140945434570312,3.2093353271484375,-0.33428955078125
1663861755307562800,0.299562744140625,8.638168334960938,3.166229248046875,-0.0350189208984375
1663861755317450500,0.309450439453125,8.381988525390625,3.1303253173828125,0.1373748779296875
1663861755327338000,0.319337890625,8.559158325195312,2.838226318359375,0.2139892578125
1663861755337256200,0.329256103515625,9.205596923828125,2.404876708984375,0.1110382080078125
1663861755347144000,0.33914404296875,10.357208251953125,1.7991485595703125,-1.23211669921875
1663861755357031700,0.34903173828125,11.887100219726562,1.1503143310546875,-3.99981689453125
1663861755366889000,0.358888916015625,11.022796630859375,0.7480926513671875,-4.8545379638671875
1663861755376776400,0.3687763671875,8.599853515625,1.1407470703125,-2.642303466796875
1663861755386633700,0.3786337890625,8.451416015625,2.467132568359375,-0.805938720703125
1663861755396521500,0.388521484375,9.907089233398438,3.4176177978515625,-0.1475372314453125
1663861755406409200,0.3984091796875,10.476913452148438,3.206939697265625,-0.224151611328125
1663861755416296700,0.408296630859375,10.819290161132812,2.151092529296875,-0.889739990234375
1663861755426154000,0.418154052734375,11.226303100585938,1.253265380859375,-1.586456298828125
1663861755436041700,0.428041748046875,11.075469970703125,0.98272705078125,-1.775604248046875
1663861755445960000,0.4379599609375,10.146514892578125,1.3729705810546875,-0.9328460693359375
1663861755455817200,0.447817138671875,9.217559814453125,2.2803802490234375,0.08709716796875
1663861755465704700,0.45770458984375,9.143341064453125,3.2428436279296875,0.5084686279296875
1663861755475562000,0.46756201171875,9.363616943359375,3.7695770263671875,0.3432769775390625
1663861755485449700,0.47744970703125,9.277420043945312,3.4008636474609375,-0.1954193115234375
1663861755495368000,0.487367919921875,9.564727783203125,2.584442138671875,-1.0764923095703125
1663861755505255700,0.497255615234375,9.8759765625,2.02899169921875,-1.5673065185546875
1663861755515143200,0.50714306640625,9.689224243164062,2.3067169189453125,-1.08367919921875
1663861755525031000,0.517031005859375,9.255874633789062,3.1782073974609375,-0.4587860107421875
1663861755534918700,0.526918701171875,8.674087524414062,4.042510986328125,-0.02783203125
1663861755544806400,0.536806396484375,7.8025970458984375,4.427978515625,0.3193359375
1663861755554694100,0.546694091796875,7.4123382568359375,4.205322265625,0.2020111083984375
1663861755564581600,0.55658154296875,7.4386749267578125,3.652252197265625,-0.118804931640625
1663861755574469400,0.566469482421875,7.611053466796875,3.1351165771484375,-0.518646240234375
1663861755584296200,0.576296142578125,7.4961395263671875,3.1374969482421875,-0.7532806396484375
1663861755594183700,0.58618359375,7.6709136962890625,3.7767486572265625,-0.530609130859375
1663861755604071400,0.596071533203125,8.678863525390625,4.178985595703125,-0.140350341796875
1663861755613959200,0.605959228515625,9.595855712890625,3.487060546875,-0.3223114013671875
1663861755623847000,0.615846923828125,9.746688842773438,2.5964202880859375,-1.05255126953125
1663861755633734700,0.625734619140625,9.109832763671875,2.5820465087890625,-1.2728118896484375
1663861755643622100,0.6356220703125,8.575912475585938,2.86456298828125,-0.899322509765625
1663861755653510000,0.645510009765625,8.563949584960938,2.9028778076171875,-0.5018768310546875
1663861755663397600,0.655397705078125,8.808151245117188,3.1686248779296875,-0.360626220703125
1663861755673285400,0.665285400390625,8.798583984375,3.4248046875,0.0032958984375
1663861755683173000,0.675173095703125,9.090667724609375,3.513397216796875,-0.0086822509765625
1663861755693030100,0.685030029296875,9.17926025390625,3.561279296875,-0.01824951171875
1663861755702887400,0.694887451171875,8.951812744140625,3.175811767578125,-0.329498291015625
1663861755712744700,0.70474462890625,9.059539794921875,2.9818878173828125,-0.758056640625
1663861755722663000,0.714662841796875,9.152923583984375,3.01300048828125,-0.8131256103515625
1663861755732550400,0.72455029296875,9.32769775390625,3.070465087890625,-0.59765625
1663861755742438100,0.734438232421875,9.6341552734375,3.281158447265625,-0.4851226806640625
1663861755752295400,0.74429541015625,9.409103393554688,3.1710205078125,-0.930450439453125
1663861755762152400,0.75415234375,8.812942504882812,3.092010498046875,-1.004669189453125
1663861755772070700,0.764070556640625,9.03082275390625,3.0082244873046875,-0.001495361328125
1663861755781928000,0.773927978515625,9.3492431640625,2.878936767578125,0.479736328125
1663861755791846100,0.78384619140625,9.040390014648438,3.065673828125,0.2331390380859375
1663861755801734000,0.79373388671875,8.611831665039062,3.1255340576171875,0.0703277587890625
1663861755811621600,0.80362158203125,8.939834594726562,2.878936767578125,0.1445465087890625
1663861755821509000,0.813509033203125,9.545562744140625,2.70654296875,0.2379302978515625
1663861755831396900,0.82339697265625,9.67724609375,2.6826019287109375,0.17327880859375
1663861755841284600,0.83328466796875,9.37078857421875,2.7233123779296875,-0.0350189208984375
1663861755851141600,0.8431416015625,8.963775634765625,2.75921630859375,-0.0876922607421875
1663861755861029400,0.853029296875,8.896743774414062,2.8142852783203125,-0.18585205078125
1663861755870917000,0.862917236328125,8.918289184570312,2.7352752685546875,-0.37738037109375
1663861755880804900,0.872804931640625,8.587890625,2.701751708984375,-0.023040771484375
1663861755890692600,0.882692626953125,8.171295166015625,3.3362274169921875,0.8771820068359375
1663861755900580000,0.892580078125,7.601470947265625,3.9491424560546875,1.8563995361328125
1663861755910467800,0.9024677734375,7.1896820068359375,4.116729736328125,2.0096282958984375
1663861755920355600,0.91235546875,7.0962982177734375,3.673797607421875,1.3009490966796875
1663861755930212900,0.922212890625,7.35247802734375,2.917236328125,0.4869232177734375
1663861755940100400,0.932100341796875,7.7187957763671875,2.6610565185546875,0.3959503173828125
1663861755949988000,0.941988037109375,8.104263305664062,2.9292144775390625,0.7957763671875
1663861755959875800,0.951875732421875,8.437057495117188,3.2212982177734375,1.1692657470703125
1663861755969763600,0.961763671875,8.573516845703125,3.4679107666015625,1.59783935546875
1663861755979651300,0.9716513671875,8.75787353515625,3.513397216796875,2.0766754150390625
1663861755989508400,0.98150830078125,8.800979614257812,3.3577728271484375,2.2203216552734375
1663861755999396000,0.99139599609375,8.74591064453125,3.197357177734375,2.00006103515625
1663861756009283800,1.001283935546875,8.688446044921875,3.1638336181640625,1.75823974609375
1663861756019171600,1.011171630859375,8.405929565429688,3.18060302734375,1.6648712158203125
1663861756029059300,1.021059326171875,8.269454956054688,3.2739715576171875,1.6481170654296875
1663861756038946800,1.03094677734375,8.16650390625,3.1686248779296875,1.8180999755859375
1663861756048804000,1.04080419921875,8.247909545898438,3.058502197265625,1.8348541259765625
1663861756058661400,1.050661376953125,8.3460693359375,3.0345458984375,1.7486724853515625
1663861756068548900,1.060548828125,8.4202880859375,3.058502197265625,1.803741455078125
1663861756078436600,1.0704365234375,8.233551025390625,3.080047607421875,1.8085174560546875
1663861756088324400,1.080324462890625,7.9031524658203125,2.9148406982421875,1.8276824951171875
1663861756098181600,1.090181640625,7.6278076171875,2.6227569580078125,1.78936767578125
1663861756108069000,1.100069091796875,7.5296478271484375,2.38812255859375,1.55712890625
1663861756117956900,1.109956787109375,7.5966949462890625,2.198974609375,1.372772216796875
1663861756127844600,1.1198447265625,7.8816070556640625,2.055328369140625,1.4541778564453125
1663861756137732400,1.129732421875,8.2598876953125,2.0696868896484375,1.68402099609375
1663861756147620000,1.1396201171875,8.638168334960938,2.2492523193359375,1.96893310546875
1663861756157507600,1.149507568359375,8.702804565429688,2.447967529296875,2.1891937255859375
1663861756167395300,1.159395263671875,8.212005615234375,2.4455718994140625,2.3927001953125
1663861756177252600,1.169252685546875,7.32135009765625,2.3857269287109375,2.6033935546875
1663861756187109600,1.179109619140625,6.83294677734375,2.277984619140625,2.3137054443359375
1663861756196997400,1.188997314453125,6.828155517578125,1.9260406494140625,1.77978515625
1663861756206885000,1.198885009765625,6.7156219482421875,1.1646881103515625,1.2794036865234375
1663861756216803300,1.20880322265625,6.6725311279296875,0.1351776123046875,1.0112457275390625
1663861756226691000,1.218691162109375,6.437896728515625,-0.8775787353515625,0.8460540771484375
1663861756236548000,1.228548095703125,6.1242523193359375,-1.478515625,1.13336181640625
1663861756246435800,1.238435791015625,5.5209197998046875,-1.7083587646484375,1.31292724609375
1663861756256293000,1.248293212890625,4.51055908203125,-1.7346954345703125,0.759857177734375
1663861756266211300,1.25821142578125,3.6558380126953125,-1.768218994140625,0.4701690673828125
1663861756276068600,1.268068603515625,2.623931884765625,-1.7203369140625,0.7287445068359375
1663861756285956000,1.2779560546875,1.5848541259765625,-1.60540771484375,0.59466552734375
1663861756295843800,1.28784375,0.9599609375,-1.5958404541015625,0.02484130859375
1663861756305731600,1.297731689453125,0.46197509765625,-2.1536865234375,-0.8873443603515625
1663861756315619300,1.307619384765625,-0.196441650390625,-3.597381591796875,-1.83544921875
1663861756325507000,1.317507080078125,-0.6058502197265625,-5.560638427734375,-2.0652923583984375
1663861756335364000,1.327364013671875,-2.616973876953125,-7.1024932861328125,-1.143524169921875
1663861756345251800,1.337251953125,-6.969635009765625,-7.954833984375,1.8923187255859375
1663861756355139600,1.3471396484375,-5.2673492431640625,-8.285232543945312,4.0423126220703125
1663861756365027300,1.35702734375,-0.2969970703125,-8.507888793945312,3.8244476318359375
1663861756374914800,1.366914794921875,1.2951507568359375,-8.99151611328125,4.183563232421875
1663861756384802600,1.376802490234375,-0.0527801513671875,-9.4033203125,5.7805023193359375
1663861756394659800,1.386659912109375,-1.5323944091796875,-9.946807861328125,7.9041595458984375
1663861756404547600,1.396547607421875,-1.1397552490234375,-10.413681030273438,9.498703002929688
1663861756414435000,1.40643505859375,-0.0719451904296875,-11.3043212890625,10.090072631835938
1663861756424322800,1.41632275390625,-0.0408172607421875,-11.407272338867188,12.580032348632812
1663861756434210600,1.42621044921875,-0.134185791015625,-10.499862670898438,14.955078125
1663861756444098300,1.436098388671875,-0.0240478515625,-9.958786010742188,16.532867431640625
1663861756453986000,1.445986083984375,-0.2969970703125,-9.544586181640625,18.615814208984375
1663861756463873500,1.45587353515625,-1.053558349609375,-8.735336303710938,19.678848266601562
1663861756473761300,1.46576123046875,-1.2786102294921875,-8.376205444335938,19.6357421875
1663861756483618600,1.47561865234375,-1.5347900390625,-8.661117553710938,18.527236938476562
1663861756493475600,1.4854755859375,-1.233123779296875,-8.72576904296875,18.512863159179688
1663861756503394000,1.49539404296875,-1.381561279296875,-8.009902954101562,20.1624755859375
1663861756513281500,1.505281494140625,-3.5411376953125,-6.247772216796875,22.755386352539062
1663861756523138800,1.515138916015625,-5.8060455322265625,-4.2581787109375,24.680328369140625
1663861756533026600,1.525026611328125,-6.8188018798828125,-3.470489501953125,24.31402587890625
1663861756542883600,1.534883544921875,-7.139617919921875,-3.48486328125,22.36993408203125
1663861756552801800,1.5448017578125,-7.0893402099609375,-3.934967041015625,20.370773315429688
1663861756562689500,1.554689453125,-6.3543243408203125,-4.4329681396484375,18.740310668945312
1663861756572577300,1.564577392578125,-4.613739013671875,-4.9022216796875,17.143386840820312
1663861756582465000,1.574465087890625,-2.552337646484375,-5.096160888671875,14.976638793945312
1663861756592352800,1.584352783203125,-1.4677581787109375,-5.67315673828125,11.856979370117188
1663861756602240300,1.594240234375,-0.8332977294921875,-5.55584716796875,10.03021240234375
1663861756612128000,1.6041279296875,0.6128082275390625,-5.2637481689453125,9.419692993164062
1663861756622015700,1.614015625,2.3773345947265625,-4.6915283203125,9.984725952148438
1663861756631903500,1.623903564453125,3.85455322265625,-3.6021728515625,11.117172241210938
1663861756641760500,1.633760498046875,4.3285980224609375,-2.5894317626953125,12.031768798828125
1663861756651648300,1.643648193359375,3.521759033203125,-1.5240020751953125,12.41961669921875
1663861756661536000,1.653535888671875,2.7268829345703125,-1.0140380859375,11.976699829101562
1663861756671423700,1.663423828125,2.8058929443359375,-0.4346466064453125,11.835433959960938
1663861756681311500,1.6733115234375,0.5864715576171875,-0.0419921875,12.59918212890625
1663861756691199000,1.683198974609375,-1.802947998046875,1.1383514404296875,13.511383056640625
1663861756701056300,1.69305615234375,-1.776611328125,1.5238189697265625,14.016555786132812
1663861756710944000,1.702944091796875,0.014251708984375,0.7935791015625,13.149856567382812
1663861756720831700,1.712831787109375,0.816314697265625,0.1399688720703125,11.574478149414062
1663861756730719500,1.722719482421875,-0.2108001708984375,-0.437042236328125,9.40771484375
1663861756740607000,1.73260693359375,-2.11419677734375,-0.755462646484375,6.6208648681640625
1663861756750494700,1.74249462890625,-2.1788330078125,-0.3197174072265625,3.9513397216796875
1663861756760352000,1.75235205078125,-4.233062744140625,-0.99249267578125,2.73028564453125
1663861756770239700,1.76223974609375,-6.7134552001953125,-1.6245574951171875,2.5196075439453125
1663861756780127200,1.772127197265625,-6.7182464599609375,-2.994049072265625,2.19158935546875
1663861756790015000,1.782014892578125,-5.164398193359375,-4.91180419921875,2.2131500244140625
1663861756799902700,1.79190283203125,-4.031951904296875,-5.8503265380859375,1.9545745849609375
1663861756809760000,1.801760009765625,-2.80133056640625,-5.9029998779296875,1.224334716796875
1663861756819647500,1.8116474609375,-4.307281494140625,-6.53985595703125,5.682342529296875
1663861756829535200,1.82153515625,-0.483734130859375,-7.5621795654296875,4.19793701171875
1663861756839423000,1.831423095703125,7.6900634765625,0.321929931640625,3.9728851318359375
1663861756849310700,1.841310791015625,2.0086212158203125,-3.93017578125,13.061264038085938
1663861756859198500,1.851198486328125,-0.54119873046875,-5.5438690185546875,8.744522094726562
1663861756869086000,1.8610859375,0.2321319580078125,-4.1528472900390625,7.36785888671875
1663861756878943200,1.870943115234375,-0.323333740234375,-4.684356689453125,8.186676025390625
1663861756888800500,1.880800537109375,-1.1660919189453125,-5.0003814697265625,11.019012451171875
1663861756898688000,1.89068798828125,0.7732086181640625,-5.7449798583984375,12.733261108398438
1663861756908575700,1.90057568359375,-3.335235595703125,-4.040313720703125,11.083663940429688
1663861756918463500,1.91046337890625,-3.62493896484375,-6.9708099365234375,5.66796875
1663861756928351200,1.920351318359375,-0.0144805908203125,-9.853439331054688,3.443756103515625
1663861756938239000,1.930239013671875,0.478729248046875,-11.3785400390625,4.298492431640625
1663861756948126500,1.94012646484375,-3.483673095703125,-12.69775390625,3.2498321533203125
1663861756958014200,1.95001416015625,-2.734283447265625,-13.902023315429688,2.998443603515625
1663861756967902000,1.95990185546875,-0.78302001953125,-14.139053344726562,7.00872802734375
1663861756977789700,1.969789794921875,1.9032745361328125,-13.717681884765625,13.015777587890625
1663861756987677400,1.979677490234375,1.1945953369140625,-11.646697998046875,13.374908447265625
1663861756997534500,1.989534423828125,-1.925048828125,-10.107223510742188,13.377304077148438
1663861757007422200,1.999422119140625,-3.89068603515625,-9.376983642578125,10.951980590820312
1663861757017310000,2.00931005859375,-1.850830078125,-9.163909912109375,7.5186920166015625
1663861757027197700,2.01919775390625,0.054962158203125,-8.984344482421875,5.2657470703125
1663861757037085400,2.02908544921875,-1.2929840087890625,-11.696975708007812,1.3105316162109375
1663861757046942500,2.0389423828125,0.574493408203125,-12.214111328125,1.0064697265625
1663861757056830200,2.048830322265625,-4.106170654296875,-7.21502685546875,7.827545166015625
1663861757066718000,2.058718017578125,-6.758941650390625,-5.3906402587890625,9.378982543945312
1663861757076605700,2.068605712890625,1.0581207275390625,-4.31085205078125,7.7413482666015625
1663861757086493200,2.0784931640625,2.1091766357421875,-7.1862945556640625,2.9505615234375
1663861757096381000,2.088380859375,-1.9537811279296875,-9.405715942382812,-0.0350189208984375
1663861757106238200,2.09823828125,-1.553955078125,-7.8638458251953125,3.6448822021484375
1663861757116126000,2.1081259765625,0.509857177734375,-7.236572265625,7.1811065673828125
1663861757126013400,2.118013427734375,2.5377349853515625,-7.76568603515625,8.181884765625
1663861757135901200,2.127901123046875,-2.121368408203125,-8.744918823242188,5.725433349609375
1663861757145789000,2.137788818359375,-2.6145782470703125,-7.5406341552734375,4.9664764404296875
1663861757155646200,2.147646240234375,-0.72076416015625,-7.0115203857421875,3.25701904296875
1663861757165503200,2.157503173828125,-0.948211669921875,-8.158340454101562,2.6464996337890625
1663861757175391000,2.167390869140625,-0.6848602294921875,-9.257278442382812,3.632904052734375
1663861757185278700,2.17727880859375,-0.8332977294921875,-9.97314453125,4.753387451171875
1663861757195166500,2.18716650390625,-0.43585205078125,-9.8677978515625,4.2793426513671875
1663861757205054000,2.197053955078125,-2.0639190673828125,-8.73773193359375,4.6073455810546875
1663861757214941700,2.206941650390625,-2.616973876953125,-8.179885864257812,4.719879150390625
1663861757224829400,2.216829345703125,-0.8500518798828125,-8.984344482421875,3.26898193359375
1663861757234686700,2.226686767578125,1.2592315673828125,-9.123199462890625,3.3767242431640625
1663861757244543700,2.236543701171875,-0.5052947998046875,-9.932449340820312,3.623321533203125
1663861757254462000,2.2464619140625,-3.6823883056640625,-7.15277099609375,4.9401397705078125
1663861757264349700,2.256349609375,-2.0615234375,-5.3954315185546875,5.5913543701171875
1663861757274237400,2.266237548828125,-0.112640380859375,-6.0825653076171875,4.92816162109375
1663861757284125200,2.276125244140625,-0.450225830078125,-2.2901458740234375,2.555511474609375
1663861757293982200,2.285982177734375,2.64068603515625,0.7792205810546875,-1.512237548828125
1663861757303870000,2.295869873046875,4.04608154296875,-3.1352996826171875,5.6129150390625
1663861757313757700,2.3057578125,-3.2107391357421875,-7.0019378662109375,7.657562255859375
1663861757323645400,2.3156455078125,-2.4876861572265625,-6.4752197265625,7.2098388671875
1663861757333533200,2.325533203125,0.5290069580078125,-8.495925903320312,5.100555419921875
1663861757343420700,2.335420654296875,-2.4828948974609375,-10.135955810546875,4.382293701171875
1663861757353278000,2.34527783203125,-0.6656951904296875,-10.535781860351562,3.6783905029296875
1663861757363135200,2.35513525390625,-3.5866241455078125,-10.863784790039062,1.916259765625
1663861757373053400,2.365053466796875,-2.6720428466796875,-13.315444946289062,1.571502685546875
1663861757382941000,2.37494091796875,0.5290069580078125,-12.992233276367188,0.726348876953125
1663861757392798200,2.384798095703125,-1.127777099609375,-13.806259155273438,-0.758056640625
1663861757402686000,2.39468603515625,-5.20989990234375,-11.424026489257812,0.2427215576171875
1663861757412573700,2.40457373046875,-1.3983306884765625,-10.370574951171875,3.8412017822265625
1663861757422461200,2.414461181640625,1.821868896484375,-11.124755859375,4.0063934326171875
1663861757432349000,2.424348876953125,2.992645263671875,-8.407333374023438,5.545867919921875
1663861757442206200,2.434206298828125,1.153900146484375,-7.17431640625,5.3112335205078125
1663861757452124400,2.44412451171875,-1.0152587890625,-8.807174682617188,2.6488800048828125
1663861757462012200,2.45401220703125,-3.5746612548828125,-9.817520141601562,-1.0669097900390625
1663861757471900000,2.46389990234375,-2.9713134765625,-9.41290283203125,-3.360565185546875
1663861757481757000,2.4737568359375,1.6542816162109375,-8.802383422851562,-5.1035308837890625
1663861757491614200,2.4836142578125,1.8601837158203125,-7.9308929443359375,-4.3158416748046875
1663861757501502000,2.493501953125,-1.211578369140625,-6.4416961669921875,-2.0269927978515625
1663861757511420200,2.503420166015625,-2.2171478271484375,-5.8311767578125,-2.66864013671875
1663861757521307600,2.5133076171875,-0.90032958984375,-6.5590057373046875,-3.109161376953125
1663861757531195400,2.5231953125,0.4811248779296875,-7.17431640625,-3.2288818359375
1663861757541083100,2.533083251953125,1.3502197265625,-7.6387939453125,-2.20416259765625
1663861757550971000,2.542970947265625,0.627166748046875,-10.023422241210938,-2.0078277587890625
1663861757560858600,2.552858642578125,0.3661956787109375,-11.033782958984375,-0.0876922607421875
1663861757570715600,2.562715576171875,0.6343536376953125,-10.753662109375,1.171661376953125
1663861757580573000,2.572572998046875,0.0597381591796875,-11.280380249023438,1.31292724609375
1663861757590430000,2.582429931640625,0.0956573486328125,-14.2515869140625,0.2810211181640625
1663861757600348200,2.59234814453125,-0.90032958984375,-22.715087890625,-0.9926910400390625
1663861757610236000,2.60223583984375,-1.4581756591796875,-35.4881591796875,0.558746337890625
1663861757620123600,2.61212353515625,2.741241455078125,-22.087799072265625,3.3815155029296875
1663861757630011400,2.622011474609375,2.2360687255859375,-6.132843017578125,3.568267822265625
1663861757639899100,2.631899169921875,0.088470458984375,-6.022705078125,0.082305908203125
1663861757649786600,2.64178662109375,0.526611328125,-9.417694091796875,-3.3533782958984375
1663861757659674400,2.65167431640625,0.2177581787109375,-11.70654296875,-4.9862213134765625
1663861757669554400,2.661554443359375,0.552947998046875,-11.299530029296875,-4.4882354736328125
1663861757679411500,2.671411376953125,0.9575653076171875,-10.241302490234375,-2.6470794677734375
1663861757689268700,2.681268798828125,0.7995452880859375,-10.401702880859375,-1.5457611083984375
1663861757699156500,2.691156494140625,0.636749267578125,-11.055328369140625,-1.7588348388671875
1663861757709044000,2.7010439453125,0.9096832275390625,-10.823089599609375,-1.81390380859375
1663861757718901200,2.7109013671875,0.3973236083984375,-10.39691162109375,-1.8953094482421875
1663861757728819500,2.7208193359375,-0.3089599609375,-10.499862670898438,-2.7404632568359375
1663861757738707200,2.730707275390625,-0.862030029296875,-10.41607666015625,-2.8458099365234375
1663861757748595000,2.740594970703125,-0.15093994140625,-9.5828857421875,-1.8522186279296875
1663861757758482400,2.750482421875,1.1898040771484375,-8.795196533203125,-0.7269439697265625
1663861757768370200,2.7603701171875,1.615966796875,-8.8095703125,-0.039794921875
1663861757778258000,2.7702578125,1.2640228271484375,-9.386566162109375,-0.013458251953125
1663861757788115200,2.780115234375,0.7468719482421875,-10.006668090820312,-0.3366851806640625
1663861757798003000,2.7900029296875,0.552947998046875,-10.41607666015625,-0.7125701904296875
1663861757807890400,2.799890380859375,0.5337982177734375,-10.598037719726562,-0.9136810302734375
1663861757817778200,2.809778076171875,0.4835205078125,-10.559722900390625,-1.1411285400390625
1663861757827666000,2.819666015625,0.543365478515625,-10.425643920898438,-1.258453369140625
1663861757837553700,2.8295537109375,0.6128082275390625,-10.332275390625,-1.416473388671875
1663861757847441400,2.83944140625,0.351837158203125,-10.550140380859375,-1.69659423828125
1663861757857329000,2.849328857421875,0.1172027587890625,-10.456771850585938,-1.7540435791015625
1663861757867186200,2.859186279296875,0.0860748291015625,-9.805557250976562,-1.7420806884765625
1663861757877074000,2.869073974609375,0.110015869140625,-9.125595092773438,-1.9695281982421875
1663861757886931000,2.878930908203125,0.1387481689453125,-8.989120483398438,-2.6518707275390625
1663861757896818700,2.888818603515625,0.0597381591796875,-9.312347412109375,-3.0205841064453125
1663861757906706400,2.89870654296875,0.2440948486328125,-9.8677978515625,-2.781158447265625
1663861757916594200,2.90859423828125,0.5577392578125,-10.435226440429688,-1.957550048828125
1663861757926451200,2.918451171875,0.5026702880859375,-10.753662109375,-1.031005859375
1663861757936339000,2.9283388671875,0.4499969482421875,-10.621978759765625,-0.609619140625
1663861757946196200,2.9381962890625,0.3278961181640625,-10.454376220703125,-0.9376220703125
1663861757956114400,2.948114501953125,0.141143798828125,-10.305938720703125,-1.4140777587890625
1663861757966002200,2.958002197265625,0.057342529296875,-10.147918701171875,-1.6056060791015625
1663861757975889700,2.9678896484375,0.15789794921875,-10.179046630859375,-1.4308319091796875
1663861757985747000,2.977746826171875,0.5242156982421875,-10.171859741210938,-1.3206939697265625
1663861757995634700,2.987634765625,0.8139190673828125,-9.046585083007812,-1.047760009765625
1663861758005491700,2.99749169921875,0.797149658203125,-7.938079833984375,-2.453155517578125
1663861758015410000,3.007409912109375,-0.471771240234375,-7.1240386962890625,-1.7277069091796875
1663861758025297700,3.017297607421875,-0.7662506103515625,-8.981948852539062,-2.6925811767578125
1663861758035155000,3.027155029296875,-0.6656951904296875,-10.365798950195312,-3.7603912353515625
1663861758045042700,3.037042724609375,-0.2251739501953125,-11.5150146484375,-3.5161895751953125
1663861758054930400,3.046930419921875,0.1650848388671875,-13.071243286132812,-2.929595947265625
1663861758064818000,3.05681787109375,0.2225494384765625,-12.264389038085938,-1.73968505859375
1663861758074675200,3.06667529296875,0.6032257080078125,-10.854217529296875,-1.4308319091796875
1663861758084563000,3.07656298828125,0.816314697265625,-10.167068481445312,-2.082061767578125
1663861758094450700,3.08645068359375,0.710968017578125,-9.865402221679688,-2.874542236328125
1663861758104338200,3.096338134765625,0.4595794677734375,-9.894134521484375,-3.6167449951171875
1663861758114226000,3.106225830078125,0.4236602783203125,-9.798370361328125,-3.5496978759765625
1663861758124113700,3.11611376953125,0.902496337890625,-9.84625244140625,-2.9056549072265625
1663861758134001400,3.12600146484375,1.1323394775390625,-10.794357299804688,-2.548919677734375
1663861758143889200,3.13588916015625,0.82110595703125,-11.07208251953125,-1.9599456787109375
1663861758153776600,3.145776611328125,1.1107940673828125,-10.803939819335938,-2.23529052734375
1663861758163664400,3.155664306640625,1.208953857421875,-10.519027709960938,-2.781158447265625
1663861758173552000,3.16555224609375,1.038970947265625,-10.241302490234375,-2.97509765625
1663861758183440000,3.17543994140625,0.9312286376953125,-10.064117431640625,-3.0517120361328125
1663861758193297000,3.185296875,0.83306884765625,-10.112014770507812,-3.0325469970703125
1663861758203184600,3.1951845703125,0.7995452880859375,-10.2891845703125,-2.9319915771484375
1663861758213072400,3.205072265625,0.689422607421875,-10.425643920898438,-2.7332763671875
1663861758222960000,3.214960205078125,0.6511077880859375,-10.435226440429688,-2.5106201171875
1663861758232848000,3.224847900390625,0.7349090576171875,-10.186233520507812,-2.268798828125
1663861758242705000,3.234704833984375,0.7803955078125,-7.2677001953125,0.295379638671875
1663861758252592600,3.244592529296875,1.556121826171875,-8.139190673828125,-3.69573974609375
1663861758262480400,3.25448046875,0.0214385986328125,-10.823089599609375,-6.2072601318359375
1663861758272368000,3.2643681640625,-0.9386444091796875,-10.74407958984375,-3.0780487060546875
1663861758282256000,3.274255859375,-0.536407470703125,-10.329879760742188,-0.45159912109375
1663861758292143400,3.284143310546875,0.7923736572265625,-9.946807861328125,1.8731689453125
1663861758302031000,3.294031005859375,1.9032745361328125,-9.70977783203125,3.2067413330078125
1663861758311888400,3.303888427734375,1.6351318359375,-10.262847900390625,1.351226806640625
1663861758321776000,3.313776123046875,0.4332427978515625,-10.583663940429688,-1.3518218994140625
1663861758331663600,3.32366357421875,-0.4526214599609375,-10.313125610351562,-2.63751220703125
1663861758341521000,3.33352099609375,-0.598663330078125,-10.03778076171875,-2.7931365966796875
1663861758351408600,3.34340869140625,-0.1533355712890625,-10.03778076171875,-2.5201873779296875
1663861758361296400,3.35329638671875,0.08367919921875,-10.262847900390625,-2.1131744384765625
1663861758371183900,3.363183837890625,0.543365478515625,-10.356216430664062,-1.6558837890625
1663861758381071600,3.373071533203125,0.3661956787109375,-10.358612060546875,-1.4882965087890625
1663861758390929000,3.382928955078125,0.2177581787109375,-10.291580200195312,-1.6630706787109375
1663861758400816600,3.392816650390625,0.394927978515625,-10.092849731445312,-1.67742919921875
1663861758410704100,3.4027041015625,0.5242156982421875,-10.018630981445312,-1.617584228515625
1663861758420591900,3.412591796875,0.521820068359375,-10.140731811523438,-1.6678619384765625
1663861758430479600,3.422479736328125,0.426055908203125,-10.241302490234375,-1.6750335693359375
1663861758440367400,3.432367431640625,0.3709869384765625,-10.387344360351562,-1.7995452880859375
1663861758450255000,3.442255126953125,0.39013671875,-10.365798950195312,-1.9407958984375
1663861758460142600,3.452142578125,0.4452056884765625,-10.281997680664062,-2.0222015380859375
1663861758470030300,3.4620302734375,0.4954833984375,-10.3011474609375,-1.8210906982421875
1663861758479918000,3.47191796875,0.447601318359375,-10.102432250976562,-1.5840606689453125
1663861758489805800,3.481805908203125,0.5864715576171875,-10.135955810546875,-1.6989898681640625
1663861758499693600,3.491693603515625,0.61041259765625,-10.128768920898438,-1.5816650390625
1663861758509581300,3.501581298828125,0.689422607421875,-10.119186401367188,-1.6103973388671875
1663861758519438300,3.511438232421875,0.62237548828125,-10.128768920898438,-1.682220458984375
1663861758529295600,3.521295654296875,0.5553436279296875,-10.14312744140625,-1.777984619140625
1663861758539183400,3.531183349609375,0.521820068359375,-10.138351440429688,-1.861785888671875
1663861758549070800,3.54107080078125,0.5194244384765625,-10.157501220703125,-1.9120635986328125
1663861758558958600,3.55095849609375,0.509857177734375,-10.157501220703125,-1.9599456787109375
1663861758568846300,3.560846435546875,0.478729248046875,-10.123977661132812,-1.955169677734375
1663861758578734000,3.570734130859375,0.488311767578125,-10.112014770507812,-1.8737640380859375
1663861758588621800,3.580621826171875,0.490692138671875,-10.123977661132812,-1.7803802490234375
1663861758598478800,3.590478759765625,0.4404144287109375,-10.126373291015625,-1.7061614990234375
1663861758608336100,3.600336181640625,0.4093017578125,-10.186233520507812,-1.617584228515625
1663861758618254300,3.61025439453125,0.4116973876953125,-10.2149658203125,-1.5577239990234375
1663861758628111400,3.620111328125,0.404510498046875,-10.229324340820312,-1.512237548828125
1663861758637999000,3.6299990234375,0.35662841796875,-10.246078491210938,-1.502655029296875
1663861758647886800,3.639886962890625,0.308746337890625,-10.260452270507812,-1.502655029296875
1663861758657774600,3.649774658203125,0.3063507080078125,-10.243682861328125,-1.5194244384765625
1663861758667631600,3.659631591796875,0.268035888671875,-10.2149658203125,-1.5050506591796875
1663861758677519400,3.669519287109375,0.256072998046875,-10.210174560546875,-1.5074462890625
1663861758687407000,3.679406982421875,0.308746337890625,-10.222137451171875,-1.490692138671875
1663861758697294800,3.689294921875,0.3231048583984375,-10.193405151367188,-1.4954833984375
1663861758707152000,3.69915185546875,0.33746337890625,-10.207778930664062,-1.4835052490234375
1663861758717070000,3.709070068359375,0.3350830078125,-10.234115600585938,-1.5050506591796875
1663861758726927400,3.71892724609375,0.35662841796875,-10.229324340820312,-1.5194244384765625
1663861758736845600,3.728845458984375,0.4212646484375,-10.243682861328125,-1.5625152587890625
1663861758746702800,3.738702880859375,0.426055908203125,-10.23651123046875,-1.6008148193359375
1663861758756590600,3.748590576171875,0.4811248779296875,-10.23651123046875,-1.6463165283203125
1663861758766447600,3.758447509765625,0.4811248779296875,-10.246078491210938,-1.68701171875
1663861758776365800,3.76836572265625,0.5337982177734375,-10.210174560546875,-1.6989898681640625
1663861758786253600,3.778253662109375,0.5697021484375,-10.1527099609375,-1.70855712890625
1663861758796141300,3.788141357421875,0.5673065185546875,-10.145523071289062,-1.7277069091796875
1663861758806029000,3.798029052734375,0.57928466796875,-10.147918701171875,-1.7253265380859375
1663861758815916500,3.80791650390625,0.6199798583984375,-10.133560180664062,-1.722930908203125
1663861758825773800,3.81777392578125,0.6080169677734375,-10.145523071289062,-1.756439208984375
1663861758835661600,3.82766162109375,0.6726531982421875,-10.157501220703125,-1.77081298828125
1663861758845518600,3.8375185546875,0.7085723876953125,-10.16229248046875,-1.8258819580078125
1663861758855436800,3.847436767578125,0.6870269775390625,-10.164688110351562,-1.87615966796875
1663861758865324500,3.857324462890625,0.6774444580078125,-10.145523071289062,-1.924041748046875
1663861758875212300,3.86721240234375,0.6822357177734375,-10.145523071289062,-1.96234130859375
1663861758885100000,3.87710009765625,0.6774444580078125,-10.157501220703125,-1.988677978515625
1663861758894957000,3.88695703125,0.6558990478515625,-10.1527099609375,-2.0222015380859375
1663861758904814300,3.896814453125,0.679840087890625,-10.167068481445312,-1.988677978515625
1663861758914702000,3.9067021484375,0.636749267578125,-10.147918701171875,-1.9599456787109375
1663861758924620300,3.916620361328125,0.6247711181640625,-10.16229248046875,-1.924041748046875
1663861758934477300,3.926477294921875,0.6319580078125,-10.171859741210938,-1.8809356689453125
1663861758944334600,3.93633447265625,0.5912628173828125,-10.159896850585938,-1.8426361083984375
1663861758954222300,3.946222412109375,0.5768890380859375,-10.17425537109375,-1.809112548828125
1663861758964140500,3.956140625,0.5649261474609375,-10.181442260742188,-1.7851715087890625
1663861758973997600,3.96599755859375,0.5768890380859375,-10.181442260742188,-1.7732086181640625
1663861758983916000,3.975916015625,0.5553436279296875,-10.186233520507812,-1.76123046875
1663861758993773000,3.98577294921875,0.47393798828125,-10.17425537109375,-1.777984619140625
1663861759003660800,3.995660888671875,0.4547882080078125,-10.188629150390625,-1.797149658203125
1663861759013548500,4.005548583984375,0.447601318359375,-10.191009521484375,-1.7923583984375
1663861759023436300,4.015436279296875,0.4380340576171875,-10.200592041015625,-1.7732086181640625
1663861759033323800,4.02532373046875,0.4452056884765625,-10.20538330078125,-1.73968505859375
1663861759043211500,4.03521142578125,0.4715423583984375,-10.200592041015625,-1.73968505859375
1663861759053099300,4.045099365234375,0.46435546875,-10.212570190429688,-1.703765869140625
1663861759062987000,4.054987060546875,0.426055908203125,-10.210174560546875,-1.7061614990234375
1663861759072874800,4.064874755859375,0.4021148681640625,-10.2269287109375,-1.7205352783203125
1663861759082762200,4.07476220703125,0.382965087890625,-10.198196411132812,-1.7372894287109375
1663861759092619500,4.08461962890625,0.378173828125,-10.193405151367188,-1.7468719482421875
1663861759102507300,4.09450732421875,0.394927978515625,-10.191009521484375,-1.734893798828125
1663861759112395000,4.10439501953125,0.4093017578125,-10.17425537109375,-1.713348388671875
1663861759122252000,4.114251953125,0.4188690185546875,-10.169464111328125,-1.7013702392578125
1663861759132139800,4.124139892578125,0.447601318359375,-10.183837890625,-1.6750335693359375
1663861759141997000,4.1339970703125,0.4547882080078125,-10.169464111328125,-1.670257568359375
1663861759151915300,4.143915283203125,0.46197509765625,-10.179046630859375,-1.6558837890625
1663861759161772300,4.153772216796875,0.469146728515625,-10.169464111328125,-1.682220458984375
1663861759171660000,4.163659912109375,0.452392578125,-10.179046630859375,-1.6846160888671875
1663861759181547800,4.1735478515625,0.488311767578125,-10.186233520507812,-1.7061614990234375
1663861759191404800,4.18340478515625,0.4763336181640625,-10.202987670898438,-1.7420806884765625
1663861759201323000,4.193322998046875,0.500274658203125,-10.2149658203125,-1.7684173583984375
1663861759211210800,4.203210693359375,0.51702880859375,-10.202987670898438,-1.7995452880859375
1663861759221098500,4.213098388671875,0.521820068359375,-10.169464111328125,-1.83544921875
1663861759230986200,4.222986328125,0.540985107421875,-10.167068481445312,-1.83544921875
1663861759240874000,4.2328740234375,0.5242156982421875,-10.186233520507812,-1.8162994384765625
1663861759250761700,4.24276171875,0.5146484375,-10.19580078125,-1.81390380859375
1663861759260649200,4.252649169921875,0.5242156982421875,-10.207778930664062,-1.7851715087890625
1663861759270506500,4.262506591796875,0.469146728515625,-10.231719970703125,-1.78277587890625
1663861759280394200,4.272394287109375,0.4930877685546875,-10.2269287109375,-1.77081298828125
1663861759290282000,4.282281982421875,0.531402587890625,-10.212570190429688,-1.7372894287109375
1663861759300169500,4.29216943359375,0.5457611083984375,-10.2149658203125,-1.75164794921875
1663861759310057200,4.30205712890625,0.5888671875,-10.202987670898438,-1.744476318359375
1663861759319945000,4.311945068359375,0.574493408203125,-10.179046630859375,-1.7803802490234375
1663861759329832700,4.321832763671875,0.5577392578125,-10.14312744140625,-1.8043212890625
1663861759339689700,4.331689697265625,0.605621337890625,-10.112014770507812,-1.818695068359375
1663861759349577500,4.341577392578125,0.6175994873046875,-10.12158203125,-1.78277587890625
1663861759359465200,4.35146533203125,0.596038818359375,-10.140731811523438,-1.734893798828125
1663861759369322500,4.361322509765625,0.596038818359375,-10.145523071289062,-1.691802978515625
1663861759379210000,4.3712099609375,0.62237548828125,-10.167068481445312,-1.6678619384765625
1663861759389097700,4.38109765625,0.6463165283203125,-10.188629150390625,-1.648712158203125
1663861759398985500,4.3909853515625,0.6391448974609375,-10.179046630859375,-1.670257568359375
1663861759408873200,4.400873291015625,0.627166748046875,-10.17425537109375,-1.691802978515625
1663861759418761000,4.410760986328125,0.64154052734375,-10.171859741210938,-1.7301025390625
1663861759428648400,4.4206484375,0.6247711181640625,-10.188629150390625,-1.775604248046875
1663861759438536200,4.4305361328125,0.615203857421875,-10.164688110351562,-1.76123046875
1663861759448424000,4.440423828125,0.6128082275390625,-10.186233520507812,-1.7420806884765625
1663861759458281200,4.45028125,0.605621337890625,-10.176651000976562,-1.7253265380859375
1663861759468169000,4.4601689453125,0.600830078125,-10.17425537109375,-1.7157440185546875
1663861759478056400,4.470056396484375,0.5984344482421875,-10.176651000976562,-1.6941986083984375
1663861759487944200,4.479944091796875,0.61041259765625,-10.193405151367188,-1.69659423828125
1663861759497832000,4.48983203125,0.5720977783203125,-10.202987670898438,-1.722930908203125
1663861759507689200,4.499689208984375,0.574493408203125,-10.19580078125,-1.7061614990234375
1663861759517576700,4.50957666015625,0.596038818359375,-10.20538330078125,-1.7181396484375
1663861759527464400,4.51946435546875,0.6032257080078125,-10.191009521484375,-1.713348388671875
1663861759537352200,4.529352294921875,0.596038818359375,-10.183837890625,-1.7253265380859375
1663861759547240000,4.539239990234375,0.5577392578125,-10.202987670898438,-1.749267578125
1663861759557127700,4.549127685546875,0.5888671875,-10.176651000976562,-1.744476318359375
1663861759567015200,4.55901513671875,0.6032257080078125,-10.17425537109375,-1.76123046875
1663861759576872400,4.56887255859375,0.596038818359375,-10.181442260742188,-1.7277069091796875
1663861759586729700,4.578729736328125,0.5984344482421875,-10.181442260742188,-1.7253265380859375
1663861759596617200,4.5886171875,0.605621337890625,-10.169464111328125,-1.7109527587890625
1663861759606505000,4.5985048828125,0.6032257080078125,-10.171859741210938,-1.7253265380859375
1663861759616392700,4.608392822265625,0.61041259765625,-10.159896850585938,-1.7301025390625
1663861759626280400,4.618280517578125,0.6032257080078125,-10.150314331054688,-1.775604248046875
1663861759636168200,4.628168212890625,0.584075927734375,-10.16229248046875,-1.7851715087890625
1663861759646025200,4.638025146484375,0.5816802978515625,-10.181442260742188,-1.80194091796875
1663861759655913000,4.647912841796875,0.5984344482421875,-10.171859741210938,-1.8067169189453125
1663861759665770200,4.657770263671875,0.5888671875,-10.188629150390625,-1.797149658203125
1663861759675688400,4.6676884765625,0.5816802978515625,-10.179046630859375,-1.7803802490234375
1663861759685576000,4.677575927734375,0.5720977783203125,-10.193405151367188,-1.78277587890625
1663861759695433200,4.68743310546875,0.5864715576171875,-10.17425537109375,-1.756439208984375
1663861759705321000,4.697321044921875,0.5601348876953125,-10.17425537109375,-1.75164794921875
1663861759715208700,4.707208740234375,0.5290069580078125,-10.183837890625,-1.7684173583984375
1663861759725096400,4.717096435546875,0.509857177734375,-10.171859741210938,-1.7636260986328125
1663861759734984000,4.72698388671875,0.526611328125,-10.191009521484375,-1.7420806884765625
1663861759744841200,4.73684130859375,0.5194244384765625,-10.198196411132812,-1.756439208984375
1663861759754729000,4.74672900390625,0.5290069580078125,-10.19580078125,-1.766021728515625
1663861759764586000,4.7565859375,0.5242156982421875,-10.181442260742188,-1.7803802490234375
1663861759774504200,4.766504150390625,0.500274658203125,-10.169464111328125,-1.7947540283203125
1663861759784392000,4.776391845703125,0.5026702880859375,-10.17425537109375,-1.7995452880859375
1663861759794279700,4.78627978515625,0.5026702880859375,-10.186233520507812,-1.7923583984375
1663861759804167400,4.79616748046875,0.5122528076171875,-10.198196411132812,-1.7732086181640625
1663861759814024400,4.8060244140625,0.4978790283203125,-10.183837890625,-1.7540435791015625
1663861759823912200,4.815912109375,0.5122528076171875,-10.159896850585938,-1.7372894287109375
1663861759833800000,4.825800048828125,0.5242156982421875,-10.164688110351562,-1.76123046875
1663861759843687700,4.835687744140625,0.5242156982421875,-10.191009521484375,-1.7540435791015625
1663861759853544700,4.845544677734375,0.54815673828125,-10.198196411132812,-1.7540435791015625
1663861759863463000,4.855462890625,0.509857177734375,-10.200592041015625,-1.775604248046875
1663861759873320200,4.8653203125,0.5146484375,-10.17425537109375,-1.8115081787109375
1663861759883177500,4.875177490234375,0.5385894775390625,-10.183837890625,-1.809112548828125
1663861759893095700,4.885095703125,0.54815673828125,-10.157501220703125,-1.7636260986328125
1663861759902983200,4.894983154296875,0.5194244384765625,-10.16229248046875,-1.7636260986328125
1663861759912871000,4.904870849609375,0.5337982177734375,-10.179046630859375,-1.7468719482421875
1663861759922758700,4.914758544921875,0.531402587890625,-10.191009521484375,-1.75164794921875
1663861759932646400,4.924646484375,0.5026702880859375,-10.210174560546875,-1.75164794921875
1663861759942534100,4.9345341796875,0.540985107421875,-10.219741821289062,-1.73968505859375
1663861759952422000,4.944421875,0.540985107421875,-10.20538330078125,-1.7301025390625
1663861759962309400,4.954309326171875,0.57928466796875,-10.176651000976562,-1.7324981689453125
1663861759972166700,4.964166748046875,0.5577392578125,-10.171859741210938,-1.766021728515625
1663861759982054400,4.974054443359375,0.5601348876953125,-10.150314331054688,-1.797149658203125
1663861759991942100,4.983942138671875,0.574493408203125,-10.1527099609375,-1.7947540283203125
1663861760001829600,4.99382958984375,0.57928466796875,-10.155105590820312,-1.7899627685546875
1663861760011717400,5.00371728515625,0.5577392578125,-10.145523071289062,-1.7420806884765625
1663861760021605000,5.013605224609375,0.5553436279296875,-10.150314331054688,-1.69659423828125
1663861760031492900,5.023492919921875,0.5601348876953125,-10.164688110351562,-1.670257568359375
1663861760041380600,5.033380615234375,0.53619384765625,-10.186233520507812,-1.6726531982421875
1663861760051237600,5.043237548828125,0.540985107421875,-10.193405151367188,-1.68701171875
1663861760061125400,5.05312548828125,0.5146484375,-10.19580078125,-1.7157440185546875
1663861760071013000,5.06301318359375,0.5194244384765625,-10.212570190429688,-1.7540435791015625
1663861760080900900,5.07290087890625,0.54815673828125,-10.19580078125,-1.7636260986328125
1663861760090788400,5.082788330078125,0.5601348876953125,-10.191009521484375,-1.766021728515625
1663861760100676000,5.092676025390625,0.5385894775390625,-10.183837890625,-1.777984619140625
1663861760110533400,5.102533447265625,0.5649261474609375,-10.17425537109375,-1.7923583984375
1663861760120390400,5.112390380859375,0.5457611083984375,-10.200592041015625,-1.7636260986328125
1663861760130278100,5.122278076171875,0.53619384765625,-10.169464111328125,-1.7372894287109375
1663861760140166000,5.132165771484375,0.54815673828125,-10.188629150390625,-1.749267578125
1663861760150053600,5.1420537109375,0.5649261474609375,-10.212570190429688,-1.7205352783203125
1663861760159941400,5.15194140625,0.5649261474609375,-10.202987670898438,-1.7324981689453125
1663861760169828900,5.161828857421875,0.574493408203125,-10.222137451171875,-1.73968505859375
1663861760179716600,5.171716552734375,0.600830078125,-10.20538330078125,-1.744476318359375
1663861760189604400,5.181604248046875,0.5984344482421875,-10.167068481445312,-1.7324981689453125
1663861760199461600,5.191461669921875,0.5768890380859375,-10.155105590820312,-1.7372894287109375
1663861760209349400,5.201349365234375,0.596038818359375,-10.145523071289062,-1.7301025390625
1663861760219236900,5.21123681640625,0.5816802978515625,-10.16229248046875,-1.7253265380859375
1663861760229124600,5.22112451171875,0.6319580078125,-10.167068481445312,-1.7277069091796875
1663861760239012400,5.231012451171875,0.6247711181640625,-10.193405151367188,-1.7468719482421875
1663861760248900000,5.240900146484375,0.6080169677734375,-10.191009521484375,-1.76123046875
1663861760258787800,5.250787841796875,0.605621337890625,-10.191009521484375,-1.7851715087890625
1663861760268675300,5.26067529296875,0.5936431884765625,-10.179046630859375,-1.7803802490234375
1663861760278563000,5.27056298828125,0.574493408203125,-10.181442260742188,-1.777984619140625
1663861760288420400,5.28042041015625,0.6080169677734375,-10.17425537109375,-1.7468719482421875
1663861760298277400,5.29027734375,0.6032257080078125,-10.181442260742188,-1.7468719482421875
1663861760308165000,5.3001650390625,0.562530517578125,-10.171859741210938,-1.7061614990234375
1663861760318052900,5.310052978515625,0.562530517578125,-10.193405151367188,-1.6989898681640625
1663861760327940600,5.319940673828125,0.5505523681640625,-10.179046630859375,-1.68701171875
1663861760337828400,5.329828369140625,0.543365478515625,-10.188629150390625,-1.682220458984375
1663861760347715800,5.3397158203125,0.5242156982421875,-10.198196411132812,-1.6989898681640625
1663861760357603600,5.349603515625,0.509857177734375,-10.200592041015625,-1.6726531982421875
1663861760367491300,5.3594912109375,0.51702880859375,-10.202987670898438,-1.6678619384765625
1663861760377379000,5.369379150390625,0.50506591796875,-10.193405151367188,-1.651092529296875
1663861760387266800,5.379266845703125,0.51702880859375,-10.200592041015625,-1.68701171875
1663861760397154300,5.389154296875,0.5122528076171875,-10.198196411132812,-1.6894073486328125
1663861760406981000,5.398981201171875,0.5553436279296875,-10.202987670898438,-1.70855712890625
1663861760416868900,5.408868896484375,0.5385894775390625,-10.19580078125,-1.7061614990234375
1663861760426756600,5.418756591796875,0.51702880859375,-10.191009521484375,-1.70855712890625
1663861760436644000,5.42864404296875,0.5337982177734375,-10.188629150390625,-1.7061614990234375
1663861760446501400,5.43850146484375,0.540985107421875,-10.176651000976562,-1.70855712890625
1663861760456419600,5.448419677734375,0.53619384765625,-10.179046630859375,-1.7061614990234375
1663861760466307300,5.458307373046875,0.51702880859375,-10.169464111328125,-1.6750335693359375
1663861760476195000,5.468195068359375,0.5385894775390625,-10.171859741210938,-1.648712158203125
1663861760486052000,5.478052001953125,0.5577392578125,-10.157501220703125,-1.66546630859375
1663861760495909400,5.487909423828125,0.552947998046875,-10.145523071289062,-1.629547119140625
1663861760505797000,5.497797119140625,0.526611328125,-10.138351440429688,-1.648712158203125
1663861760515715300,5.50771533203125,0.5194244384765625,-10.123977661132812,-1.6558837890625
1663861760525602800,5.517602783203125,0.490692138671875,-10.14312744140625,-1.639129638671875
1663861760535490600,5.527490478515625,0.469146728515625,-10.179046630859375,-1.5840606689453125
1663861760545378300,5.53737841796875,0.4595794677734375,-10.200592041015625,-1.5409698486328125
1663861760555266000,5.54726611328125,0.4954833984375,-10.2269287109375,-1.490692138671875
1663861760565153800,5.55715380859375,0.452392578125,-10.231719970703125,-1.4739227294921875
1663861760575010800,5.5670107421875,0.4404144287109375,-10.238906860351562,-1.469146728515625
1663861760584898600,5.576898681640625,0.44281005859375,-10.250869750976562,-1.4332275390625
1663861760594786300,5.586786376953125,0.4404144287109375,-10.26763916015625,-1.438018798828125
1663861760604674000,5.596674072265625,0.447601318359375,-10.315521240234375,-1.4308319091796875
1663861760614561500,5.6065615234375,0.3973236083984375,-10.313125610351562,-1.459564208984375
1663861760624418800,5.616418701171875,0.3925323486328125,-10.27001953125,-1.502655029296875
1663861760634306600,5.626306640625,0.404510498046875,-10.27960205078125,-1.5218048095703125
1663861760644194300,5.6361943359375,0.452392578125,-10.272415161132812,-1.543365478515625
1663861760654082000,5.64608203125,0.4667510986328125,-10.246078491210938,-1.5673065185546875
1663861760663969500,5.655969482421875,0.457183837890625,-10.212570190429688,-1.6056060791015625
1663861760673826800,5.665826904296875,0.4763336181640625,-10.19580078125,-1.651092529296875
1663861760683714600,5.675714599609375,0.4930877685546875,-10.179046630859375,-1.651092529296875
1663861760693571600,5.685571533203125,0.5290069580078125,-10.157501220703125,-1.651092529296875
1663861760703459300,5.695459228515625,0.543365478515625,-10.171859741210938,-1.651092529296875
1663861760713347000,5.70534716796875,0.521820068359375,-10.147918701171875,-1.6439208984375
1663861760723234800,5.71523486328125,0.4954833984375,-10.155105590820312,-1.6678619384765625
1663861760733122600,5.72512255859375,0.488311767578125,-10.140731811523438,-1.682220458984375
1663861760743010000,5.735010009765625,0.5146484375,-10.135955810546875,-1.66546630859375
1663861760752867300,5.744867431640625,0.4978790283203125,-10.159896850585938,-1.63433837890625
1663861760762755000,5.754755126953125,0.4978790283203125,-10.169464111328125,-1.576873779296875
1663861760772612000,5.764612060546875,0.5505523681640625,-10.16229248046875,-1.543365478515625
1663861760782530300,5.7745302734375,0.543365478515625,-10.171859741210938,-1.5146331787109375
1663861760792418000,5.78441796875,0.57928466796875,-10.188629150390625,-1.5050506591796875
1663861760802275300,5.794275390625,0.6080169677734375,-10.176651000976562,-1.524200439453125
1663861760812163000,5.8041630859375,0.615203857421875,-10.16229248046875,-1.586456298828125
1663861760822050600,5.814050537109375,0.600830078125,-10.183837890625,-1.63433837890625
1663861760831938300,5.823938232421875,0.5673065185546875,-10.19580078125,-1.6750335693359375
1663861760841795600,5.833795654296875,0.531402587890625,-10.171859741210938,-1.713348388671875
1663861760851683300,5.843683349609375,0.5290069580078125,-10.159896850585938,-1.7324981689453125
1663861760861570800,5.85357080078125,0.500274658203125,-10.159896850585938,-1.7540435791015625
1663861760871458600,5.86345849609375,0.5290069580078125,-10.14312744140625,-1.7420806884765625
1663861760881346300,5.87334619140625,0.5649261474609375,-10.157501220703125,-1.7301025390625
1663861760891234000,5.883234130859375,0.584075927734375,-10.150314331054688,-1.722930908203125
1663861760901091300,5.89309130859375,0.6032257080078125,-10.159896850585938,-1.749267578125
1663861760911009500,5.903009521484375,0.5888671875,-10.164688110351562,-1.7277069091796875
1663861760920897000,5.91289697265625,0.6247711181640625,-10.157501220703125,-1.7109527587890625
1663861760930784800,5.92278466796875,0.627166748046875,-10.167068481445312,-1.670257568359375
1663861760940672500,5.932672607421875,0.62237548828125,-10.188629150390625,-1.6439208984375
1663861760950560300,5.942560302734375,0.6319580078125,-10.222137451171875,-1.6534881591796875
1663861760960417300,5.952417236328125,0.6199798583984375,-10.210174560546875,-1.660675048828125
1663861760970305000,5.962304931640625,0.6295623779296875,-10.210174560546875,-1.682220458984375
1663861760980162300,5.972162353515625,0.6295623779296875,-10.200592041015625,-1.6941986083984375
1663861760990050000,5.982050048828125,0.627166748046875,-10.20538330078125,-1.7277069091796875
1663861760999937500,5.9919375,0.6391448974609375,-10.212570190429688,-1.7923583984375
1663861761009825300,6.0018251953125,0.6558990478515625,-10.2149658203125,-1.8426361083984375
1663861761019713000,6.011713134765625,0.636749267578125,-10.222137451171875,-1.9072723388671875
1663861761029600800,6.021600830078125,0.6391448974609375,-10.188629150390625,-1.95037841796875
1663861761039488500,6.031488525390625,0.6247711181640625,-10.14312744140625,-1.998260498046875
1663861761049376000,6.0413759765625,0.6199798583984375,-10.119186401367188,-2.0222015380859375
1663861761059263700,6.051263671875,0.5864715576171875,-10.135955810546875,-2.046142578125
1663861761069121000,6.06112109375,0.5984344482421875,-10.145523071289062,-2.0437469482421875
1663861761078978000,6.07097802734375,0.6080169677734375,-10.159896850585938,-1.99346923828125
1663861761088865800,6.08086572265625,0.6032257080078125,-10.186233520507812,-1.9431915283203125
1663861761098784000,6.090783935546875,0.600830078125,-10.19580078125,-1.9048919677734375
1663861761108671700,6.100671630859375,0.64154052734375,-10.19580078125,-1.8522186279296875
1663861761118559500,6.1105595703125,0.6774444580078125,-10.169464111328125,-1.840240478515625
1663861761128447200,6.120447265625,0.6439208984375,-10.135955810546875,-1.828277587890625
1663861761138335000,6.1303349609375,0.6247711181640625,-10.119186401367188,-1.83544921875
1663861761148222500,6.140222412109375,0.6391448974609375,-10.116790771484375,-1.828277587890625
1663861761158110200,6.150110107421875,0.615203857421875,-10.128768920898438,-1.840240478515625
1663861761167967500,6.159967529296875,0.596038818359375,-10.116790771484375,-1.830657958984375
1663861761177855200,6.169855224609375,0.62237548828125,-10.13116455078125,-1.8330535888671875
1663861761187742700,6.17974267578125,0.648712158203125,-10.123977661132812,-1.8426361083984375
1663861761197630500,6.18963037109375,0.6343536376953125,-10.12158203125,-1.8474273681640625
1663861761207487700,6.19948779296875,0.6247711181640625,-10.126373291015625,-1.8737640380859375
1663861761217344800,6.2093447265625,0.6295623779296875,-10.123977661132812,-1.9001007080078125
1663861761227232500,6.219232421875,0.62237548828125,-10.119186401367188,-1.9288330078125
1663861761237120300,6.229120361328125,0.605621337890625,-10.135955810546875,-1.93121337890625
1663861761247008000,6.239008056640625,0.6032257080078125,-10.155105590820312,-1.9407958984375
1663861761256895700,6.248895751953125,0.596038818359375,-10.155105590820312,-1.945587158203125
1663861761266783200,6.258783203125,0.5888671875,-10.188629150390625,-2.0030517578125
1663861761276640500,6.268640625,0.5768890380859375,-10.191009521484375,-2.041351318359375
1663861761286528300,6.2785283203125,0.5457611083984375,-10.188629150390625,-2.0437469482421875
1663861761296416000,6.288416015625,0.5577392578125,-10.20538330078125,-2.0748748779296875
1663861761306303500,6.298303466796875,0.5122528076171875,-10.20538330078125,-2.05572509765625
1663861761316191200,6.308191162109375,0.490692138671875,-10.200592041015625,-2.0485382080078125
1663861761326079000,6.318078857421875,0.4978790283203125,-10.224533081054688,-2.046142578125
1663861761335966700,6.327966796875,0.526611328125,-10.229324340820312,-2.1083984375
1663861761345854500,6.3378544921875,0.51702880859375,-10.224533081054688,-2.1610565185546875
1663861761355711500,6.34771142578125,0.4954833984375,-10.171859741210938,-2.2233123779296875
1663861761365599200,6.35759912109375,0.4499969482421875,-10.13116455078125,-2.2448577880859375
1663861761375487000,6.367487060546875,0.43084716796875,-10.104827880859375,-2.2448577880859375
1663861761385344300,6.37734423828125,0.469146728515625,-10.112014770507812,-2.189788818359375
1663861761395231700,6.387231689453125,0.4595794677734375,-10.095245361328125,-2.1538848876953125
1663861761405119500,6.397119384765625,0.4715423583984375,-10.126373291015625,-2.0700836181640625
1663861761415007200,6.40700732421875,0.5122528076171875,-10.140731811523438,-2.0222015380859375
1663861761424895000,6.41689501953125,0.5122528076171875,-10.150314331054688,-1.9862823486328125
1663861761434782700,6.42678271484375,0.5122528076171875,-10.169464111328125,-1.9599456787109375
1663861761444670200,6.436670166015625,0.51702880859375,-10.16229248046875,-1.9431915283203125
1663861761454527500,6.446527587890625,0.4715423583984375,-10.14312744140625,-1.98388671875
1663861761464415200,6.456415283203125,0.490692138671875,-10.104827880859375,-2.0174102783203125
1663861761474303000,6.466302978515625,0.50506591796875,-10.12158203125,-2.062896728515625
1663861761484190500,6.4761904296875,0.562530517578125,-10.14312744140625,-2.082061767578125
1663861761494047700,6.4860478515625,0.5649261474609375,-10.157501220703125,-2.120361328125
1663861761503935500,6.495935546875,0.5577392578125,-10.114395141601562,-2.1538848876953125
1663861761513823200,6.5058232421875,0.574493408203125,-10.102432250976562,-2.1802215576171875
1663861761523710700,6.515710693359375,0.5720977783203125,-10.08807373046875,-2.20416259765625
1663861761533598500,6.525598388671875,0.562530517578125,-10.054550170898438,-2.220916748046875
1663861761543455700,6.535455810546875,0.6080169677734375,-10.0784912109375,-2.220916748046875
1663861761553343500,6.545343505859375,0.658294677734375,-10.097640991210938,-2.2065582275390625
1663861761563231000,6.55523095703125,0.6918182373046875,-10.147918701171875,-2.220916748046875
1663861761573118700,6.56511865234375,0.7373046875,-10.179046630859375,-2.252044677734375
1663861761583006500,6.57500634765625,0.754058837890625,-10.191009521484375,-2.2807769775390625
1663861761592894200,6.584894287109375,0.732513427734375,-10.183837890625,-2.3071136474609375
1663861761602751200,6.594751220703125,0.701385498046875,-10.167068481445312,-2.3286590576171875
1663861761612639000,6.604638916015625,0.6654815673828125,-10.116790771484375,-2.314300537109375
1663861761622526700,6.614526611328125,0.6606903076171875,-10.080886840820312,-2.2759857177734375
1663861761632414500,6.62441455078125,0.679840087890625,-10.095245361328125,-2.220916748046875
1663861761642302200,6.63430224609375,0.6989898681640625,-10.085678100585938,-2.14190673828125
1663861761652190000,6.64418994140625,0.7061767578125,-10.119186401367188,-2.1275482177734375
1663861761662077400,6.654077392578125,0.732513427734375,-10.167068481445312,-2.1658477783203125
1663861761671934700,6.663934814453125,0.69659423828125,-10.171859741210938,-2.21612548828125
1663861761681822500,6.673822509765625,0.6606903076171875,-10.159896850585938,-2.27838134765625
1663861761691710200,6.683710205078125,0.6080169677734375,-10.147918701171875,-2.3190765380859375
1663861761701597700,6.69359765625,0.615203857421875,-10.097640991210938,-2.3597869873046875
1663861761711455000,6.703455078125,0.6128082275390625,-10.135955810546875,-2.3502044677734375
1663861761721342700,6.7133427734375,0.5936431884765625,-10.164688110351562,-2.326263427734375
1663861761731230500,6.72323046875,0.5936431884765625,-10.171859741210938,-2.3238677978515625
1663861761741118000,6.733117919921875,0.6032257080078125,-10.183837890625,-2.3334503173828125
1663861761751005700,6.743005615234375,0.596038818359375,-10.181442260742188,-2.3549957275390625
1663861761760893400,6.7528935546875,0.54815673828125,-10.140731811523438,-2.357391357421875
1663861761770750700,6.762750732421875,0.5457611083984375,-10.128768920898438,-2.3861236572265625
1663861761780638200,6.77263818359375,0.5074615478515625,-10.16229248046875,-2.4124603271484375
1663861761790526000,6.78252587890625,0.488311767578125,-10.183837890625,-2.4555511474609375
1663861761800413700,6.79241357421875,0.44281005859375,-10.231719970703125,-2.505828857421875
1663861761810301400,6.802301513671875,0.3805694580078125,-10.265243530273438,-2.5465240478515625
1663861761820189200,6.812189208984375,0.3470458984375,-10.277206420898438,-2.5537109375
1663861761830076700,6.82207666015625,0.4069061279296875,-10.253265380859375,-2.4914703369140625
1663861761839934000,6.831933837890625,0.394927978515625,-10.200592041015625,-2.4603424072265625
1663861761849821700,6.84182177734375,0.2488861083984375,-10.147918701171875,-2.4866790771484375
1663861761859709400,6.85170947265625,0.1004486083984375,-10.202987670898438,-2.5225830078125
1663861761869597200,6.86159716796875,0.04058837890625,-10.241302490234375,-2.56329345703125
1663861761879484700,6.871484619140625,0.0908660888671875,-10.224533081054688,-2.496246337890625
1663861761889342000,6.881342041015625,0.1698760986328125,-10.123977661132812,-2.4292144775390625
1663861761899229700,6.891229736328125,0.098052978515625,-10.044967651367188,-2.3238677978515625
1663861761909086700,6.901086669921875,0.066925048828125,-9.989898681640625,-2.1969757080078125
1663861761918974500,6.910974365234375,0.184234619140625,-9.975540161132812,-2.0748748779296875
1663861761928862200,6.9208623046875,0.308746337890625,-9.985122680664062,-1.9695281982421875
1663861761938750000,6.93075,0.382965087890625,-10.030609130859375,-1.9384002685546875
1663861761948637700,6.9406376953125,0.3542327880859375,-10.073699951171875,-1.976715087890625
1663861761958525200,6.950525146484375,0.3398590087890625,-10.119186401367188,-2.0964202880859375
1663861761968413000,6.960412841796875,0.29437255859375,-10.16229248046875,-2.2592315673828125
1663861761978300700,6.97030078125,0.1267852783203125,-10.1527099609375,-2.4244232177734375
1663861761988188400,6.9801884765625,-0.13897705078125,-10.138351440429688,-2.5537109375
1663861761998076200,6.990076171875,-0.239532470703125,-10.095245361328125,-2.5465240478515625
1663861762007963600,6.999963623046875,-0.1677093505859375,-10.097640991210938,-2.4723052978515625
1663861762017821000,7.009821044921875,0.1172027587890625,-10.123977661132812,-2.3813323974609375
1663861762027708700,7.019708740234375,0.2967681884765625,-10.109619140625,-2.283172607421875
1663861762037596400,7.029596435546875,0.1387481689453125,-10.109619140625,-2.326263427734375
1663861762047484000,7.03948388671875,-0.2012176513671875,-10.104827880859375,-2.462738037109375
1663861762057371600,7.04937158203125,-0.265869140625,-10.14312744140625,-2.5920257568359375
1663861762067229000,7.05922900390625,-0.1269989013671875,-10.20538330078125,-2.6782073974609375
1663861762077116700,7.06911669921875,-0.1533355712890625,-10.229324340820312,-2.6590576171875
1663861762087004200,7.079004150390625,-0.4573974609375,-10.260452270507812,-2.6279296875
1663861762096892000,7.088891845703125,-0.6321868896484375,-10.286788940429688,-2.5537109375
1663861762106779600,7.098779541015625,-0.6561279296875,-10.253265380859375,-2.431610107421875
1663861762116667400,7.10866748046875,-0.4334564208984375,-10.176651000976562,-2.2807769775390625
1663861762126555100,7.11855517578125,-0.2323455810546875,-10.176651000976562,-2.2759857177734375
1663861762136443000,7.12844287109375,-0.2586822509765625,-10.277206420898438,-2.3597869873046875
1663861762146330400,7.138330322265625,-0.598663330078125,-10.404098510742188,-2.4770965576171875
1663861762156187600,7.148187744140625,-1.0248260498046875,-10.49029541015625,-2.5465240478515625
1663861762166075400,7.158075439453125,-1.2786102294921875,-10.492691040039062,-2.4866790771484375
1663861762175963100,7.167963134765625,-1.1876373291015625,-10.4376220703125,-2.3597869873046875
1663861762185850600,7.1778505859375,-0.6704864501953125,-10.291580200195312,-2.137115478515625
1663861762195738400,7.18773828125,-0.4909210205078125,-10.140731811523438,-1.91925048828125
1663861762205626000,7.197626220703125,-0.78302001953125,-10.071304321289062,-1.9384002685546875
1663861762215483400,7.2074833984375,-1.0200347900390625,-9.975540161132812,-2.041351318359375
1663861762225371000,7.217370849609375,-0.97454833984375,-9.89892578125,-2.09881591796875
1663861762235228200,7.227228271484375,-0.6393585205078125,-9.795974731445312,-2.094024658203125
1663861762245146400,7.237146484375,-0.5172576904296875,-9.757659912109375,-2.0581207275390625
1663861762255034000,7.2470341796875,-0.608245849609375,-9.87738037109375,-2.0605010986328125
1663861762264921900,7.256921875,-0.778228759765625,-10.054550170898438,-2.0581207275390625
1663861762274779000,7.26677880859375,-0.7375335693359375,-10.097640991210938,-1.88812255859375
1663861762284666600,7.27666650390625,-0.356842041015625,-10.030609130859375,-1.6463165283203125
1663861762294554400,7.286554443359375,-0.09588623046875,-9.841461181640625,-1.4835052490234375
1663861762304442000,7.296442138671875,-0.1796722412109375,-9.77203369140625,-1.469146728515625
1663861762314329600,7.30632958984375,-0.261077880859375,-9.736114501953125,-1.660675048828125
1663861762324217300,7.31621728515625,-0.20361328125,-9.848648071289062,-1.96234130859375
1663861762334074600,7.32607470703125,0.0501708984375,-10.011459350585938,-2.2879638671875
1663861762343962400,7.33596240234375,0.0741119384765625,-10.133560180664062,-2.5728607177734375
1663861762353819400,7.3458193359375,-0.124603271484375,-10.17425537109375,-2.7955322265625
1663861762363676700,7.3556767578125,-0.3161468505859375,-10.128768920898438,-2.8936920166015625
1663861762373595000,7.365594970703125,-0.2969970703125,-9.99468994140625,-2.927215576171875
1663861762383482600,7.375482666015625,-0.103057861328125,-9.848648071289062,-2.86016845703125
1663861762393370400,7.385370361328125,-0.016876220703125,-9.800765991210938,-2.728485107421875
1663861762403257900,7.3952578125,-0.016876220703125,-9.72894287109375,-2.558502197265625
1663861762413115100,7.405115234375,0.0597381591796875,-9.683441162109375,-2.4292144775390625
1663861762423003000,7.4150029296875,0.2440948486328125,-9.642745971679688,-2.3190765380859375
1663861762432890600,7.424890625,0.2871856689453125,-9.669082641601562,-2.378936767578125
1663861762442778000,7.434778076171875,0.10284423828125,-9.87738037109375,-2.632720947265625
1663861762452665900,7.444665771484375,-0.07672119140625,-10.183837890625,-2.874542236328125
1663861762462523100,7.454523193359375,-0.1796722412109375,-10.463958740234375,-2.97509765625
1663861762472380200,7.464380126953125,-0.2419281005859375,-10.610000610351562,-2.90325927734375
1663861762482268000,7.474267822265625,-0.249114990234375,-10.514236450195312,-2.6566619873046875
1663861762492155600,7.48415576171875,-0.2155914306640625,-10.293960571289062,-2.4292144775390625
1663861762502043400,7.49404345703125,-0.1413726806640625,-10.059341430664062,-2.2927398681640625
1663861762511931100,7.50393115234375,-0.0743255615234375,-9.922866821289062,-2.2400665283203125
1663861762521788200,7.5137880859375,0.0214385986328125,-9.949203491210938,-2.1921844482421875
1663861762531706400,7.523706298828125,0.0262298583984375,-10.028213500976562,-2.1873931884765625
1663861762541594000,7.533593994140625,-0.0886993408203125,-10.12158203125,-2.2496490478515625
1663861762551481900,7.54348193359375,-0.2012176513671875,-10.159896850585938,-2.273590087890625
1663861762561369600,7.55336962890625,-0.2251739501953125,-10.16229248046875,-2.220916748046875
1663861762571257000,7.563257080078125,-0.1269989013671875,-10.12158203125,-2.134735107421875
1663861762581144800,7.573144775390625,-0.112640380859375,-10.102432250976562,-2.0652923583984375
1663861762591002000,7.583002197265625,-0.1150360107421875,-10.116790771484375,-2.0437469482421875
1663861762600920300,7.59292041015625,-0.124603271484375,-10.083282470703125,-2.0222015380859375
1663861762610777600,7.602777587890625,-0.196441650390625,-10.080886840820312,-2.0533294677734375
1663861762620695800,7.61269580078125,-0.229949951171875,-10.104827880859375,-2.0700836181640625
1663861762630583300,7.622583251953125,-0.1485595703125,-10.135955810546875,-2.082061767578125
1663861762640471000,7.632470947265625,-0.06475830078125,-10.171859741210938,-2.0174102783203125
1663861762650358800,7.64235888671875,-0.0719451904296875,-10.207778930664062,-1.9599456787109375
1663861762660216000,7.652216064453125,-0.0719451904296875,-10.222137451171875,-1.9431915283203125
1663861762670073000,7.662072998046875,-0.0312347412109375,-10.222137451171875,-1.924041748046875
1663861762679991300,7.6719912109375,0.0693206787109375,-10.200592041015625,-1.9216461181640625
1663861762689879000,7.681879150390625,0.162689208984375,-10.1527099609375,-1.99346923828125
1663861762699766800,7.691766845703125,0.1243896484375,-10.14312744140625,-2.0964202880859375
1663861762709654500,7.701654541015625,-0.1006622314453125,-10.171859741210938,-2.1754302978515625
1663861762719511600,7.711511474609375,-0.1269989013671875,-10.231719970703125,-2.208953857421875
1663861762729399300,7.7213994140625,0.0789031982421875,-10.229324340820312,-2.1826171875
1663861762739256600,7.731256591796875,0.1339569091796875,-10.21734619140625,-2.1802215576171875
1663861762749174800,7.7411748046875,-0.0144805908203125,-10.191009521484375,-2.1754302978515625
1663861762759062300,7.751062255859375,-0.1198272705078125,-10.234115600585938,-2.146697998046875
1663861762768950000,7.760949951171875,-0.0527801513671875,-10.281997680664062,-2.03656005859375
1663861762778837800,7.770837646484375,0.0741119384765625,-10.327484130859375,-1.892913818359375
1663861762788695000,7.780695068359375,0.150726318359375,-10.34185791015625,-1.7851715087890625
1663861762798582500,7.79058251953125,0.1746673583984375,-10.313125610351562,-1.7301025390625
1663861762808439800,7.800439697265625,0.0645294189453125,-10.277206420898438,-1.7636260986328125
1663861762818327600,7.81032763671875,0.0597381591796875,-10.23651123046875,-1.85699462890625
1663861762828184800,7.820184814453125,0.0166473388671875,-10.202987670898438,-1.8689727783203125
1663861762838103000,7.83010302734375,-0.0743255615234375,-10.188629150390625,-1.871368408203125
1663861762847960000,7.8399599609375,-0.0264434814453125,-10.181442260742188,-1.830657958984375
1663861762857878300,7.849878173828125,0.0166473388671875,-10.212570190429688,-1.75164794921875
1663861762867735600,7.859735595703125,0.0501708984375,-10.238906860351562,-1.744476318359375
1663861762877623300,7.869623291015625,0.023834228515625,-10.260452270507812,-1.7588348388671875
1663861762887480300,7.879480224609375,0.0860748291015625,-10.27001953125,-1.7732086181640625
1663861762897398500,7.8893984375,0.11480712890625,-10.26763916015625,-1.7947540283203125
1663861762907286300,7.899286376953125,-0.00250244140625,-10.246078491210938,-1.8162994384765625
1663861762917174000,7.909174072265625,-0.0623626708984375,-10.234115600585938,-1.8378448486328125
1663861762927061800,7.919061767578125,-0.0048980712890625,-10.246078491210938,-1.80194091796875
1663861762936918800,7.928918701171875,0.1124114990234375,-10.241302490234375,-1.7540435791015625
1663861762946806500,7.938806640625,0.141143798828125,-10.224533081054688,-1.734893798828125
1663861762956694300,7.9486943359375,0.1698760986328125,-10.210174560546875,-1.756439208984375
1663861762966551300,7.95855126953125,0.25128173828125,-10.188629150390625,-1.775604248046875
1663861762976469500,7.968469482421875,0.14593505859375,-10.186233520507812,-1.8043212890625
1663861762986357200,7.978357177734375,0.0381927490234375,-10.210174560546875,-1.8426361083984375
1663861762996245000,7.988244873046875,-0.0312347412109375,-10.19580078125,-1.809112548828125
1663861763006102300,7.998102294921875,0.0812835693359375,-10.198196411132812,-1.734893798828125
1663861763015959300,8.007959228515626,0.2057952880859375,-10.183837890625,-1.6630706787109375
1663861763025847000,8.017846923828126,0.26324462890625,-10.155105590820312,-1.617584228515625
1663861763035765200,8.02776513671875,0.2919769287109375,-10.150314331054688,-1.6271514892578125
1663861763045622500,8.03762255859375,0.246490478515625,-10.140731811523438,-1.651092529296875
1663861763055510300,8.04751025390625,0.1794586181640625,-10.140731811523438,-1.6463165283203125
1663861763065367300,8.0573671875,0.17706298828125,-10.133560180664062,-1.6103973388671875
1663861763075285500,8.067285400390626,0.2752227783203125,-10.140731811523438,-1.56011962890625
1663861763085173200,8.07717333984375,0.3853607177734375,-10.138351440429688,-1.5050506591796875
1663861763095061000,8.08706103515625,0.36859130859375,-10.145523071289062,-1.5074462890625
1663861763104918000,8.09691796875,0.29437255859375,-10.164688110351562,-1.5313873291015625
1663861763114775300,8.106775390625,0.2321319580078125,-10.157501220703125,-1.543365478515625
1663861763124693500,8.116693603515625,0.22015380859375,-10.169464111328125,-1.533782958984375
1663861763134581200,8.126581298828125,0.268035888671875,-10.164688110351562,-1.5481414794921875
1663861763144469000,8.136468994140625,0.33746337890625,-10.200592041015625,-1.5577239990234375
1663861763154356500,8.1463564453125,0.311126708984375,-10.20538330078125,-1.576873779296875
1663861763164244200,8.156244140625,0.256072998046875,-10.207778930664062,-1.5936431884765625
1663861763174132000,8.166132080078125,0.2177581787109375,-10.210174560546875,-1.6008148193359375
1663861763184019700,8.176019775390625,0.3494415283203125,-10.191009521484375,-1.6008148193359375
1663861763193907500,8.185907470703125,0.361419677734375,-10.191009521484375,-1.550537109375
1663861763203795000,8.195794921875,0.2584686279296875,-10.241302490234375,-1.555328369140625
1663861763213682700,8.2056826171875,0.308746337890625,-10.250869750976562,-1.51702880859375
1663861763223540000,8.2155400390625,0.3135223388671875,-10.265243530273438,-1.4667510986328125
1663861763233397000,8.22539697265625,0.311126708984375,-10.296356201171875,-1.4882965087890625
1663861763243284700,8.23528466796875,0.342254638671875,-10.26763916015625,-1.5050506591796875
1663861763253172500,8.24517236328125,0.29437255859375,-10.241302490234375,-1.5313873291015625
1663861763263029800,8.25502978515625,0.26324462890625,-10.241302490234375,-1.5936431884765625
1663861763272917200,8.264917236328126,0.299163818359375,-10.274810791015625,-1.5577239990234375
1663861763282805000,8.274804931640626,0.2488861083984375,-10.255661010742188,-1.5409698486328125
1663861763292692700,8.284692626953126,0.1962127685546875,-10.24847412109375,-1.5409698486328125
1663861763302580500,8.29458056640625,0.256072998046875,-10.258056640625,-1.4787139892578125
1663861763312468200,8.30446826171875,0.277618408203125,-10.296356201171875,-1.363800048828125
1663861763322325200,8.3143251953125,0.299163818359375,-10.286788940429688,-1.2943572998046875
1663861763332213000,8.324212890625,0.28240966796875,-10.260452270507812,-1.248870849609375
1663861763342100700,8.334100830078125,0.311126708984375,-10.258056640625,-1.279998779296875
1663861763351988500,8.343988525390625,0.3853607177734375,-10.23651123046875,-1.3039398193359375
1663861763361876200,8.353876220703125,0.330291748046875,-10.23651123046875,-1.3590087890625
1663861763371733200,8.363733154296876,0.2752227783203125,-10.262847900390625,-1.375762939453125
1663861763381621000,8.37362109375,0.3231048583984375,-10.27001953125,-1.354217529296875
1663861763391508700,8.3835087890625,0.2608489990234375,-10.24847412109375,-1.3518218994140625
1663861763401396500,8.393396484375,0.2656402587890625,-10.26763916015625,-1.34942626953125
1663861763411284000,8.403283935546876,0.3326873779296875,-10.284393310546875,-1.332672119140625
1663861763421171700,8.413171630859376,0.3350830078125,-10.24847412109375,-1.375762939453125
1663861763431059500,8.4230595703125,0.382965087890625,-10.255661010742188,-1.4140777587890625
1663861763440916700,8.432916748046875,0.3350830078125,-10.241302490234375,-1.4308319091796875
1663861763450804200,8.44280419921875,0.2536773681640625,-10.222137451171875,-1.4140777587890625
1663861763460692000,8.45269189453125,0.289581298828125,-10.21734619140625,-1.3590087890625
1663861763470579700,8.462579833984375,0.361419677734375,-10.222137451171875,-1.3135223388671875
1663861763480467500,8.472467529296875,0.3925323486328125,-10.229324340820312,-1.3039398193359375
1663861763490324500,8.482324462890626,0.4452056884765625,-10.250869750976562,-1.342254638671875
1663861763500212200,8.492212158203126,0.4093017578125,-10.255661010742188,-1.34942626953125
1663861763510100000,8.502099853515626,0.4236602783203125,-10.274810791015625,-1.375762939453125
1663861763519987700,8.51198779296875,0.4093017578125,-10.31072998046875,-1.4332275390625
1663861763529844700,8.5218447265625,0.3063507080078125,-10.32269287109375,-1.4451904296875
1663861763539763200,8.53176318359375,0.3063507080078125,-10.308334350585938,-1.481109619140625
1663861763549650700,8.541650634765626,0.382965087890625,-10.24847412109375,-1.4930877685546875
1663861763559538400,8.551538330078126,0.4140777587890625,-10.207778930664062,-1.524200439453125
1663861763569426200,8.56142626953125,0.3470458984375,-10.16229248046875,-1.555328369140625
1663861763579314000,8.57131396484375,0.289581298828125,-10.147918701171875,-1.490692138671875
1663861763589171000,8.5811708984375,0.3350830078125,-10.135955810546875,-1.4308319091796875
1663861763599058700,8.59105859375,0.4188690185546875,-10.179046630859375,-1.3566131591796875
1663861763608946400,8.600946533203125,0.435638427734375,-10.20538330078125,-1.342254638671875
1663861763618834200,8.610834228515625,0.3925323486328125,-10.241302490234375,-1.3709716796875
1663861763628722000,8.620721923828125,0.330291748046875,-10.234115600585938,-1.3997039794921875
1663861763638609400,8.630609375,0.3350830078125,-10.202987670898438,-1.3518218994140625
1663861763648497200,8.6404970703125,0.351837158203125,-10.202987670898438,-1.31829833984375
1663861763658385000,8.650385009765625,0.3494415283203125,-10.238906860351562,-1.344635009765625
1663861763668242200,8.6602421875,0.373382568359375,-10.234115600585938,-1.3614044189453125
1663861763678099200,8.67009912109375,0.4188690185546875,-10.2149658203125,-1.38055419921875
1663861763688017400,8.680017333984376,0.4021148681640625,-10.198196411132812,-1.4140777587890625
1663861763697905200,8.6899052734375,0.3661956787109375,-10.219741821289062,-1.44281005859375
1663861763707793000,8.69979296875,0.3231048583984375,-10.253265380859375,-1.46435546875
1663861763717680600,8.7096806640625,0.2608489990234375,-10.274810791015625,-1.45477294921875
1663861763727568100,8.719568115234376,0.2871856689453125,-10.27960205078125,-1.4523773193359375
1663861763737425400,8.72942529296875,0.36859130859375,-10.250869750976562,-1.4140777587890625
1663861763747282700,8.73928271484375,0.4188690185546875,-10.222137451171875,-1.385345458984375
1663861763757170200,8.749170166015626,0.4093017578125,-10.183837890625,-1.4404144287109375
1663861763767058000,8.759057861328126,0.426055908203125,-10.231719970703125,-1.45477294921875
1663861763776915200,8.768915283203125,0.3542327880859375,-10.250869750976562,-1.459564208984375
1663861763786803000,8.778802978515625,0.320709228515625,-10.23651123046875,-1.502655029296875
1663861763796721200,8.78872119140625,0.320709228515625,-10.241302490234375,-1.481109619140625
1663861763806609000,8.79860888671875,0.351837158203125,-10.2149658203125,-1.4404144287109375
1663861763816496400,8.808496337890626,0.4212646484375,-10.20538330078125,-1.402099609375
1663861763826353700,8.818353759765625,0.4284515380859375,-10.198196411132812,-1.4140777587890625
1663861763836241400,8.828241455078125,0.3853607177734375,-10.2269287109375,-1.4188690185546875
1663861763846129200,8.838129150390625,0.3231048583984375,-10.255661010742188,-1.4451904296875
1663861763856016600,8.8480166015625,0.25128173828125,-10.277206420898438,-1.45477294921875
1663861763865874000,8.8578740234375,0.299163818359375,-10.24847412109375,-1.428436279296875
1663861763875761700,8.86776171875,0.361419677734375,-10.21734619140625,-1.42364501953125
1663861763885649400,8.8776494140625,0.4069061279296875,-10.19580078125,-1.4404144287109375
1663861763895537000,8.887536865234376,0.416473388671875,-10.171859741210938,-1.4835052490234375
1663861763905424600,8.897424560546876,0.4404144287109375,-10.179046630859375,-1.5673065185546875
1663861763915312400,8.9073125,0.36859130859375,-10.198196411132812,-1.5792694091796875
1663861763925200100,8.9172001953125,0.1531219482421875,-10.284393310546875,-1.524200439453125
1663861763935087900,8.927087890625,0.1531219482421875,-10.329879760742188,-1.3925323486328125
1663861763944945000,8.93694482421875,0.3398590087890625,-10.2891845703125,-1.31591796875
1663861763954832600,8.94683251953125,0.47393798828125,-10.202987670898438,-1.34942626953125
1663861763964720400,8.956720458984375,0.4140777587890625,-10.13116455078125,-1.4212493896484375
1663861763974608100,8.966608154296875,0.3661956787109375,-10.147918701171875,-1.4787139892578125
1663861763984465200,8.976465087890626,0.3398590087890625,-10.157501220703125,-1.4882965087890625
1663861763994353000,8.986352783203126,0.3661956787109375,-10.188629150390625,-1.471527099609375
1663861764004240600,8.99624072265625,0.4188690185546875,-10.224533081054688,-1.4667510986328125
1663861764014128400,9.00612841796875,0.3446502685546875,-10.262847900390625,-1.4835052490234375
1663861764024016100,9.01601611328125,0.2656402587890625,-10.291580200195312,-1.46435546875
1663861764033903600,9.025903564453126,0.299163818359375,-10.27001953125,-1.44281005859375
1663861764043791400,9.035791259765626,0.4140777587890625,-10.253265380859375,-1.4044952392578125
1663861764053679000,9.04567919921875,0.361419677734375,-10.193405151367188,-1.438018798828125
1663861764063566800,9.05556689453125,0.3446502685546875,-10.186233520507812,-1.490692138671875
1663861764073454600,9.06545458984375,0.3446502685546875,-10.19580078125,-1.5218048095703125
1663861764083311600,9.0753115234375,0.342254638671875,-10.169464111328125,-1.5194244384765625
1663861764093199400,9.085199462890625,0.351837158203125,-10.181442260742188,-1.469146728515625
1663861764103056600,9.095056640625,0.308746337890625,-10.191009521484375,-1.4523773193359375
1663861764112944000,9.104944091796876,0.31591796875,-10.21734619140625,-1.4332275390625
1663861764122801400,9.114801513671875,0.3446502685546875,-10.2269287109375,-1.3781585693359375
1663861764132719600,9.1247197265625,0.373382568359375,-10.210174560546875,-1.3518218994140625
1663861764142607400,9.134607421875,0.3757781982421875,-10.210174560546875,-1.3302764892578125
1663861764152464400,9.14446435546875,0.3494415283203125,-10.191009521484375,-1.332672119140625
1663861764162352000,9.15435205078125,0.3326873779296875,-10.20538330078125,-1.344635009765625
1663861764172240000,9.164239990234375,0.311126708984375,-10.222137451171875,-1.3781585693359375
1663861764182097200,9.17409716796875,0.2871856689453125,-10.253265380859375,-1.402099609375
1663861764192015400,9.184015380859375,0.308746337890625,-10.27960205078125,-1.4523773193359375
1663861764201902800,9.19390283203125,0.2656402587890625,-10.26763916015625,-1.490692138671875
1663861764211760000,9.203760009765626,0.2345123291015625,-10.26763916015625,-1.502655029296875
1663861764221648000,9.21364794921875,0.2177581787109375,-10.26763916015625,-1.512237548828125
1663861764231535600,9.22353564453125,0.246490478515625,-10.238906860351562,-1.5098419189453125
1663861764241423000,9.233423095703126,0.2656402587890625,-10.200592041015625,-1.449981689453125
1663861764251310800,9.243310791015626,0.289581298828125,-10.19580078125,-1.4260406494140625
1663861764261198600,9.253198486328126,0.2800140380859375,-10.19580078125,-1.38055419921875
1663861764271056000,9.263055908203125,0.277618408203125,-10.222137451171875,-1.342254638671875
1663861764280974000,9.27297412109375,0.303955078125,-10.24847412109375,-1.3470306396484375
1663861764290831000,9.2828310546875,0.3398590087890625,-10.250869750976562,-1.3877410888671875
1663861764300688400,9.2926884765625,0.3494415283203125,-10.262847900390625,-1.4260406494140625
1663861764310606600,9.302606689453125,0.33746337890625,-10.24847412109375,-1.476318359375
1663861764320464000,9.3124638671875,0.3135223388671875,-10.212570190429688,-1.5098419189453125
1663861764330382000,9.322382080078125,0.28240966796875,-10.193405151367188,-1.4835052490234375
1663861764340239000,9.332239013671876,0.29437255859375,-10.21734619140625,-1.428436279296875
1663861764350126800,9.342126953125,0.3494415283203125,-10.241302490234375,-1.3781585693359375
1663861764360014600,9.3520146484375,0.35662841796875,-10.246078491210938,-1.3781585693359375
1663861764369902300,9.36190234375,0.320709228515625,-10.224533081054688,-1.4212493896484375
1663861764379789800,9.371789794921876,0.3326873779296875,-10.250869750976562,-1.4356231689453125
1663861764389677600,9.381677490234376,0.3494415283203125,-10.26763916015625,-1.46435546875
1663861764399565300,9.3915654296875,0.3350830078125,-10.24847412109375,-1.4739227294921875
1663861764409453000,9.401453125,0.3398590087890625,-10.2269287109375,-1.49786376953125
1663861764419340800,9.4113408203125,0.342254638671875,-10.2269287109375,-1.5146331787109375
1663861764429228300,9.421228271484376,0.3709869384765625,-10.231719970703125,-1.5194244384765625
1663861764439085600,9.43108544921875,0.3805694580078125,-10.21734619140625,-1.5098419189453125
1663861764448973300,9.440973388671875,0.35662841796875,-10.20538330078125,-1.524200439453125
1663861764458861000,9.450861083984375,0.308746337890625,-10.2149658203125,-1.5218048095703125
1663861764468748500,9.46074853515625,0.3231048583984375,-10.238906860351562,-1.4835052490234375
1663861764478636300,9.47063623046875,0.3183135986328125,-10.23651123046875,-1.4451904296875
1663861764488524000,9.48052392578125,0.3326873779296875,-10.265243530273438,-1.4260406494140625
1663861764498411800,9.490411865234375,0.3757781982421875,-10.238906860351562,-1.3997039794921875
1663861764508299500,9.500299560546875,0.363800048828125,-10.207778930664062,-1.3614044189453125
1663861764518187300,9.510187255859375,0.330291748046875,-10.186233520507812,-1.385345458984375
1663861764528044300,9.520044189453126,0.32550048828125,-10.219741821289062,-1.406890869140625
1663861764537932000,9.52993212890625,0.330291748046875,-10.21734619140625,-1.4356231689453125
1663861764547819800,9.53981982421875,0.3278961181640625,-10.20538330078125,-1.4451904296875
1663861764557707500,9.54970751953125,0.289581298828125,-10.183837890625,-1.4404144287109375
1663861764567595000,9.559594970703126,0.320709228515625,-10.186233520507812,-1.406890869140625
1663861764577482800,9.569482666015626,0.3350830078125,-10.202987670898438,-1.397308349609375
1663861764587340000,9.579340087890625,0.299163818359375,-10.207778930664062,-1.3949127197265625
1663861764597227800,9.589227783203125,0.2967681884765625,-10.23651123046875,-1.39013671875
1663861764607115300,9.599115234375,0.308746337890625,-10.250869750976562,-1.3949127197265625
1663861764617003000,9.6090029296875,0.3135223388671875,-10.222137451171875,-1.3566131591796875
1663861764626890800,9.618890869140625,0.308746337890625,-10.210174560546875,-1.327880859375
1663861764636778500,9.628778564453125,0.29437255859375,-10.20538330078125,-1.323089599609375
1663861764646635500,9.638635498046876,0.308746337890625,-10.210174560546875,-1.3206939697265625
1663861764656492800,9.648492919921875,0.3135223388671875,-10.224533081054688,-1.33746337890625
1663861764666350000,9.65835009765625,0.299163818359375,-10.238906860351562,-1.354217529296875
1663861764676268300,9.668268310546875,0.299163818359375,-10.255661010742188,-1.344635009765625
1663861764686155800,9.67815576171875,0.2967681884765625,-10.23651123046875,-1.3590087890625
1663861764696043500,9.68804345703125,0.3135223388671875,-10.241302490234375,-1.33746337890625
1663861764705900800,9.69790087890625,0.299163818359375,-10.253265380859375,-1.327880859375
1663861764715788500,9.70778857421875,0.320709228515625,-10.246078491210938,-1.3398590087890625
1663861764725676000,9.717676025390626,0.3231048583984375,-10.255661010742188,-1.342254638671875
1663861764735563800,9.727563720703126,0.31591796875,-10.23651123046875,-1.3206939697265625
1663861764745451500,9.737451416015626,0.330291748046875,-10.224533081054688,-1.3039398193359375
1663861764755308800,9.747308837890625,0.3709869384765625,-10.200592041015625,-1.2991485595703125
1663861764765196500,9.757196533203125,0.3853607177734375,-10.234115600585938,-1.2967529296875
1663861764775053600,9.767053466796876,0.3757781982421875,-10.212570190429688,-1.301544189453125
1663861764784971800,9.7769716796875,0.3925323486328125,-10.193405151367188,-1.2776031494140625
1663861764794859500,9.786859619140625,0.363800048828125,-10.207778930664062,-1.2680206298828125
1663861764804747300,9.796747314453125,0.3398590087890625,-10.20538330078125,-1.24407958984375
1663861764814635000,9.806635009765625,0.3661956787109375,-10.212570190429688,-1.253662109375
1663861764824522500,9.8165224609375,0.36859130859375,-10.21734619140625,-1.248870849609375
1663861764834410200,9.82641015625,0.35662841796875,-10.219741821289062,-1.2416839599609375
1663861764844298000,9.836298095703125,0.3542327880859375,-10.202987670898438,-1.248870849609375
1663861764854185700,9.846185791015625,0.3446502685546875,-10.219741821289062,-1.2728118896484375
1663861764864073500,9.856073486328125,0.3446502685546875,-10.212570190429688,-1.258453369140625
1663861764873930500,9.865930419921876,0.35662841796875,-10.202987670898438,-1.2201385498046875
1663861764883787800,9.875787841796875,0.3278961181640625,-10.207778930664062,-1.165069580078125
1663861764893675500,9.885675537109375,0.3446502685546875,-10.21734619140625,-1.1483154296875
1663861764903563000,9.89556298828125,0.3446502685546875,-10.23651123046875,-1.1459197998046875
1663861764913450800,9.90545068359375,0.3470458984375,-10.243682861328125,-1.1411285400390625
1663861764923338500,9.91533837890625,0.303955078125,-10.255661010742188,-1.153106689453125
1663861764933226200,9.925226318359375,0.2871856689453125,-10.250869750976562,-1.1722564697265625
1663861764943083300,9.935083251953126,0.2967681884765625,-10.255661010742188,-1.15789794921875
1663861764952971000,9.944970947265626,0.2656402587890625,-10.26763916015625,-1.15789794921875
1663861764962858800,9.954858642578126,0.2752227783203125,-10.246078491210938,-1.1459197998046875
1663861764972746500,9.96474658203125,0.28240966796875,-10.246078491210938,-1.1602935791015625
1663861764982603800,9.974603759765625,0.2848052978515625,-10.262847900390625,-1.153106689453125
1663861764992491300,9.9844912109375,0.2871856689453125,-10.241302490234375,-1.15789794921875
1663861765002379000,9.99437890625,0.2536773681640625,-10.250869750976562,-1.153106689453125
1663861765012266800,10.004266845703125,0.25128173828125,-10.265243530273438,-1.153106689453125
1663861765022154500,10.014154541015625,0.268035888671875,-10.281997680664062,-1.1674652099609375
1663861765032011500,10.024011474609376,0.2393035888671875,-10.308334350585938,-1.162689208984375
1663861765041899300,10.033899169921876,0.2967681884765625,-10.298751831054688,-1.1483154296875
1663861765051787000,10.043787109375,0.330291748046875,-10.298751831054688,-1.1459197998046875
1663861765061674800,10.0536748046875,0.3231048583984375,-10.27960205078125,-1.179443359375
1663861765071562500,10.0635625,0.330291748046875,-10.260452270507812,-1.24407958984375
1663861765081419500,10.07341943359375,0.308746337890625,-10.238906860351562,-1.2823944091796875
1663861765091307300,10.083307373046875,0.31591796875,-10.210174560546875,-1.289581298828125
1663861765101195000,10.093195068359375,0.299163818359375,-10.198196411132812,-1.270416259765625
1663861765111082800,10.103082763671875,0.320709228515625,-10.200592041015625,-1.26324462890625
1663861765120970200,10.11297021484375,0.3853607177734375,-10.224533081054688,-1.217742919921875
1663861765130827500,10.12282763671875,0.378173828125,-10.229324340820312,-1.1938018798828125
1663861765140715300,10.13271533203125,0.3661956787109375,-10.246078491210938,-1.184234619140625
1663861765150603000,10.14260302734375,0.4021148681640625,-10.255661010742188,-1.184234619140625
1663861765160490500,10.152490478515626,0.4069061279296875,-10.265243530273438,-1.13873291015625
1663861765170378200,10.162378173828126,0.3877410888671875,-10.262847900390625,-1.1483154296875
1663861765180266000,10.172265869140626,0.36859130859375,-10.277206420898438,-1.1507110595703125
1663861765190123300,10.182123291015625,0.373382568359375,-10.258056640625,-1.1459197998046875
1663861765200010800,10.1920107421875,0.373382568359375,-10.250869750976562,-1.1411285400390625
1663861765209898500,10.2018984375,0.3661956787109375,-10.250869750976562,-1.165069580078125
1663861765219786200,10.2117861328125,0.36859130859375,-10.255661010742188,-1.1818389892578125
1663861765229674000,10.221674072265625,0.3278961181640625,-10.24847412109375,-1.2129669189453125
1663861765239561700,10.231561767578125,0.3183135986328125,-10.229324340820312,-1.248870849609375
1663861765249418800,10.241418701171876,0.330291748046875,-10.23651123046875,-1.253662109375
1663861765259306500,10.251306396484376,0.3350830078125,-10.24847412109375,-1.2249298095703125
1663861765269194200,10.2611943359375,0.35662841796875,-10.234115600585938,-1.1722564697265625
1663861765279082000,10.27108203125,0.3877410888671875,-10.234115600585938,-1.131561279296875
1663861765288969700,10.2809697265625,0.39971923828125,-10.219741821289062,-1.121978759765625
1663861765298857200,10.290857177734376,0.3877410888671875,-10.238906860351562,-1.1339569091796875
1663861765308745000,10.300744873046876,0.3877410888671875,-10.224533081054688,-1.1291656494140625
1663861765318632700,10.3106328125,0.39013671875,-10.234115600585938,-1.143524169921875
1663861765328520400,10.3205205078125,0.4021148681640625,-10.219741821289062,-1.1411285400390625
1663861765338377500,10.33037744140625,0.3973236083984375,-10.23651123046875,-1.1459197998046875
1663861765348265200,10.34026513671875,0.4021148681640625,-10.24847412109375,-1.153106689453125
1663861765358153000,10.350153076171875,0.39013671875,-10.238906860351562,-1.15789794921875
1663861765368010200,10.36001025390625,0.404510498046875,-10.253265380859375,-1.1866302490234375
1663861765377897700,10.369897705078126,0.394927978515625,-10.246078491210938,-1.179443359375
1663861765387785500,10.379785400390626,0.35662841796875,-10.229324340820312,-1.1890106201171875
1663861765397673200,10.389673095703126,0.394927978515625,-10.234115600585938,-1.1985931396484375
1663861765407561000,10.39956103515625,0.4284515380859375,-10.277206420898438,-1.1890106201171875
1663861765417448700,10.40944873046875,0.404510498046875,-10.265243530273438,-1.2033843994140625
1663861765427305700,10.4193056640625,0.4188690185546875,-10.238906860351562,-1.2153472900390625
1663861765437193500,10.429193359375,0.4140777587890625,-10.253265380859375,-1.196197509765625
1663861765447111700,10.439111572265626,0.426055908203125,-10.262847900390625,-1.1985931396484375
1663861765456999400,10.44899951171875,0.416473388671875,-10.255661010742188,-1.2033843994140625
1663861765466887200,10.45888720703125,0.4236602783203125,-10.2891845703125,-1.2081756591796875
1663861765476775000,10.46877490234375,0.4380340576171875,-10.260452270507812,-1.217742919921875
1663861765486662400,10.478662353515626,0.4380340576171875,-10.238906860351562,-1.2201385498046875
1663861765496550100,10.488550048828126,0.4332427978515625,-10.222137451171875,-1.23211669921875
1663861765506438000,10.49843798828125,0.4499969482421875,-10.231719970703125,-1.2153472900390625
1663861765516325600,10.50832568359375,0.46435546875,-10.231719970703125,-1.2033843994140625
1663861765526182700,10.5181826171875,0.4547882080078125,-10.224533081054688,-1.2129669189453125
1663861765536040000,10.5280400390625,0.46435546875,-10.231719970703125,-1.2416839599609375
1663861765545897200,10.537897216796875,0.46435546875,-10.2269287109375,-1.2560577392578125
1663861765555815400,10.5478154296875,0.4547882080078125,-10.238906860351562,-1.236907958984375
1663861765565703000,10.557702880859376,0.469146728515625,-10.238906860351562,-1.248870849609375
1663861765575590700,10.567590576171876,0.4954833984375,-10.24847412109375,-1.258453369140625
1663861765585478400,10.577478515625,0.46435546875,-10.238906860351562,-1.265625
1663861765595335700,10.587335693359375,0.478729248046875,-10.207778930664062,-1.270416259765625
1663861765605223200,10.59722314453125,0.4859161376953125,-10.2149658203125,-1.227325439453125
1663861765615111000,10.60711083984375,0.4835205078125,-10.23651123046875,-1.2153472900390625
1663861765624998700,10.61699853515625,0.488311767578125,-10.229324340820312,-1.205780029296875
1663861765634886400,10.626886474609375,0.4859161376953125,-10.207778930664062,-1.205780029296875
1663861765644774100,10.636774169921875,0.4954833984375,-10.207778930664062,-1.23211669921875
1663861765654661600,10.64666162109375,0.4835205078125,-10.219741821289062,-1.258453369140625
1663861765664549400,10.65654931640625,0.4763336181640625,-10.246078491210938,-1.2871856689453125
1663861765674437000,10.66643701171875,0.46435546875,-10.224533081054688,-1.2823944091796875
1663861765684324900,10.676324951171875,0.4547882080078125,-10.21734619140625,-1.2943572998046875
1663861765694212600,10.686212646484375,0.46435546875,-10.231719970703125,-1.2991485595703125
1663861765704069600,10.696069580078126,0.447601318359375,-10.2269287109375,-1.27520751953125
1663861765713957400,10.705957275390626,0.452392578125,-10.224533081054688,-1.2560577392578125
1663861765723845000,10.71584521484375,0.4547882080078125,-10.219741821289062,-1.24407958984375
1663861765733702400,10.725702392578125,0.4236602783203125,-10.21734619140625,-1.258453369140625
1663861765743590000,10.73558984375,0.4188690185546875,-10.24847412109375,-1.2464752197265625
1663861765753477600,10.7454775390625,0.4188690185546875,-10.26763916015625,-1.2512664794921875
1663861765763335000,10.7553349609375,0.4284515380859375,-10.260452270507812,-1.2201385498046875
1663861765773222700,10.76522265625,0.426055908203125,-10.265243530273438,-1.184234619140625
1663861765783110100,10.775110107421876,0.4093017578125,-10.258056640625,-1.1363525390625
1663861765792998000,10.784997802734376,0.4667510986328125,-10.250869750976562,-1.1507110595703125
1663861765802855200,10.794855224609375,0.4835205078125,-10.24847412109375,-1.1890106201171875
1663861765812773400,10.8047734375,0.457183837890625,-10.212570190429688,-1.24407958984375
1663861765822661000,10.8146611328125,0.426055908203125,-10.224533081054688,-1.3254852294921875
1663861765832548600,10.824548583984376,0.416473388671875,-10.222137451171875,-1.34942626953125
1663861765842436400,10.834436279296876,0.426055908203125,-10.20538330078125,-1.33746337890625
1663861765852324000,10.844323974609376,0.4093017578125,-10.210174560546875,-1.289581298828125
1663861765862181400,10.854181396484375,0.378173828125,-10.19580078125,-1.2345123291015625
1663861765872068900,10.86406884765625,0.426055908203125,-10.2149658203125,-1.20098876953125
1663861765881956600,10.87395654296875,0.4499969482421875,-10.234115600585938,-1.1985931396484375
1663861765891844400,10.88384423828125,0.43084716796875,-10.23651123046875,-1.1985931396484375
1663861765901732000,10.893732177734375,0.416473388671875,-10.246078491210938,-1.227325439453125
1663861765911619800,10.903619873046875,0.4452056884765625,-10.27001953125,-1.2728118896484375
1663861765921507600,10.913507568359375,0.4140777587890625,-10.258056640625,-1.2967529296875
1663861765931364600,10.923364501953126,0.394927978515625,-10.241302490234375,-1.323089599609375
1663861765941252400,10.93325244140625,0.39013671875,-10.24847412109375,-1.3087310791015625
1663861765951140000,10.94314013671875,0.416473388671875,-10.229324340820312,-1.31829833984375
1663861765961027800,10.95302783203125,0.426055908203125,-10.222137451171875,-1.342254638671875
1663861765970915300,10.962915283203126,0.3877410888671875,-10.222137451171875,-1.354217529296875
1663861765980803000,10.972802978515626,0.4069061279296875,-10.20538330078125,-1.3398590087890625
1663861765990660400,10.982660400390625,0.404510498046875,-10.200592041015625,-1.3398590087890625
1663861766000548000,10.992548095703125,0.36859130859375,-10.212570190429688,-1.311126708984375
1663861766010405000,11.002405029296876,0.373382568359375,-10.224533081054688,-1.27520751953125
1663861766020292900,11.01229296875,0.4188690185546875,-10.2269287109375,-1.2512664794921875
1663861766030150100,11.022150146484375,0.4116973876953125,-10.2269287109375,-1.2345123291015625
1663861766040068400,11.032068359375,0.4021148681640625,-10.241302490234375,-1.253662109375
1663861766049925400,11.04192529296875,0.3925323486328125,-10.250869750976562,-1.270416259765625
1663861766059782700,11.05178271484375,0.382965087890625,-10.250869750976562,-1.301544189453125
1663861766069700900,11.061700927734375,0.382965087890625,-10.24847412109375,-1.34942626953125
1663861766079558000,11.071557861328126,0.3542327880859375,-10.21734619140625,-1.3254852294921875
1663861766089476000,11.08147607421875,0.373382568359375,-10.207778930664062,-1.3302764892578125
1663861766099363800,11.09136376953125,0.3925323486328125,-10.222137451171875,-1.3039398193359375
1663861766109251600,11.10125146484375,0.3877410888671875,-10.234115600585938,-1.27520751953125
1663861766119139300,11.111139404296875,0.39971923828125,-10.238906860351562,-1.2608489990234375
1663861766128996400,11.120996337890626,0.3925323486328125,-10.231719970703125,-1.2776031494140625
1663861766138853600,11.130853515625,0.3877410888671875,-10.2269287109375,-1.2776031494140625
1663861766148741400,11.140741455078125,0.3590240478515625,-10.253265380859375,-1.2512664794921875
1663861766158659600,11.15065966796875,0.382965087890625,-10.246078491210938,-1.2967529296875
1663861766168547300,11.16054736328125,0.3757781982421875,-10.238906860351562,-1.3039398193359375
1663861766178435000,11.17043505859375,0.361419677734375,-10.2269287109375,-1.31591796875
1663861766188322600,11.180322509765626,0.3494415283203125,-10.2269287109375,-1.3039398193359375
1663861766198210300,11.190210205078126,0.342254638671875,-10.23651123046875,-1.289581298828125
1663861766208098000,11.20009814453125,0.32550048828125,-10.24847412109375,-1.2871856689453125
1663861766217985800,11.20998583984375,0.361419677734375,-10.23651123046875,-1.279998779296875
1663861766227842800,11.2198427734375,0.373382568359375,-10.229324340820312,-1.2871856689453125
1663861766237730600,11.22973046875,0.3590240478515625,-10.246078491210938,-1.248870849609375
1663861766247618300,11.239618408203125,0.382965087890625,-10.23651123046875,-1.2680206298828125
1663861766257506000,11.249506103515625,0.3853607177734375,-10.255661010742188,-1.26324462890625
1663861766267393800,11.259393798828125,0.3661956787109375,-10.246078491210938,-1.289581298828125
1663861766277281300,11.26928125,0.39013671875,-10.238906860351562,-1.3087310791015625
1663861766287169000,11.2791689453125,0.36859130859375,-10.229324340820312,-1.301544189453125
1663861766297026300,11.2890263671875,0.3590240478515625,-10.229324340820312,-1.2967529296875
1663861766306914000,11.2989140625,0.3757781982421875,-10.255661010742188,-1.2967529296875
1663861766316801500,11.308801513671876,0.3853607177734375,-10.250869750976562,-1.301544189453125
1663861766326658800,11.318658935546875,0.4021148681640625,-10.241302490234375,-1.30633544921875
1663861766336546600,11.328546630859375,0.4116973876953125,-10.241302490234375,-1.301544189453125
1663861766346434300,11.338434326171875,0.4188690185546875,-10.2269287109375,-1.332672119140625
1663861766356291300,11.348291259765626,0.4236602783203125,-10.23651123046875,-1.3614044189453125
1663861766366148600,11.358148681640625,0.4069061279296875,-10.219741821289062,-1.4044952392578125
1663861766376066800,11.36806689453125,0.4140777587890625,-10.212570190429688,-1.4092864990234375
1663861766385923800,11.377923828125,0.4380340576171875,-10.181442260742188,-1.39013671875
1663861766395811600,11.3878115234375,0.416473388671875,-10.171859741210938,-1.3709716796875
1663861766405729800,11.397729736328126,0.3661956787109375,-10.198196411132812,-1.3661956787109375
1663861766415617500,11.407617431640626,0.36859130859375,-10.21734619140625,-1.3590087890625
1663861766425474800,11.417474853515625,0.3709869384765625,-10.23651123046875,-1.3350677490234375
1663861766435331800,11.427331787109376,0.3805694580078125,-10.253265380859375,-1.3566131591796875
1663861766445250000,11.43725,0.3805694580078125,-10.24847412109375,-1.3661956787109375
1663861766455107300,11.447107421875,0.378173828125,-10.224533081054688,-1.3661956787109375
1663861766464995000,11.4569951171875,0.4021148681640625,-10.243682861328125,-1.363800048828125
1663861766474852000,11.46685205078125,0.373382568359375,-10.234115600585938,-1.363800048828125
1663861766484739800,11.47673974609375,0.3853607177734375,-10.23651123046875,-1.3590087890625
1663861766494658000,11.486657958984376,0.3542327880859375,-10.234115600585938,-1.3614044189453125
1663861766504545800,11.4965458984375,0.3183135986328125,-10.234115600585938,-1.363800048828125
1663861766514433500,11.50643359375,0.3278961181640625,-10.246078491210938,-1.3470306396484375
1663861766524290600,11.51629052734375,0.378173828125,-10.246078491210938,-1.3781585693359375
1663861766534178300,11.52617822265625,0.4140777587890625,-10.258056640625,-1.4044952392578125
1663861766544066000,11.536066162109375,0.3973236083984375,-10.234115600585938,-1.3877410888671875
1663861766553953800,11.545953857421875,0.4116973876953125,-10.253265380859375,-1.4044952392578125
1663861766563841500,11.555841552734375,0.3805694580078125,-10.246078491210938,-1.459564208984375
1663861766573729000,11.56572900390625,0.361419677734375,-10.238906860351562,-1.4739227294921875
1663861766583586300,11.57558642578125,0.36859130859375,-10.212570190429688,-1.449981689453125
1663861766593474000,11.58547412109375,0.35662841796875,-10.2149658203125,-1.4332275390625
1663861766603361800,11.59536181640625,0.361419677734375,-10.21734619140625,-1.3709716796875
1663861766613249300,11.605249267578126,0.3590240478515625,-10.212570190429688,-1.3302764892578125
1663861766623137000,11.615136962890626,0.394927978515625,-10.231719970703125,-1.3087310791015625
1663861766633024800,11.625024658203126,0.394927978515625,-10.224533081054688,-1.3087310791015625
1663861766642912500,11.63491259765625,0.382965087890625,-10.222137451171875,-1.31591796875
1663861766652800300,11.64480029296875,0.382965087890625,-10.198196411132812,-1.3470306396484375
1663861766662688000,11.65468798828125,0.35662841796875,-10.191009521484375,-1.3709716796875
1663861766672575500,11.664575439453126,0.330291748046875,-10.20538330078125,-1.397308349609375
1663861766682463200,11.674463134765626,0.3278961181640625,-10.229324340820312,-1.4308319091796875
1663861766692351000,11.68435107421875,0.3470458984375,-10.224533081054688,-1.4092864990234375
1663861766702208300,11.694208251953125,0.3757781982421875,-10.2269287109375,-1.416473388671875
1663861766712095700,11.704095703125,0.3805694580078125,-10.207778930664062,-1.3877410888671875
1663861766721983500,11.7139833984375,0.3590240478515625,-10.19580078125,-1.3709716796875
1663861766731871200,11.723871337890625,0.351837158203125,-10.202987670898438,-1.3877410888671875
1663861766741759000,11.733759033203125,0.308746337890625,-10.202987670898438,-1.3877410888671875
1663861766751646700,11.743646728515625,0.3063507080078125,-10.21734619140625,-1.3661956787109375
1663861766761503700,11.753503662109376,0.3231048583984375,-10.222137451171875,-1.34942626953125
1663861766771391500,11.7633916015625,0.3470458984375,-10.231719970703125,-1.33746337890625
1663861766781279200,11.773279296875,0.3398590087890625,-10.23651123046875,-1.301544189453125
1663861766791167000,11.7831669921875,0.3231048583984375,-10.24847412109375,-1.3398590087890625
1663861766801054500,11.793054443359376,0.3278961181640625,-10.224533081054688,-1.354217529296875
1663861766810942200,11.802942138671876,0.3183135986328125,-10.231719970703125,-1.3781585693359375
1663861766820799500,11.812799560546875,0.2967681884765625,-10.234115600585938,-1.385345458984375
1663861766830687200,11.822687255859375,0.28240966796875,-10.23651123046875,-1.375762939453125
1663861766840574700,11.83257470703125,0.308746337890625,-10.219741821289062,-1.375762939453125
1663861766850432000,11.842431884765626,0.3135223388671875,-10.23651123046875,-1.3614044189453125
1663861766860319700,11.85231982421875,0.3231048583984375,-10.231719970703125,-1.3709716796875
1663861766870176800,11.8621767578125,0.3350830078125,-10.219741821289062,-1.375762939453125
1663861766880095200,11.87209521484375,0.31591796875,-10.224533081054688,-1.397308349609375
1663861766889952300,11.8819521484375,0.303955078125,-10.202987670898438,-1.402099609375
1663861766899840000,11.891840087890625,0.2800140380859375,-10.219741821289062,-1.3997039794921875
1663861766909727700,11.901727783203125,0.2871856689453125,-10.231719970703125,-1.3877410888671875
1663861766919584800,11.911584716796876,0.3183135986328125,-10.229324340820312,-1.363800048828125
1663861766929472500,11.921472412109376,0.320709228515625,-10.23651123046875,-1.3302764892578125
1663861766939360300,11.9313603515625,0.3446502685546875,-10.241302490234375,-1.3254852294921875
1663861766949217500,11.941217529296875,0.299163818359375,-10.224533081054688,-1.3518218994140625
1663861766959105000,11.95110498046875,0.3494415283203125,-10.210174560546875,-1.3781585693359375
1663861766969023200,11.961023193359376,0.3709869384765625,-10.202987670898438,-1.3566131591796875
1663861766978880500,11.970880615234375,0.32550048828125,-10.198196411132812,-1.3949127197265625
1663861766988798700,11.980798828125,0.3135223388671875,-10.200592041015625,-1.428436279296875
1663861766998686500,11.9906865234375,0.308746337890625,-10.234115600585938,-1.42364501953125
1663861767008574200,12.00057421875,0.3326873779296875,-10.207778930664062,-1.402099609375
1663861767018461700,12.010461669921876,0.320709228515625,-10.2149658203125,-1.4140777587890625
1663861767028349400,12.020349365234376,0.308746337890625,-10.231719970703125,-1.406890869140625
1663861767038237200,12.0302373046875,0.3350830078125,-10.23651123046875,-1.4260406494140625
1663861767048125000,12.040125,0.330291748046875,-10.241302490234375,-1.4404144287109375
1663861767057982000,12.04998193359375,0.351837158203125,-10.258056640625,-1.4404144287109375
1663861767067869700,12.05986962890625,0.3590240478515625,-10.234115600585938,-1.459564208984375
1663861767077757400,12.06975732421875,0.351837158203125,-10.231719970703125,-1.459564208984375
1663861767087645200,12.079645263671875,0.33746337890625,-10.224533081054688,-1.45477294921875
1663861767097533000,12.089532958984375,0.3326873779296875,-10.219741821289062,-1.4523773193359375
1663861767107420700,12.099420654296875,0.3661956787109375,-10.219741821289062,-1.4475860595703125
1663861767117277700,12.109277587890626,0.342254638671875,-10.19580078125,-1.459564208984375
1663861767127165400,12.11916552734375,0.351837158203125,-10.176651000976562,-1.4835052490234375
1663861767137053200,12.12905322265625,0.3470458984375,-10.191009521484375,-1.476318359375
1663861767146941000,12.13894091796875,0.3661956787109375,-10.19580078125,-1.490692138671875
1663861767156828400,12.148828369140626,0.3231048583984375,-10.198196411132812,-1.4787139892578125
1663861767166716200,12.158716064453126,0.32550048828125,-10.186233520507812,-1.45477294921875
1663861767176573400,12.168573486328125,0.3063507080078125,-10.207778930664062,-1.406890869140625
1663861767186430500,12.178430419921876,0.31591796875,-10.255661010742188,-1.38055419921875
1663861767196318200,12.188318115234376,0.3542327880859375,-10.23651123046875,-1.38055419921875
1663861767206206000,12.1982060546875,0.3757781982421875,-10.23651123046875,-1.3733673095703125
1663861767216093700,12.20809375,0.363800048828125,-10.234115600585938,-1.41168212890625
1663861767225981400,12.2179814453125,0.3470458984375,-10.200592041015625,-1.449981689453125
1663861767235869000,12.227868896484376,0.3350830078125,-10.193405151367188,-1.4930877685546875
1663861767245756700,12.237756591796876,0.3326873779296875,-10.198196411132812,-1.502655029296875
1663861767255644400,12.24764453125,0.3015594482421875,-10.20538330078125,-1.4787139892578125
1663861767265532200,12.2575322265625,0.2967681884765625,-10.224533081054688,-1.4787139892578125
1663861767275420000,12.267419921875,0.308746337890625,-10.231719970703125,-1.449981689453125
1663861767285307400,12.277307373046876,0.3135223388671875,-10.231719970703125,-1.3877410888671875
1663861767295164700,12.28716455078125,0.351837158203125,-10.250869750976562,-1.3733673095703125
1663861767305052400,12.297052490234375,0.39971923828125,-10.23651123046875,-1.3733673095703125
1663861767314909400,12.306909423828126,0.3973236083984375,-10.234115600585938,-1.4188690185546875
1663861767324797200,12.316797119140626,0.378173828125,-10.219741821289062,-1.459564208984375
1663861767334685000,12.326684814453126,0.382965087890625,-10.193405151367188,-1.4835052490234375
1663861767344572700,12.33657275390625,0.3709869384765625,-10.188629150390625,-1.4835052490234375
1663861767354460400,12.34646044921875,0.3398590087890625,-10.188629150390625,-1.469146728515625
1663861767364317400,12.3563173828125,0.3446502685546875,-10.179046630859375,-1.4451904296875
1663861767374205200,12.366205078125,0.3494415283203125,-10.186233520507812,-1.4404144287109375
1663861767384093000,12.376093017578125,0.36859130859375,-10.222137451171875,-1.4188690185546875
1663861767393950200,12.3859501953125,0.4069061279296875,-10.246078491210938,-1.4356231689453125
1663861767403868400,12.395868408203125,0.382965087890625,-10.253265380859375,-1.4882965087890625
1663861767413756000,12.405755859375,0.4069061279296875,-10.255661010742188,-1.512237548828125
1663861767423643600,12.4156435546875,0.404510498046875,-10.253265380859375,-1.51702880859375
1663861767433501000,12.4255009765625,0.394927978515625,-10.243682861328125,-1.5313873291015625
1663861767443388700,12.435388671875,0.39013671875,-10.224533081054688,-1.5409698486328125
1663861767453276200,12.445276123046876,0.3925323486328125,-10.234115600585938,-1.543365478515625
1663861767463164000,12.455163818359376,0.3925323486328125,-10.222137451171875,-1.524200439453125
1663861767473051600,12.4650517578125,0.39971923828125,-10.186233520507812,-1.51702880859375
1663861767482909000,12.474908935546875,0.382965087890625,-10.191009521484375,-1.5361785888671875
1663861767492796400,12.48479638671875,0.3661956787109375,-10.200592041015625,-1.51702880859375
1663861767502684200,12.49468408203125,0.3877410888671875,-10.210174560546875,-1.52899169921875
1663861767512572000,12.504572021484375,0.378173828125,-10.229324340820312,-1.502655029296875
1663861767522459600,12.514459716796875,0.33746337890625,-10.222137451171875,-1.481109619140625
1663861767532347400,12.524347412109375,0.378173828125,-10.20538330078125,-1.490692138671875
1663861767542235000,12.53423486328125,0.373382568359375,-10.222137451171875,-1.469146728515625
1663861767552092200,12.544092041015626,0.3661956787109375,-10.229324340820312,-1.4451904296875
1663861767561949400,12.553949462890625,0.39971923828125,-10.210174560546875,-1.459564208984375
1663861767571867600,12.56386767578125,0.3973236083984375,-10.212570190429688,-1.490692138671875
1663861767581724700,12.573724609375,0.3590240478515625,-10.207778930664062,-1.49786376953125
1663861767591612400,12.5836123046875,0.3661956787109375,-10.188629150390625,-1.476318359375
1663861767601500200,12.593500244140625,0.3661956787109375,-10.193405151367188,-1.4667510986328125
1663861767611388000,12.603387939453125,0.351837158203125,-10.193405151367188,-1.46435546875
1663861767621275600,12.613275634765625,0.361419677734375,-10.20538330078125,-1.4835052490234375
1663861767631132700,12.623132568359376,0.35662841796875,-10.2149658203125,-1.481109619140625
1663861767641051000,12.63305078125,0.3446502685546875,-10.219741821289062,-1.481109619140625
1663861767650938600,12.642938720703125,0.32550048828125,-10.200592041015625,-1.4835052490234375
1663861767660826400,12.652826416015625,0.3326873779296875,-10.210174560546875,-1.476318359375
1663861767670731800,12.662731689453125,0.3350830078125,-10.2149658203125,-1.4667510986328125
1663861767680619500,12.67261962890625,0.3470458984375,-10.231719970703125,-1.44281005859375
1663861767690507000,12.682507080078125,0.373382568359375,-10.238906860351562,-1.4332275390625
1663861767700394800,12.692394775390625,0.3661956787109375,-10.274810791015625,-1.4667510986328125
1663861767710252000,12.702251953125,0.3350830078125,-10.238906860351562,-1.4667510986328125
1663861767720139800,12.712139892578126,0.3805694580078125,-10.243682861328125,-1.4882965087890625
1663861767730027300,12.72202734375,0.363800048828125,-10.23651123046875,-1.5050506591796875
1663861767739915000,12.7319150390625,0.3877410888671875,-10.219741821289062,-1.5050506591796875
1663861767749772300,12.741772216796875,0.3973236083984375,-10.207778930664062,-1.5098419189453125
1663861767759660000,12.751659912109375,0.4188690185546875,-10.193405151367188,-1.5146331787109375
1663861767769517000,12.76151708984375,0.3973236083984375,-10.20538330078125,-1.5218048095703125
1663861767779404800,12.77140478515625,0.4021148681640625,-10.2149658203125,-1.4954833984375
1663861767789262000,12.781261962890625,0.4140777587890625,-10.212570190429688,-1.49786376953125
1663861767799180300,12.79118017578125,0.4236602783203125,-10.222137451171875,-1.5098419189453125
1663861767809037300,12.801037353515625,0.4284515380859375,-10.21734619140625,-1.5098419189453125
1663861767818955500,12.81095556640625,0.4188690185546875,-10.2269287109375,-1.502655029296875
1663861767828812800,12.820812744140625,0.4140777587890625,-10.207778930664062,-1.4954833984375
1663861767838670000,12.830670166015626,0.39971923828125,-10.2269287109375,-1.481109619140625
1663861767848588300,12.84058837890625,0.4499969482421875,-10.231719970703125,-1.4954833984375
1663861767858445300,12.8504453125,0.404510498046875,-10.210174560546875,-1.5098419189453125
