time,seconds_elapsed,z,y,x
1663861813871202800,0.253202880859375,1.7830867767333984,-1.94512939453125,-1.898593544960022
1663861813881029600,0.263029541015625,1.8353509902954102,-1.234023094177246,-1.8943233489990234
1663861813890917000,0.272917236328125,2.792353630065918,-0.5630414485931396,-2.1481270790100098
1663861813900774400,0.2827744140625,0.11161327362060547,-0.33892929553985596,-1.998365879058838
1663861813910631700,0.292631591796875,-2.540325164794922,-0.30959296226501465,-1.188107967376709
1663861813920488700,0.30248876953125,-1.021291732788086,-0.03125274181365967,-0.14495694637298584
1663861813930407000,0.312406982421875,0.7220001220703125,0.33073973655700684,0.32637810707092285
1663861813940264200,0.32226416015625,1.767120361328125,0.19846820831298828,0.21682393550872803
1663861813950182400,0.332182373046875,2.362955093383789,-0.6205655336380005,0.05416971445083618
1663861813960070100,0.342070068359375,2.4286460876464844,-1.305543303489685,-0.09380877017974854
1663861813969957600,0.35195751953125,1.7898797988891602,-1.4689381122589111,0.20695370435714722
1663861813979845400,0.361845458984375,0.43906307220458984,-0.769951343536377,0.8863427639007568
1663861813989702700,0.37170263671875,-0.5067548751831055,0.2608233690261841,0.5163394212722778
1663861813999559700,0.3815595703125,-0.13023948669433594,0.6593551635742188,-1.6098881959915161
1663861814009478000,0.391477783203125,0.3039884567260742,-0.0733635425567627,-4.019964694976807
1663861814019365600,0.40136572265625,0.2993888854980469,-1.4454164505004883,-3.200115919113159
1663861814029253400,0.41125341796875,1.0910749435424805,-1.8025180101394653,-1.1108622550964355
1663861814039141000,0.42114111328125,2.3573389053344727,-0.822641134262085,-0.19747290015220642
1663861814049028900,0.43102880859375,1.4354324340820312,0.5900412797927856,0.5260295867919922
1663861814058916600,0.44091650390625,-0.6884441375732422,1.9051704406738281,1.6106411218643188
1663861814068804000,0.45080419921875,-1.9680118560791016,2.022000551223755,1.9977226257324219
1663861814078691800,0.46069189453125,-1.384378433227539,0.9335036277770996,0.7940332889556885
1663861814088549000,0.470549072265625,0.7602462768554688,-0.39392709732055664,-0.37649956345558167
1663861814098436900,0.480436767578125,0.6934471130371094,-1.553919792175293,-0.9446192383766174
1663861814108324400,0.490324462890625,0.2891559600830078,-1.7857623100280762,-0.36665117740631104
1663861814118212000,0.500212158203125,-0.15828227996826172,-0.8572933673858643,0.5765910148620605
1663861814128099800,0.510099853515625,-0.9760017395019531,0.1994001865386963,0.855337917804718
1663861814137987600,0.519987548828125,-1.2904529571533203,1.039111614227295,0.44769179821014404
1663861814147844600,0.5298447265625,-0.2587404251098633,1.041316270828247,0.20730644464492798
1663861814157732400,0.539732421875,1.0691633224487305,0.35291290283203125,-0.3554821014404297
1663861814167620000,0.5496201171875,1.0577278137207031,-0.46994805335998535,-1.0662919282913208
1663861814177507800,0.5595078125,0.6889286041259766,-0.9916510581970215,-0.8720183372497559
1663861814187395600,0.5693955078125,0.33171939849853516,-0.5039613246917725,0.020359814167022705
1663861814197283000,0.579282958984375,-0.5140304565429688,0.15043997764587402,0.4420570135116577
1663861814207140400,0.589140380859375,-0.678706169128418,0.3240799903869629,0.06573790311813354
1663861814217028000,0.599028076171875,0.10492324829101562,0.1284792423248291,-1.2020175457000732
1663861814226885000,0.608885009765625,0.5057859420776367,0.11109375953674316,-2.1258621215820312
1663861814236772900,0.61877294921875,0.6512718200683594,-0.041585445404052734,-2.0243897438049316
1663861814246630100,0.628630126953125,0.4193153381347656,-0.3410377502441406,-1.4608354568481445
1663861814256548400,0.63854833984375,0.2069530487060547,0.012831449508666992,-1.129957675933838
1663861814266405400,0.6484052734375,0.09892559051513672,0.28926563262939453,-1.0851103067398071
1663861814276293000,0.658293212890625,0.31542301177978516,-0.3345680236816406,-0.9788339138031006
1663861814286180900,0.668180908203125,0.1397418975830078,-0.41068506240844727,-0.6099385023117065
1663861814296068600,0.678068603515625,-0.04717540740966797,0.24498510360717773,-0.15615516901016235
1663861814305956400,0.687956298828125,-0.1643362045288086,0.37744569778442383,0.18174850940704346
1663861814315844000,0.697843994140625,0.07085418701171875,0.09873437881469727,0.23302841186523438
1663861814325731600,0.707731689453125,-0.010448455810546875,-0.25604748725891113,-0.20738494396209717
1663861814335619300,0.717619384765625,0.3707389831542969,-0.7031056880950928,-0.8637145757675171
1663861814345507000,0.727507080078125,1.38629150390625,-1.598371982574463,-1.5607173442840576
1663861814355394800,0.737394775390625,1.6396799087524414,-2.1771512031555176,-1.6555739641189575
1663861814365282600,0.747282470703125,1.6878290176391602,-1.9222180843353271,-0.9929382801055908
1663861814375170000,0.757170166015625,2.030000686645508,-1.4704585075378418,0.040523648262023926
1663861814385057800,0.767057861328125,1.0601482391357422,-1.263986587524414,0.8185727596282959
1663861814394915000,0.7769150390625,-0.7588338851928711,-1.2462267875671387,1.344853162765503
1663861814404802800,0.786802734375,-2.76352596282959,-1.517679214477539,1.2246588468551636
1663861814414690300,0.796690185546875,-3.791269302368164,-2.3405001163482666,1.3461183309555054
1663861814424578000,0.806578125,-3.9289140701293945,-3.3292758464813232,1.346287488937378
1663861814434465800,0.8164658203125,-4.005022048950195,-3.9043166637420654,0.9676403999328613
1663861814444324600,0.82632470703125,-4.190781593322754,-4.078704833984375,0.21801114082336426
1663861814454212400,0.83621240234375,-4.369627952575684,-3.779376983642578,-0.23206233978271484
1663861814464100000,0.84610009765625,-4.773632049560547,-3.3736510276794434,-0.5898866653442383
1663861814473987800,0.85598779296875,-5.662822723388672,-3.0175673961639404,-0.706946849822998
1663861814483875600,0.86587548828125,-7.077445030212402,-2.7236578464508057,-0.2880423069000244
1663861814493763000,0.87576318359375,-7.597689151763916,-2.502187728881836,-0.7295346260070801
1663861814503650800,0.88565087890625,-5.817347526550293,-2.7372069358825684,-2.7642784118652344
1663861814513538600,0.89553857421875,-3.555509567260742,-4.111445426940918,-5.248081207275391
1663861814523395800,0.905395751953125,-2.476905345916748,-5.906306266784668,-6.893559455871582
1663861814533283600,0.91528369140625,-3.6310267448425293,-6.6168999671936035,-7.3596625328063965
1663861814543171000,0.925171142578125,-6.103422164916992,-6.88787317276001,-6.917006492614746
1663861814553058800,0.935058837890625,-7.533221244812012,-7.497081279754639,-6.141331195831299
1663861814562946600,0.944946533203125,-6.376471042633057,-8.137060165405273,-4.7493977546691895
1663861814572834300,0.954834228515625,-3.5859622955322266,-7.904496669769287,-3.181380271911621
1663861814582691300,0.96469140625,-1.6600728034973145,-7.179749965667725,-2.506948947906494
1663861814592579000,0.9745791015625,-0.8615942001342773,-6.224552154541016,-1.24088716506958
1663861814602466800,0.984466796875,-0.6400103569030762,-5.8439226150512695,-0.7473397254943848
1663861814612354600,0.9943544921875,0.17551517486572266,-6.824105262756348,-0.4931907653808594
1663861814622242300,1.0042421875,1.582183599472046,-7.778741836547852,2.62347412109375
1663861814632129800,1.0141298828125,4.066919326782227,-6.632584571838379,7.327924728393555
1663861814641987000,1.023987060546875,6.213052749633789,-3.8382081985473633,10.15269947052002
1663861814651874800,1.033874755859375,6.605356216430664,-1.7365946769714355,10.581006050109863
1663861814661762600,1.043762451171875,4.930444717407227,-1.1489076614379883,9.665644645690918
1663861814671650000,1.053650146484375,2.6897177696228027,-1.504472017288208,7.409718036651611
1663861814681537800,1.063537841796875,1.8697707653045654,-1.8454320430755615,5.705663204193115
1663861814691425500,1.073425537109375,3.52740478515625,-1.5548145771026611,7.809185981750488
1663861814701313300,1.083313232421875,4.310737609863281,-0.20360326766967773,10.827062606811523
1663861814711170300,1.09317041015625,3.283963918685913,1.0802192687988281,13.428616523742676
1663861814721058000,1.10305810546875,2.778491497039795,2.1987223625183105,15.073875427246094
1663861814730915300,1.112915283203125,3.1835007667541504,3.0957484245300293,14.700361251831055
1663861814740803000,1.122802978515625,3.018144369125366,3.345149040222168,12.694488525390625
1663861814750690600,1.132690673828125,1.8923516273498535,3.1118640899658203,10.64208698272705
1663861814760578300,1.142578369140625,0.5656108856201172,3.4295668601989746,9.531492233276367
1663861814770466000,1.152466064453125,-0.4259223937988281,4.620552062988281,10.116605758666992
1663861814780353800,1.162353759765625,-2.1009061336517334,5.450284481048584,9.968860626220703
1663861814790211000,1.172211181640625,-2.925359010696411,5.557393550872803,8.615493774414062
1663861814800098600,1.1820986328125,-3.0290958881378174,5.604539394378662,6.561105251312256
1663861814809986300,1.191986328125,-3.818000316619873,5.385372638702393,3.9713268280029297
1663861814819874000,1.2018740234375,-5.326096057891846,4.620743274688721,1.5213861465454102
1663861814829761800,1.21176171875,-5.467891216278076,3.899932384490967,0.0749521255493164
1663861814839649500,1.2216494140625,-6.441256999969482,3.9655539989471436,1.6802968978881836
1663861814849537000,1.231537109375,-15.513313293457031,4.006947994232178,5.4425859451293945
1663861814859424800,1.2414248046875,-13.993712425231934,1.1484043598175049,3.990640640258789
1663861814869312500,1.2513125,-9.621376037597656,-0.17031550407409668,0.6400728225708008
1663861814879200300,1.2612001953125,-7.801260948181152,0.6210980415344238,0.25123119354248047
1663861814889057300,1.271057373046875,-6.978273391723633,0.3629181385040283,-0.8436908721923828
1663861814898945000,1.280945068359375,-5.489205837249756,-0.446918249130249,-2.1190738677978516
1663861814908832800,1.290832763671875,-8.471794128417969,1.3272135257720947,-5.539885520935059
1663861814918720500,1.300720458984375,-12.345355033874512,4.039281845092773,-9.36562442779541
1663861814928608300,1.310608154296875,-3.007293701171875,0.8999900817871094,-9.88810920715332
1663861814938495700,1.320495849609375,8.165726661682129,-6.681494235992432,-2.854806900024414
1663861814948353000,1.33035302734375,19.14389419555664,-1.6718659400939941,4.500089168548584
1663861814958240800,1.34024072265625,18.16783905029297,-0.23019170761108398,13.052361488342285
1663861814968128500,1.35012841796875,13.193066596984863,1.3691720962524414,11.50404167175293
1663861814978016000,1.36001611328125,-0.06917572021484375,2.3452563285827637,5.583256721496582
1663861814987903700,1.36990380859375,-9.864871978759766,1.4895224571228027,2.38796329498291
1663861814997791500,1.37979150390625,-7.318572521209717,2.4477109909057617,6.171507835388184
1663861815007679200,1.38967919921875,-5.564028263092041,1.414872646331787,9.197067260742188
1663861815017536500,1.39953662109375,-3.152116060256958,-1.9260010719299316,5.376375198364258
1663861815027424000,1.409424072265625,-0.24341988563537598,-5.498894691467285,-1.7037248611450195
1663861815037311700,1.419311767578125,0.027943134307861328,-7.5583696365356445,-7.199995040893555
1663861815047199500,1.429199462890625,3.2393784523010254,-8.844202995300293,-5.961665153503418
1663861815057056800,1.439056884765625,2.9716734886169434,-7.588822364807129,-4.282611846923828
1663861815066913800,1.448913818359375,1.3891383409500122,-3.3307957649230957,-7.401932239532471
1663861815076801500,1.458801513671875,-0.4675614833831787,-3.0224857330322266,-6.834525108337402
1663861815086689300,1.468689208984375,-2.5279598236083984,-4.180281162261963,-4.672394275665283
1663861815096546300,1.47854638671875,-4.932839393615723,-2.7363171577453613,-2.389059543609619
1663861815106434000,1.48843408203125,-5.030916213989258,-1.342402458190918,-1.225137710571289
1663861815116352300,1.498352294921875,0.7498292922973633,-0.4391298294067383,0.11378240585327148
1663861815126209500,1.50820947265625,7.902904033660889,0.5521988868713379,1.6750082969665527
1663861815136097300,1.51809716796875,0.9630736112594604,-0.8932290077209473,0.29611968994140625
1663861815145984800,1.52798486328125,-4.050158500671387,-6.13791036605835,-4.459113121032715
1663861815155872500,1.53787255859375,-4.305580139160156,-9.85020637512207,-5.134056091308594
1663861815165760300,1.54776025390625,-1.5348440408706665,-7.766500473022461,-0.5519843101501465
1663861815175648000,1.55764794921875,3.4910125732421875,-6.374118804931641,-2.542330741882324
1663861815185535700,1.56753564453125,4.0110764503479,-1.334083080291748,-1.6889066696166992
1663861815195423200,1.57742333984375,-4.40407657623291,2.0382590293884277,-2.189748764038086
1663861815205311000,1.58731103515625,-1.6049102544784546,2.14772367477417,-2.2240171432495117
1663861815215198700,1.59719873046875,3.2958993911743164,-0.4575200080871582,-0.5986905097961426
1663861815225086500,1.60708642578125,-0.2618594765663147,-1.0516571998596191,2.1335811614990234
1663861815234974200,1.61697412109375,-1.4656810760498047,0.9813933372497559,2.454317569732666
1663861815244862000,1.626862060546875,-1.0751081705093384,1.9473390579223633,2.58969783782959
1663861815254749400,1.63674951171875,-0.4336642026901245,4.747066020965576,4.156545162200928
1663861815264606700,1.646606689453125,-1.5787484645843506,6.6347575187683105,0.7541203498840332
1663861815274494500,1.656494384765625,0.36696532368659973,4.585086345672607,-1.8591394424438477
1663861815284382200,1.66638232421875,1.3899785280227661,2.313927173614502,-2.6596670150756836
1663861815294269700,1.676269775390625,0.9077187776565552,0.6104655265808105,-0.7537698745727539
1663861815304157400,1.686157470703125,1.1996489763259888,-0.2528104782104492,-1.5323772430419922
1663861815314045200,1.696045166015625,0.3130662441253662,-0.7339577674865723,-1.4781923294067383
1663861815323902500,1.70590234375,0.3611934781074524,1.1998295783996582,-0.999298095703125
1663861815333790000,1.7157900390625,1.3949036598205566,3.7129740715026855,-0.4597902297973633
1663861815343677700,1.725677734375,0.4500232934951782,4.6248884201049805,0.48914194107055664
1663861815353565400,1.7355654296875,-0.8498440980911255,4.45306396484375,0.42658233642578125
1663861815363453200,1.745453125,-1.2294209003448486,2.1442809104919434,-1.5559535026550293
1663861815373341000,1.7553408203125,-3.3992748260498047,-0.8217110633850098,-3.8457469940185547
1663861815383198000,1.765197998046875,0.21913361549377441,-2.765292167663574,-2.8551435470581055
1663861815393085700,1.775085693359375,-4.7500505447387695,-0.49576902389526367,-4.390314102172852
1663861815402973400,1.784973388671875,-3.5273327827453613,1.2320222854614258,-2.34893798828125
1663861815412861200,1.794861083984375,4.499454975128174,5.695126533508301,-1.585723876953125
1663861815422748700,1.804748779296875,4.371465682983398,7.044450759887695,-0.5436229705810547
1663861815432606000,1.81460595703125,0.48517322540283203,4.658666610717773,-0.8091089725494385
1663861815442493700,1.82449365234375,0.4148063659667969,-2.6661272048950195,-1.6347877979278564
1663861815452381400,1.83438134765625,1.1572985649108887,-12.13109016418457,-1.8675875663757324
1663861815462269000,1.84426904296875,0.32361888885498047,-14.517037391662598,-1.7916529178619385
1663861815472156700,1.85415673828125,-1.0383940935134888,-9.445938110351562,-2.0572280883789062
1663861815482014000,1.864013916015625,-1.6596543788909912,-2.147756576538086,-1.0045421123504639
1663861815491901700,1.873901611328125,-1.4589473009109497,2.7593088150024414,-2.1889097690582275
1663861815501789400,1.88378955078125,-0.3313692808151245,3.4296789169311523,-3.6938650608062744
1663861815511677000,1.893677001953125,-2.186746597290039,3.26729679107666,-3.6932878494262695
1663861815521564700,1.903564697265625,-7.4529194831848145,-5.059548377990723,-0.5634568929672241
1663861815531452400,1.913452392578125,-2.0057053565979004,-16.80263328552246,1.4888700246810913
1663861815541340200,1.923340087890625,3.668851375579834,-14.966362953186035,6.741341590881348
1663861815551228000,1.933227783203125,2.068594217300415,-6.054475784301758,9.099384307861328
1663861815561115400,1.943115478515625,3.091583251953125,-5.505334854125977,3.735995054244995
1663861815570972700,1.95297265625,0.8809115290641785,-0.2686758041381836,3.8284144401550293
1663861815580860400,1.9628603515625,-1.2930625677108765,4.066625595092773,3.3115177154541016
1663861815590748200,1.972748046875,-1.7285232543945312,0.42182350158691406,-3.014397144317627
1663861815600635600,1.9826357421875,-2.3149328231811523,-3.284029006958008,-5.996737957000732
1663861815610523400,1.9925234375,-0.8602609634399414,-3.250533103942871,-3.8356361389160156
1663861815620411100,2.0024111328125,0.6377147436141968,-3.530745506286621,-1.3507755994796753
1663861815630268400,2.012268310546875,1.260419249534607,-3.482518196105957,0.5983085632324219
1663861815640156000,2.022156005859375,0.6091549396514893,-2.517268180847168,0.629673957824707
1663861815650043600,2.032043701171875,-0.5512787103652954,-1.0111932754516602,-0.5281047821044922
1663861815659931400,2.041931396484375,-0.3666330873966217,-0.8194446563720703,-1.494849443435669
1663861815669819100,2.051819091796875,0.06512242555618286,-1.7162237167358398,-1.7065023183822632
1663861815679707000,2.061706787109375,0.08967888355255127,-2.5796642303466797,-1.8844962120056152
1663861815689594400,2.071594482421875,-0.021932452917099,-3.286733627319336,-1.977649450302124
1663861815699451600,2.08145166015625,-0.2887892425060272,-3.54573917388916,-2.043081283569336
1663861815709339400,2.09133935546875,-0.5412919521331787,-3.1020803451538086,-2.080301284790039
1663861815719227100,2.10122705078125,-0.6417367458343506,-2.3479700088500977,-2.384153366088867
1663861815729115000,2.111114990234375,-0.2849644124507904,-2.338411331176758,-2.5196776390075684
1663861815739002400,2.12100244140625,0.17737650871276855,-2.69443416595459,-2.3049142360687256
1663861815748890000,2.13089013671875,0.4773266911506653,-1.0597848892211914,-0.15950697660446167
1663861815758747400,2.140747314453125,1.58424973487854,-0.20615863800048828,-0.15889990329742432
1663861815768635100,2.15063525390625,2.045952796936035,-0.43835926055908203,-0.6132206320762634
1663861815778522600,2.160522705078125,1.683469295501709,0.8259286880493164,0.1500483751296997
1663861815788380000,2.1703798828125,1.7373006343841553,1.2634105682373047,0.1853032112121582
1663861815798237200,2.1802373046875,1.593422532081604,-1.1341629028320312,0.5785741806030273
1663861815808155400,2.1901552734375,3.2683606147766113,1.5715856552124023,2.618973970413208
1663861815818043000,2.20004296875,2.2667977809906006,4.908719062805176,2.6793601512908936
1663861815827930600,2.2099306640625,-0.32185089588165283,3.9987316131591797,0.035295188426971436
1663861815837788000,2.219787841796875,-0.9853602647781372,1.5562324523925781,-1.9841669797897339
1663861815847675600,2.229675537109375,-0.2894449234008789,-0.22655582427978516,-2.552168846130371
1663861815857563100,2.239563232421875,-0.40906786918640137,-1.0624685287475586,-1.915544867515564
1663861815867451000,2.249450927734375,-0.582754373550415,-0.7967433929443359,-0.8209950923919678
1663861815877338600,2.259338623046875,-0.2946348190307617,-0.47531604766845703,-0.315244197845459
1663861815887226400,2.269226318359375,-0.4392883777618408,-1.1233940124511719,-0.6027069091796875
1663861815897114000,2.279114013671875,-0.3244893550872803,-1.486161231994629,-0.9536269903182983
1663861815907001600,2.289001708984375,-0.0463714599609375,-1.4151496887207031,-0.9050527811050415
1663861815916889300,2.298889404296875,0.25992631912231445,-1.6264944076538086,-1.2273929119110107
1663861815926777000,2.308777099609375,0.6935503482818604,-1.4340095520019531,-1.717376947402954
1663861815936664800,2.318664794921875,0.95013427734375,-1.085688591003418,-2.4925360679626465
1663861815946522000,2.328522216796875,0.7481739521026611,-0.336669921875,-3.297529935836792
1663861815956409600,2.33840966796875,0.31377315521240234,1.028524398803711,-3.3462414741516113
1663861815966297300,2.34829736328125,0.26047849655151367,1.5925159454345703,-3.5806965827941895
1663861815976185000,2.35818505859375,0.3775513172149658,1.3498001098632812,-3.489861011505127
1663861815986042400,2.36804248046875,0.0916588306427002,1.9314470291137695,-1.9749047756195068
1663861815995929900,2.377929931640625,0.28029370307922363,0.9553375244140625,-1.4033915996551514
1663861816005787100,2.387787109375,0.8579754829406738,0.11198902130126953,-0.5285117626190186
1663861816015675000,2.3976748046875,1.1256091594696045,-0.7115335464477539,0.05880904197692871
1663861816025562600,2.407562744140625,0.9440884590148926,-1.522165298461914,-0.11901569366455078
1663861816035450000,2.4174501953125,0.4239950180053711,-2.3284263610839844,-0.1512669324874878
1663861816045307400,2.427307373046875,-0.29586172103881836,-2.179572105407715,0.43216872215270996
1663861816055225600,2.4372255859375,-0.7792668342590332,-1.686955451965332,0.7853336334228516
1663861816065113300,2.44711328125,-0.8255479335784912,-1.2170686721801758,0.43107640743255615
1663861816074970400,2.456970458984375,-0.16972017288208008,-1.099379539489746,0.3008028268814087
1663861816084858000,2.466858154296875,0.6429729461669922,-0.4740457534790039,1.3450771570205688
1663861816094745900,2.476745849609375,0.03908252716064453,-0.009228706359863281,1.991940975189209
1663861816104633600,2.486633544921875,-0.7661571502685547,-0.4000711441040039,1.8237261772155762
1663861816114521300,2.496521240234375,-1.0942230224609375,0.748600959777832,2.1211118698120117
1663861816124408800,2.506408935546875,-1.9624719619750977,0.8190431594848633,1.0729265213012695
1663861816134296600,2.516296630859375,-2.333547592163086,0.08602619171142578,-0.7709919214248657
1663861816144184300,2.526184326171875,-1.9654731750488281,1.036233901977539,-0.9163050651550293
1663861816154072000,2.536072021484375,-0.8800897598266602,2.1088333129882812,0.08574414253234863
1663861816163959800,2.545959716796875,-0.5873374938964844,2.47982120513916,1.1479076147079468
1663861816173816800,2.55581689453125,-0.5950174331665039,2.498440742492676,2.4397411346435547
1663861816183674000,2.565674072265625,-1.5146565437316895,2.1364521980285645,3.1554479598999023
1663861816193561900,2.575561767578125,-2.2531299591064453,1.5893445014953613,3.2456352710723877
1663861816203449600,2.58544970703125,-2.57920503616333,1.0395164489746094,2.314471483230591
1663861816213337000,2.595337158203125,-2.1093502044677734,0.4767112731933594,1.0246078968048096
1663861816223224800,2.605224853515625,-1.3892440795898438,0.29325199127197266,0.23888850212097168
1663861816233112600,2.615112548828125,-0.7702736854553223,0.40123414993286133,0.44201016426086426
1663861816243000300,2.625000244140625,-0.20318317413330078,0.9026994705200195,0.780195951461792
1663861816252888000,2.63488818359375,-0.7936081886291504,1.2831945419311523,0.9789135456085205
1663861816262775600,2.644775634765625,-0.8012790679931641,1.2613520622253418,1.0270965099334717
1663861816272663300,2.654663330078125,-0.1547842025756836,0.6116151809692383,0.37415099143981934
1663861816282551000,2.664551025390625,-0.14732742309570312,0.09819269180297852,-0.6064803600311279
1663861816292438800,2.674438720703125,-0.3785128593444824,-0.5869150161743164,-1.2408764362335205
1663861816302326500,2.684326416015625,-0.0442042350769043,-1.1023473739624023,-0.663790225982666
1663861816312183600,2.69418359375,-0.03381919860839844,-0.790128231048584,0.39066028594970703
1663861816322071300,2.7040712890625,0.7508106231689453,-0.3401670455932617,0.9973807334899902
1663861816331959000,2.713958984375,0.7987513542175293,0.08510017395019531,0.8050074577331543
1663861816341846800,2.7238466796875,0.015256881713867188,0.5457968711853027,0.0208585262298584
1663861816351734300,2.733734375,-0.4797806739807129,0.7257070541381836,-0.7605998516082764
1663861816361622000,2.7436220703125,-0.5000839233398438,0.26191186904907227,-1.4471766948699951
1663861816371509800,2.753509765625,0.6019372940063477,-0.029579639434814453,-2.0964691638946533
1663861816381367000,2.763366943359375,0.5476827621459961,-0.1593632698059082,-2.5734198093414307
1663861816391254500,2.773254638671875,0.05961799621582031,-0.3696470260620117,-2.1631832122802734
1663861816401142300,2.783142333984375,0.4448051452636719,-0.3782773017883301,-0.8627710342407227
1663861816411030000,2.793030029296875,0.16497802734375,-0.19478464126586914,-0.15329790115356445
1663861816420917800,2.802917724609375,-0.02937602996826172,0.0011875629425048828,0.31797194480895996
1663861816430805500,2.812805419921875,-0.0013828277587890625,-0.14313673973083496,0.5040273666381836
1663861816440662500,2.82266259765625,-1.0014305114746094,-0.3816406726837158,-0.08658885955810547
1663861816450550300,2.83255029296875,-0.9578084945678711,-0.9351997375488281,-1.0161924362182617
1663861816460438000,2.84243798828125,-1.3565034866333008,-1.202960729598999,-0.49440908432006836
1663861816470325800,2.85232568359375,-2.136371612548828,-1.2835402488708496,-0.24347877502441406
1663861816480213500,2.862213623046875,-2.2973737716674805,-1.1370627880096436,0.46650195121765137
1663861816490101000,2.87210107421875,-1.841261863708496,-0.8491225242614746,1.294623613357544
1663861816499958300,2.881958251953125,-1.3882484436035156,-0.3494417667388916,0.7853515148162842
1663861816509846000,2.891845947265625,-1.1370172500610352,0.32684242725372314,1.118518590927124
1663861816519733800,2.901733642578125,-1.1844635009765625,0.8100070953369141,1.0164761543273926
1663861816529621200,2.911621337890625,-1.454197883605957,0.9172667264938354,0.5453674793243408
1663861816539509000,2.921509033203125,-1.5110063552856445,0.8404006958007812,0.18239474296569824
1663861816549396700,2.931396728515625,-2.2118005752563477,0.8291939496994019,-0.4970707893371582
1663861816559254000,2.94125390625,-3.8718528747558594,0.8409874439239502,-2.9038851261138916
1663861816569141500,2.9511416015625,-1.4889335632324219,0.6901293992996216,-1.4469435214996338
1663861816579029200,2.961029296875,-0.2664194107055664,0.542323112487793,-0.08962178230285645
1663861816588917000,2.9709169921875,-1.0538835525512695,0.5386614203453064,-1.1651654243469238
1663861816598804700,2.9808046875,-1.568145751953125,0.5287322998046875,-1.7792420387268066
1663861816608692500,2.9906923828125,-2.06961727142334,0.4934602379798889,-1.890336036682129
1663861816618549500,3.000549560546875,-3.0496864318847656,0.4395725131034851,-2.22003436088562
1663861816628437200,3.010437255859375,-4.258872985839844,0.4084315299987793,-2.7915279865264893
1663861816638325000,3.020324951171875,-5.114885330200195,0.4635113775730133,-3.3623454570770264
1663861816648212700,3.030212646484375,-4.326141357421875,0.9181493520736694,-3.3082470893859863
1663861816658100500,3.0401005859375,-3.1227922439575195,0.8979285359382629,-3.1392195224761963
1663861816667988000,3.049988037109375,-2.280217170715332,0.5797969102859497,-2.9538018703460693
1663861816677875700,3.059875732421875,-1.4136314392089844,0.7660678625106812,-2.483379602432251
1663861816687733000,3.06973291015625,-0.3866920471191406,0.8596373796463013,-2.041998863220215
1663861816697620700,3.079620849609375,0.44979095458984375,0.12473458051681519,-1.455430269241333
1663861816707508200,3.08950830078125,1.1193313598632812,-0.7437790036201477,-0.7210953235626221
1663861816717396000,3.09939599609375,1.2363166809082031,-1.1591823101043701,-0.579845666885376
1663861816727283700,3.10928369140625,0.637455940246582,-1.227591872215271,-0.3749508857727051
1663861816737171500,3.11917138671875,-0.03473854064941406,-1.2084743976593018,-0.10416960716247559
1663861816747028500,3.129028564453125,0.3021240234375,-1.1298730373382568,-0.020134687423706055
1663861816756916200,3.138916259765625,0.5789794921875,-0.8195792436599731,-0.09440922737121582
1663861816766804000,3.148803955078125,0.31072998046875,-0.5869754552841187,-0.29100680351257324
1663861816776691700,3.158691650390625,-0.02278900146484375,-0.321636438369751,-0.2858126163482666
1663861816786579500,3.168579345703125,-0.3042716979980469,-0.10761582851409912,-0.2864351272583008
1663861816796436500,3.1784365234375,-0.5033512115478516,0.06788432598114014,-0.37186598777770996
1663861816806324200,3.18832421875,-0.6259918212890625,0.01916956901550293,-0.4293203353881836
1663861816816212000,3.1982119140625,-0.5733909606933594,-0.1707538366317749,-0.43677306175231934
1663861816826099700,3.208099609375,-0.4280843734741211,-0.26366138458251953,-0.4973323345184326
1663861816835987200,3.2179873046875,0.006198883056640625,-0.2225707769393921,-0.5484151840209961
1663861816845875000,3.227875,0.6335287094116211,-0.15258359909057617,-0.5539309978485107
1663861816855762700,3.2377626953125,1.0879592895507812,-0.11082875728607178,-0.632087230682373
1663861816865620000,3.247619873046875,1.2342071533203125,-0.051499366760253906,-0.6767611503601074
1663861816875507500,3.257507568359375,1.069854736328125,-0.0460963249206543,-0.5861363410949707
1663861816885364700,3.26736474609375,0.7066822052001953,-0.10673856735229492,-0.5724020004272461
1663861816895252500,3.27725244140625,0.22767353057861328,-0.14017736911773682,-0.7858045101165771
1663861816905140200,3.28714013671875,-0.30074214935302734,-0.16228258609771729,-1.094883680343628
1663861816915028000,3.297028076171875,-0.6567087173461914,-0.0975567102432251,-1.3026883602142334
1663861816924885000,3.306885009765625,-0.7946987152099609,0.05680441856384277,-1.408534049987793
1663861816934772700,3.316772705078125,-0.8768796920776367,0.19247376918792725,-1.3599822521209717
1663861816944660500,3.326660400390625,-0.9390382766723633,0.2745795249938965,-1.1846234798431396
1663861816954548200,3.33654833984375,-0.8764591217041016,0.33915233612060547,-0.9403166770935059
1663861816964435700,3.346435791015625,-0.7228593826293945,0.34764885902404785,-0.7714011669158936
1663861816974323500,3.356323486328125,-0.44513893127441406,0.29198741912841797,-0.6659729480743408
1663861816984211200,3.366211181640625,-0.14853858947753906,0.18174517154693604,-0.7126498222351074
1663861817003956000,3.3859560546875,-0.2663869857788086,0.0069533586502075195,-0.9029748439788818
1663861817013843700,3.39584375,-0.5722217559814453,0.01706242561340332,-0.7754919528961182
1663861817023731500,3.4057314453125,-0.9197702407836914,0.1251462697982788,-0.5447812080383301
1663861817033588700,3.415588623046875,-1.0937175750732422,0.1964329481124878,-0.360227108001709
1663861817043476200,3.425476318359375,-1.2637138366699219,0.26949381828308105,-0.23725557327270508
1663861817053364000,3.435364013671875,-1.3108654022216797,0.2270665168762207,-0.12657952308654785
1663861817063251700,3.445251708984375,-1.298253059387207,0.13846731185913086,-0.0905911922454834
1663861817073139500,3.455139404296875,-1.0982131958007812,0.11597239971160889,-0.04430699348449707
1663861817083027200,3.465027099609375,-0.6806745529174805,0.09575819969177246,0.02529144287109375
1663861817092914700,3.474914794921875,-0.4398927688598633,0.045705199241638184,0.07882952690124512
1663861817102772000,3.48477197265625,-0.33263206481933594,-0.036025166511535645,0.13872170448303223
1663861817112659700,3.49465966796875,-0.2036113739013672,-0.21647298336029053,0.22048354148864746
1663861817122547500,3.50454736328125,0.04778480529785156,-0.4187504053115845,0.30936622619628906
1663861817132435000,3.51443505859375,0.14538097381591797,-0.4961467981338501,0.34476757049560547
1663861817142292200,3.524292236328125,0.07801437377929688,-0.5919641256332397,0.30901670455932617
1663861817152180000,3.534179931640625,0.03220176696777344,-0.5399105548858643,0.3393421173095703
1663861817162067700,3.544067626953125,0.06273746490478516,-0.4292116165161133,0.2975034713745117
1663861817171955500,3.55395556640625,0.062193870544433594,-0.2850821018218994,0.21104693412780762
1663861817181843000,3.563843017578125,-0.09106922149658203,-0.14447391033172607,0.007860183715820312
1663861817191730700,3.573730712890625,-0.24407577514648438,-0.05009138584136963,-0.16048359870910645
1663861817201618400,3.583618408203125,-0.23921489715576172,-0.055948495864868164,-0.17287158966064453
1663861817211475700,3.593475830078125,-0.23467540740966797,-0.061417341232299805,-0.1843092441558838
1663861817221363200,3.60336328125,-0.23064231872558594,-0.0663069486618042,-0.19418048858642578
1663861817231251000,3.6132509765625,-0.2272014617919922,-0.07113838195800781,-0.2018885612487793
1663861817241138700,3.623138671875,-0.22417259216308594,-0.07671141624450684,-0.20777225494384766
1663861817251026400,3.6330263671875,-0.8038749694824219,-0.6706254482269287,-0.3841400146484375
1663861817260914200,3.6429140625,-0.6948022842407227,-0.6887216567993164,-0.2952897548675537
1663861817270771200,3.652771240234375,-0.40738391876220703,-0.43306708335876465,-0.27893877029418945
1663861817280689400,3.662689453125,0.05146598815917969,-0.07743942737579346,-0.30971312522888184
1663861817290546700,3.672546630859375,0.228485107421875,0.021079540252685547,-0.48895883560180664
1663861817300434400,3.682434326171875,0.09072589874267578,-0.24892568588256836,-0.7075021266937256
1663861817310322000,3.692322021484375,-0.13984203338623047,-0.5243213176727295,-0.7895059585571289
1663861817320209700,3.702209716796875,-0.3914365768432617,-0.562382698059082,-0.6629257202148438
1663861817330097400,3.712097412109375,-0.616093635559082,-0.5234992504119873,-0.606055736541748
1663861817339985200,3.721985107421875,-0.7206792831420898,-0.5289535522460938,-0.5955054759979248
1663861817349873000,3.731872802734375,-0.7746763229370117,-0.4947648048400879,-0.5767102241516113
1663861817359760400,3.741760498046875,-0.5992574691772461,-0.4500713348388672,-0.5445334911346436
1663861817369648000,3.751648193359375,-0.3168172836303711,-0.4498426914215088,-0.5873329639434814
1663861817379536000,3.761535888671875,-0.09737014770507812,-0.5062981843948364,-0.6274716854095459
1663861817389393200,3.77139306640625,0.059304237365722656,-0.529934287071228,-0.5595300197601318
1663861817399281000,3.781281005859375,0.11047935485839844,-0.3896615505218506,-0.41028857231140137
1663861817409168400,3.79116845703125,0.08460426330566406,-0.22403228282928467,-0.34758591651916504
1663861817419056000,3.80105615234375,-0.044806480407714844,-0.17151236534118652,-0.32642698287963867
1663861817428944000,3.81094384765625,-0.20830821990966797,-0.15292775630950928,-0.3152811527252197
1663861817438831600,3.82083154296875,-0.4222135543823242,-0.10417699813842773,-0.31050992012023926
1663861817448719400,3.83071923828125,-0.5285110473632812,-0.08110678195953369,-0.28653502464294434
1663861817458606800,3.84060693359375,-0.5438680648803711,-0.04325079917907715,-0.1874682903289795
1663861817468494600,3.85049462890625,-0.49478626251220703,-0.013270020484924316,-0.03804278373718262
1663861817478382300,3.86038232421875,-0.40294456481933594,-0.047705650329589844,0.041960716247558594
1663861817488270000,3.87027001953125,-0.3256692886352539,-0.08622729778289795,0.04025912284851074
1663861817498127000,3.880127197265625,-0.24602508544921875,-0.09782791137695312,0.01365804672241211
1663861817508014800,3.890014892578125,-0.19519329071044922,-0.1084221601486206,-0.03503918647766113
1663861817517902600,3.899902587890625,-0.14685726165771484,-0.12281346321105957,-0.09847044944763184
1663861817527790300,3.909790283203125,-0.16543006896972656,-0.1861363649368286,-0.15297722816467285
1663861817537678000,3.919677978515625,-0.2365884780883789,-0.17171502113342285,-0.15250086784362793
1663861817547565600,3.929565673828125,-0.31252098083496094,-0.12073409557342529,-0.16592073440551758
1663861817557422800,3.9394228515625,-0.34532642364501953,-0.045416831970214844,-0.17937421798706055
1663861817567310600,3.949310546875,-0.37798500061035156,0.032312631607055664,-0.188279390335083
1663861817577198300,3.9591982421875,-0.4463319778442383,0.07158172130584717,-0.21652483940124512
1663861817587085800,3.9690859375,-0.4571247100830078,0.026708483695983887,-0.17784905433654785
1663861817596943000,3.978943115234375,-0.42500877380371094,-0.027809619903564453,-0.21759796142578125
1663861817606830800,3.988830810546875,-0.36658191680908203,0.0370023250579834,-0.2291090488433838
1663861817616718600,3.998718505859375,-0.31757068634033203,0.1545238494873047,-0.265683650970459
1663861817626606300,4.0086064453125,-0.3451576232910156,0.15299296379089355,-0.2903556823730469
1663861817636493800,4.018493896484375,-0.34420299530029297,0.19777297973632812,-0.2931230068206787
1663861817646381600,4.028381591796875,-0.36724376678466797,0.22422730922698975,-0.276714563369751
1663861817656238800,4.03823876953125,-0.3713035583496094,0.14624238014221191,-0.279041051864624
1663861817666126600,4.048126708984375,-0.3488597869873047,0.11252880096435547,-0.34114551544189453
1663861817675983600,4.057983642578125,-0.35245323181152344,0.19467246532440186,-0.35137033462524414
1663861817685851000,4.067850830078125,-0.3155050277709961,0.24136793613433838,-0.3817884922027588
1663861817695708200,4.077708251953125,-0.3336057662963867,0.19971275329589844,-0.37626218795776367
1663861817705626400,4.08762646484375,-0.3158407211303711,0.19138801097869873,-0.36115479469299316
1663861817715483400,4.0974833984375,-0.29345226287841797,0.12787103652954102,-0.36942529678344727
1663861817725401600,4.107401611328125,-0.31687164306640625,0.058290839195251465,-0.3361656665802002
1663861817735289300,4.117289306640625,-0.2764463424682617,0.0339123010635376,-0.2697281837463379
1663861817745146600,4.127146728515625,-0.25069236755371094,0.07278966903686523,-0.20463871955871582
1663861817755034400,4.137034423828125,-0.255889892578125,0.10843324661254883,-0.15259480476379395
1663861817764921900,4.146921875,-0.2823047637939453,0.10094308853149414,-0.12683582305908203
1663861817774809600,4.1568095703125,-0.3200969696044922,0.07447099685668945,-0.09650325775146484
1663861817784667000,4.1666669921875,-0.3242607116699219,0.11870956420898438,-0.08544301986694336
1663861817794585000,4.176585205078125,-0.3024330139160156,0.055803656578063965,-0.0627293586730957
1663861817804442000,4.186442138671875,-0.28332996368408203,-0.04175591468811035,-0.0213315486907959
1663861817814329900,4.196329833984375,-0.21279430389404297,-0.12134063243865967,0.024257659912109375
1663861817824217600,4.206217529296875,-0.24929428100585938,-0.1455751657485962,0.0476679801940918
1663861817834105300,4.216105224609375,-0.26398658752441406,-0.08200192451477051,0.009239912033081055
1663861817843993000,4.2259931640625,-0.28316307067871094,-0.05672132968902588,-0.012126684188842773
1663861817853880600,4.235880615234375,-0.3234243392944336,-0.06182575225830078,-0.04430437088012695
1663861817863768300,4.245768310546875,-0.29267120361328125,-0.158219575881958,-0.03967857360839844
1663861817873656000,4.255656005859375,-0.2720041275024414,-0.226983904838562,-0.0228121280670166
1663861817883543800,4.265543701171875,-0.23860740661621094,-0.23182976245880127,0.003280162811279297
1663861817893431600,4.275431640625,-0.23859596252441406,-0.19119107723236084,-0.02860116958618164
1663861817903319300,4.2853193359375,-0.2145233154296875,-0.19096529483795166,-0.12337398529052734
1663861817913206800,4.295206787109375,-0.23341655731201172,-0.22151994705200195,-0.20637917518615723
1663861817923094500,4.305094482421875,-0.25231075286865234,-0.23509514331817627,-0.26042842864990234
1663861817932951800,4.314951904296875,-0.2450542449951172,-0.27726423740386963,-0.24687623977661133
1663861817942839600,4.324839599609375,-0.2499704360961914,-0.33644258975982666,-0.22504067420959473
1663861817952727000,4.33472705078125,-0.238311767578125,-0.36716198921203613,-0.20020151138305664
1663861817962584300,4.344584228515625,-0.16922855377197266,-0.33377885818481445,-0.20601892471313477
1663861817972441600,4.354441650390625,-0.14113521575927734,-0.27087247371673584,-0.22399568557739258
1663861817982359800,4.36435986328125,-0.139251708984375,-0.21168410778045654,-0.27042055130004883
1663861817992247300,4.374247314453125,-0.16793441772460938,-0.16089999675750732,-0.30200791358947754
1663861818002135000,4.384135009765625,-0.18212318420410156,-0.12273192405700684,-0.31155943870544434
1663861818012022800,4.394022705078125,-0.1867504119873047,-0.15791332721710205,-0.3253214359283447
1663861818021910500,4.40391064453125,-0.1890726089477539,-0.13576483726501465,-0.3220500946044922
1663861818031798300,4.41379833984375,-0.14423274993896484,-0.13722312450408936,-0.307358980178833
1663861818041685800,4.423685791015625,-0.1564798355102539,-0.12687909603118896,-0.34531474113464355
1663861818051543000,4.43354296875,-0.19890308380126953,-0.11691522598266602,-0.3552536964416504
1663861818061430800,4.4434306640625,-0.20044803619384766,-0.12859785556793213,-0.38424015045166016
1663861818071318500,4.453318603515625,-0.18558502197265625,-0.1660473346710205,-0.31586527824401855
1663861818081206000,4.4632060546875,-0.18513011932373047,-0.18414485454559326,-0.2555077075958252
1663861818091093800,4.47309375,-0.15406513214111328,-0.19043004512786865,-0.20546984672546387
1663861818100981500,4.4829814453125,-0.11633491516113281,-0.19896423816680908,-0.16380000114440918
1663861818110869200,4.492869140625,-0.13558387756347656,-0.17429816722869873,-0.14230012893676758
1663861818120726300,4.502726318359375,-0.12384223937988281,-0.18076550960540771,-0.12610483169555664
1663861818130614000,4.512614013671875,-0.1852121353149414,-0.18251264095306396,-0.11505603790283203
1663861818140501800,4.522501708984375,-0.19147586822509766,-0.2029566764831543,-0.09459710121154785
1663861818150389500,4.532389404296875,-0.1670665740966797,-0.20184457302093506,-0.06492853164672852
1663861818160246800,4.542246826171875,-0.15485668182373047,-0.17733407020568848,-0.1015162467956543
1663861818170134300,4.55213427734375,-0.1428241729736328,-0.13656151294708252,-0.14949798583984375
1663861818180022000,4.56202197265625,-0.13089656829833984,-0.12917637825012207,-0.17828059196472168
1663861818189909800,4.57190966796875,-0.13091754913330078,-0.08171916007995605,-0.2185382843017578
1663861818199797500,4.581797607421875,-0.1827411651611328,-0.06282305717468262,-0.2818598747253418
1663861818209685200,4.591685302734375,-0.19132137298583984,0.007958292961120605,-0.3466529846191406
1663861818219572700,4.60157275390625,-0.15966224670410156,0.06670713424682617,-0.4228482246398926
1663861818229460500,4.61146044921875,-0.16128253936767578,0.0807567834854126,-0.48963403701782227
1663861818239317800,4.62131787109375,-0.21654415130615234,0.036293983459472656,-0.5927624702453613
1663861818249205500,4.63120556640625,-0.23726463317871094,0.006276845932006836,-0.6235015392303467
1663861818259093000,4.641093017578125,-0.19585895538330078,-0.052763938903808594,-0.5376169681549072
1663861818268980700,4.650980712890625,-0.11018753051757812,-0.07228505611419678,-0.40154576301574707
1663861818278868500,4.660868408203125,-0.009563446044921875,-0.06950557231903076,-0.29727602005004883
1663861818288756200,4.670756103515625,0.058447837829589844,-0.07479381561279297,-0.18835783004760742
1663861818298613200,4.68061328125,0.021422386169433594,-0.07815051078796387,-0.16686463356018066
1663861818308501000,4.6905009765625,-0.015356063842773438,-0.10551571846008301,-0.0899653434753418
1663861818318358300,4.700358154296875,-0.047905921936035156,-0.1564875841140747,0.05193328857421875
1663861818328246000,4.71024609375,-0.09498214721679688,-0.19315457344055176,0.1634688377380371
1663861818338133500,4.720133544921875,-0.07035255432128906,-0.2154374122619629,0.26784634590148926
1663861818348021200,4.730021240234375,-0.06949329376220703,-0.25637197494506836,0.361558198928833
1663861818357909000,4.739908935546875,-0.1210622787475586,-0.30658674240112305,0.37097787857055664
1663861818367796700,4.749796630859375,-0.12475013732910156,-0.2588186264038086,0.39230942726135254
1663861818377684500,4.7596845703125,-0.13106822967529297,-0.235184907913208,0.41939759254455566
1663861818387572200,4.769572265625,-0.14721012115478516,-0.20637202262878418,0.3924272060394287
1663861818397429200,4.77942919921875,-0.18018722534179688,-0.12456178665161133,0.3825652599334717
1663861818407317000,4.78931689453125,-0.14864730834960938,-0.09009695053100586,0.29385995864868164
1663861818417204700,4.799204833984375,-0.13153457641601562,-0.05514931678771973,0.19321060180664062
1663861818427092500,4.809092529296875,-0.11680030822753906,-0.04370474815368652,0.11394000053405762
1663861818436980000,4.81897998046875,-0.09496021270751953,-0.034281134605407715,0.04190373420715332
1663861818446837200,4.828837158203125,-0.10187149047851562,-0.03877580165863037,-0.001367330551147461
1663861818456725000,4.83872509765625,-0.13506221771240234,-0.026492953300476074,-0.044437408447265625
1663861818466582000,4.84858203125,-0.11800098419189453,0.02182185649871826,-0.11617493629455566
1663861818476469800,4.8584697265625,-0.10573291778564453,0.07263755798339844,-0.20712709426879883
1663861818486327000,4.8683271484375,-0.13641071319580078,0.12102019786834717,-0.2862076759338379
1663861818496245200,4.878245361328125,-0.18133926391601562,0.12881064414978027,-0.32213568687438965
1663861818506133000,4.888133056640625,-0.18558502197265625,0.08167731761932373,-0.3579087257385254
1663861818516020500,4.8980205078125,-0.17084789276123047,0.0009267330169677734,-0.3212301731109619
1663861818525877800,4.907877685546875,-0.110870361328125,-0.06085216999053955,-0.24119281768798828
1663861818535796000,4.9177958984375,-0.048572540283203125,-0.07981014251708984,-0.2092266082763672
1663861818545683700,4.92768359375,-0.0029726028442382812,-0.07288670539855957,-0.19220519065856934
1663861818555571500,4.937571533203125,-0.04568290710449219,-0.07812714576721191,-0.2306818962097168
1663861818565459000,4.947458984375,-0.0859365463256836,-0.0713047981262207,-0.221235990524292
1663861818575346700,4.9573466796875,-0.128570556640625,-0.0980459451675415,-0.14209628105163574
1663861818585234400,4.967234375,-0.15214157104492188,-0.11513781547546387,-0.07454681396484375
1663861818595091700,4.977091796875,-0.16382598876953125,-0.15853309631347656,-0.020984172821044922
1663861818604948700,4.98694873046875,-0.1277637481689453,-0.16374409198760986,0.07083463668823242
1663861818614836500,4.99683642578125,-0.1060638427734375,-0.16421198844909668,0.07148957252502441
1663861818624724200,5.00672412109375,-0.0795907974243164,-0.16257202625274658,0.05059051513671875
1663861818634612000,5.016612060546875,-0.07459735870361328,-0.14907634258270264,0.01274728775024414
1663861818644469000,5.026468994140625,-0.10161685943603516,-0.12392675876617432,-0.003506183624267578
1663861818654356700,5.036356689453125,-0.14233112335205078,-0.10616087913513184,0.015873193740844727
1663861818664244500,5.046244384765625,-0.16827392578125,-0.07678103446960449,0.030260801315307617
1663861818674132200,5.05613232421875,-0.13970947265625,-0.06874024868011475,0.04221200942993164
1663861818684020000,5.06602001953125,-0.1234283447265625,-0.06794798374176025,0.0705726146697998
1663861818693907500,5.075907470703125,-0.10273456573486328,-0.09070897102355957,0.04211068153381348
1663861818703764700,5.0857646484375,-0.09646415710449219,-0.06802487373352051,0.013752460479736328
1663861818713683000,5.095682861328125,-0.09964275360107422,-0.07394587993621826,-0.04270315170288086
1663861818723540200,5.105540283203125,-0.07919692993164062,-0.034819722175598145,-0.11018872261047363
1663861818733427700,5.115427734375,-0.08731651306152344,-0.038527607917785645,-0.1414482593536377
1663861818743285000,5.125284912109375,-0.10711479187011719,-0.06559014320373535,-0.17439055442810059
1663861818753172700,5.1351728515625,-0.09362983703613281,-0.07338237762451172,-0.19967126846313477
1663861818763060500,5.145060546875,-0.07334423065185547,-0.09291613101959229,-0.18673086166381836
1663861818772978700,5.154978759765625,-0.0722799301147461,-0.11223983764648438,-0.19962167739868164
1663861818782866200,5.1648662109375,-0.04050636291503906,-0.11734282970428467,-0.21500492095947266
1663861818792754000,5.17475390625,-0.053977012634277344,-0.10585379600524902,-0.23968815803527832
1663861818802611200,5.184611083984375,-0.057758331298828125,-0.09936380386352539,-0.26642394065856934
1663861818812499000,5.1944990234375,-0.0638570785522461,-0.09777641296386719,-0.25249457359313965
1663861818822386400,5.204386474609375,-0.046378135681152344,-0.0985792875289917,-0.19622397422790527
1663861818832274200,5.214274169921875,-0.05036449432373047,-0.12317454814910889,-0.15730762481689453
1663861818842162000,5.224161865234375,-0.05894184112548828,-0.1357649564743042,-0.12380242347717285
1663861818852049700,5.234049560546875,-0.06262588500976562,-0.10818278789520264,-0.11222314834594727
1663861818861937400,5.2439375,-0.054429054260253906,-0.11635839939117432,-0.0798182487487793
1663861818871825200,5.2538251953125,-0.05581855773925781,-0.11031770706176758,-0.036061763763427734
1663861818881712600,5.263712646484375,-0.08551597595214844,-0.06651067733764648,-0.018727540969848633
1663861818891600400,5.273600341796875,-0.07701587677001953,-0.06342363357543945,0.005269527435302734
1663861818901488000,5.283488037109375,-0.08509445190429688,-0.07680904865264893,0.021585464477539062
1663861818911376000,5.2933759765625,-0.0977468490600586,-0.0897759199142456,0.05168461799621582
1663861818921233000,5.30323291015625,-0.08197689056396484,-0.06241405010223389,0.05075430870056152
1663861818931120600,5.31312060546875,-0.06881237030029297,-0.04506838321685791,0.042864084243774414
1663861818940978000,5.32297802734375,-0.06994819641113281,-0.03506636619567871,0.02075481414794922
1663861818950865700,5.33286572265625,-0.05695819854736328,-0.00866544246673584,-0.015108585357666016
1663861818960722700,5.34272265625,-0.04181194305419922,0.017473220825195312,-0.06693887710571289
1663861818970641000,5.352640869140625,-0.07409477233886719,0.007982492446899414,-0.09412121772766113
1663861818980528600,5.362528564453125,-0.07063674926757812,-0.010558485984802246,-0.10871434211730957
1663861818990416400,5.37241650390625,-0.0672616958618164,-0.026336073875427246,-0.11831808090209961
1663861819000304000,5.38230419921875,-0.08753395080566406,-0.06744515895843506,-0.13711977005004883
1663861819010191600,5.392191650390625,-0.07442378997802734,-0.08437395095825195,-0.10887265205383301
1663861819020079400,5.402079345703125,-0.06851577758789062,-0.08456254005432129,-0.09312176704406738
1663861819029967000,5.411967041015625,-0.027347564697265625,-0.09180033206939697,-0.10372042655944824
1663861819039824400,5.421824462890625,-0.005726814270019531,-0.08059573173522949,-0.10674357414245605
1663861819049711900,5.4317119140625,-0.0009183883666992188,-0.05101966857910156,-0.11203479766845703
1663861819059599600,5.441599609375,0.01802825927734375,-0.0030351877212524414,-0.12463831901550293
1663861819069487400,5.4514873046875,-0.029321670532226562,-0.004950881004333496,-0.11821675300598145
1663861819079375000,5.461375,-0.08537864685058594,-0.013668537139892578,-0.13751792907714844
1663861819089262800,5.471262939453125,-0.1217641830444336,-0.06462454795837402,-0.15149521827697754
1663861819099150600,5.481150634765625,-0.1104593276977539,-0.10319304466247559,-0.13209295272827148
1663861819109007600,5.491007568359375,-0.049869537353515625,-0.14175283908843994,-0.07996129989624023
1663861819118895400,5.500895263671875,-0.0019464492797851562,-0.13052701950073242,-0.03125762939453125
1663861819128783000,5.510783203125,0.0030717849731445312,-0.07021486759185791,-0.03621506690979004
1663861819138670800,5.5206708984375,0.0011167526245117188,-0.029641389846801758,-0.07705116271972656
1663861819148558300,5.530558349609375,-0.036049842834472656,-0.04326438903808594,-0.13893580436706543
1663861819158446000,5.540446044921875,-0.08208370208740234,-0.03028702735900879,-0.16915440559387207
1663861819168303400,5.550303466796875,-0.10872173309326172,-0.040831565856933594,-0.1699676513671875
1663861819178191000,5.560191162109375,-0.07378196716308594,-0.08697056770324707,-0.09018158912658691
1663861819188078600,5.57007861328125,-0.01816082000732422,-0.11620163917541504,-0.016628265380859375
1663861819197935900,5.579935791015625,0.05800914764404297,-0.12694382667541504,0.0691826343536377
1663861819207823600,5.58982373046875,0.07179832458496094,-0.13319110870361328,0.14396953582763672
1663861819217711400,5.59971142578125,0.04065132141113281,-0.07603895664215088,0.1939558982849121
1663861819227598800,5.609598876953125,0.016884803771972656,-0.050440073013305664,0.2438669204711914
1663861819237486600,5.619486572265625,0.005047798156738281,-0.03696274757385254,0.24912309646606445
1663861819247374300,5.629374267578125,-0.016231536865234375,-0.039998531341552734,0.2361283302307129
1663861819257262000,5.639261962890625,-0.0631866455078125,-0.019321560859680176,0.23800086975097656
1663861819267149800,5.64914990234375,-0.07881546020507812,-0.04120743274688721,0.21175527572631836
1663861819277037300,5.659037353515625,-0.0776834487915039,-0.05571615695953369,0.20471453666687012
1663861819286925000,5.668925048828125,-0.08838939666748047,-0.06522750854492188,0.18380308151245117
1663861819296782300,5.6787822265625,-0.05658245086669922,-0.05111873149871826,0.1281731128692627
1663861819306670000,5.688670166015625,-0.046520233154296875,-0.006546974182128906,0.057053327560424805
1663861819316557800,5.698557861328125,-0.07665824890136719,0.013793468475341797,0.031821489334106445
1663861819326445300,5.7084453125,-0.09922504425048828,0.026895523071289062,-0.014254570007324219
1663861819336302600,5.718302490234375,-0.07674980163574219,0.04726719856262207,-0.01951289176940918
1663861819346190300,5.7281904296875,-0.07106971740722656,0.04149925708770752,-0.06024289131164551
1663861819356047400,5.73804736328125,-0.05610179901123047,0.047702908515930176,-0.10260438919067383
1663861819365935000,5.74793505859375,-0.029630661010742188,0.03508186340332031,-0.08537077903747559
1663861819375792400,5.75779248046875,-0.008298873901367188,0.0012880563735961914,-0.06836390495300293
1663861819385710600,5.767710693359375,-0.003841400146484375,-0.010905265808105469,-0.056139230728149414
1663861819395567600,5.777567626953125,0.000583648681640625,-0.03478801250457764,-0.03713583946228027
1663861819405485800,5.78748583984375,-0.04448223114013672,0.005075693130493164,-0.03964090347290039
1663861819415373600,5.79737353515625,-0.09820747375488281,0.013605833053588867,-0.02800273895263672
1663861819425230800,5.80723095703125,-0.10155677795410156,0.017207741737365723,0.006877422332763672
1663861819435088000,5.817087890625,-0.08363914489746094,0.011018037796020508,0.038923025131225586
1663861819445006000,5.827006103515625,-0.056575775146484375,-0.009343743324279785,0.0844874382019043
1663861819454893800,5.836893798828125,-0.034646034240722656,0.003641843795776367,0.0703115463256836
1663861819464781600,5.846781494140625,-0.020135879516601562,0.009418487548828125,0.08217954635620117
1663861819474669300,5.85666943359375,-0.02473735809326172,0.010626673698425293,0.07741546630859375
1663861819484526300,5.8665263671875,-0.06466102600097656,0.007317662239074707,0.10594964027404785
1663861819494414000,5.8764140625,-0.054604530334472656,0.013462185859680176,0.11094975471496582
1663861819504301800,5.8863017578125,-0.03302192687988281,-0.00901937484741211,0.09035634994506836
1663861819514189600,5.896189453125,0.006974220275878906,0.008767843246459961,0.05625748634338379
1663861819524077300,5.906077392578125,0.013422012329101562,0.021689891815185547,0.029458045959472656
1663861819533964800,5.91596484375,-0.02488231658935547,0.020586252212524414,-0.0021076202392578125
1663861819543822000,5.925822021484375,-0.046138763427734375,-0.004012346267700195,-0.028159379959106445
1663861819553709800,5.935709716796875,-0.01531982421875,-0.04731607437133789,-0.03453969955444336
1663861819563597600,5.94559765625,-0.006275177001953125,-0.04338490962982178,0.006826162338256836
1663861819573485300,5.9554853515625,0.026144027709960938,-0.0019949674606323242,0.02871847152709961
1663861819583342300,5.96534228515625,0.015612602233886719,0.026864290237426758,-0.008368492126464844
1663861819593260500,5.975260498046875,0.03110504150390625,0.05748927593231201,-0.08706402778625488
1663861819603148300,5.985148193359375,0.008639335632324219,0.10173594951629639,-0.12427687644958496
1663861819613036000,5.9950361328125,-0.013461112976074219,0.07510590553283691,-0.10692811012268066
1663861819622923800,6.004923828125,-0.037596702575683594,-0.01640498638153076,-0.08758997917175293
1663861819632780800,6.01478076171875,-0.066162109375,-0.040454983711242676,-0.0964057445526123
1663861819642638000,6.02463818359375,-0.08003044128417969,-0.02918553352355957,-0.11705517768859863
1663861819652525800,6.03452587890625,0.00780487060546875,-0.03272974491119385,-0.13325715065002441
1663861819662444000,6.044444091796875,0.0072689056396484375,-0.003963947296142578,-0.1426069736480713
1663861819672331500,6.05433154296875,0.0021152496337890625,0.021987438201904297,-0.12388110160827637
1663861819682219300,6.06421923828125,-0.026579856872558594,0.00987088680267334,-0.1028146743774414
1663861819692107000,6.07410693359375,-0.061878204345703125,0.00015544891357421875,-0.07251548767089844
1663861819701994800,6.083994873046875,-0.059020042419433594,-0.00441431999206543,-0.06845569610595703
1663861819711882500,6.093882568359375,-0.06783866882324219,0.01717662811279297,-0.05556440353393555
1663861819721770000,6.10377001953125,-0.059772491455078125,0.050551772117614746,-0.09111666679382324
1663861819731627300,6.113627197265625,-0.06573867797851562,0.06725049018859863,-0.13651323318481445
1663861819741484500,6.123484619140625,-0.06675529479980469,0.024582982063293457,-0.1956934928894043
1663861819751372000,6.1333720703125,-0.037078857421875,-0.022612333297729492,-0.2138805389404297
1663861819761259800,6.143259765625,-0.00089263916015625,-0.08611762523651123,-0.18424153327941895
1663861819771147500,6.1531474609375,-0.012454986572265625,-0.11856627464294434,-0.09807443618774414
1663861819781004800,6.1630048828125,0.0019245147705078125,-0.12978577613830566,-0.019698381423950195
1663861819790892300,6.172892333984375,0.032517433166503906,-0.09894168376922607,0.06007552146911621
1663861819800780000,6.182780029296875,0.01795673370361328,-0.07091164588928223,0.15936851501464844
1663861819810667800,6.192667724609375,-0.00807952880859375,-0.04290282726287842,0.26836562156677246
1663861819820525000,6.202525146484375,0.008786201477050781,-0.010412812232971191,0.3538992404937744
1663861819830443300,6.212443359375,0.011325836181640625,0.028900742530822754,0.390533447265625
1663861819840331000,6.2223310546875,0.016091346740722656,0.04671204090118408,0.43378496170043945
1663861819850218500,6.232218505859375,-0.015012741088867188,0.022304534912109375,0.5079503059387207
1663861819860106200,6.242106201171875,-0.022439956665039062,-0.01405954360961914,0.5089728832244873
1663861819869994000,6.251993896484375,-0.053829193115234375,-0.06475889682769775,0.5080060958862305
1663861819879881700,6.2618818359375,-0.06351470947265625,-0.06567525863647461,0.46143174171447754
1663861819889769500,6.27176953125,-0.0874166488647461,-0.04036211967468262,0.39073705673217773
1663861819899657000,6.281656982421875,-0.1613006591796875,0.009394049644470215,0.31477856636047363
1663861819909544700,6.291544677734375,-0.18959426879882812,0.06930506229400635,0.24576091766357422
1663861819919402000,6.301402099609375,-0.17739486694335938,0.09891331195831299,0.1437397003173828
1663861819929289700,6.311289794921875,-0.15834808349609375,0.0694953203201294,0.08577847480773926
1663861819939177200,6.32117724609375,-0.0822601318359375,0.028850674629211426,0.04280543327331543
1663861819949065000,6.33106494140625,-0.051692962646484375,-0.03538501262664795,0.023555755615234375
1663861819958952700,6.34095263671875,-0.05672740936279297,-0.05672252178192139,-0.006111621856689453
1663861819968840400,6.35084033203125,-0.03526592254638672,-0.02584660053253174,-0.07698583602905273
1663861819978697500,6.360697509765625,-0.04486656188964844,0.024152040481567383,-0.13354825973510742
1663861819988585200,6.370585205078125,-0.030651092529296875,0.07684767246246338,-0.17304158210754395
1663861819998473000,6.380472900390625,-0.04772758483886719,0.06537246704101562,-0.1689298152923584
1663861820008360700,6.390360595703125,-0.07914066314697266,0.015680313110351562,-0.08101701736450195
1663861820018248400,6.40024853515625,-0.06747245788574219,-0.03842628002166748,-0.048386335372924805
1663861820028136200,6.41013623046875,-0.15845680236816406,-0.06857216358184814,-0.04955458641052246
1663861820037993200,6.4199931640625,-0.33010387420654297,-0.15563976764678955,-0.010345697402954102
1663861820047881000,6.429880859375,-0.2721719741821289,-0.20659279823303223,0.11131739616394043
1663861820057768700,6.439768798828125,-0.15111255645751953,0.009592056274414062,0.15510010719299316
1663861820067656400,6.449656494140625,-0.02069377899169922,0.22064554691314697,0.10952353477478027
1663861820077544000,6.4595439453125,0.1318521499633789,0.05850398540496826,0.034800052642822266
1663861820087431700,6.469431640625,0.11266326904296875,-0.2266554832458496,0.04698896408081055
1663861820097319400,6.4793193359375,0.14751815795898438,-0.2956972122192383,-0.05420875549316406
1663861820107176700,6.4891767578125,0.24269390106201172,-0.23972868919372559,-0.24922585487365723
1663861820117064200,6.499064208984375,0.5566539764404297,-0.2727090120315552,-0.48078441619873047
1663861820126952000,6.508951904296875,0.6325387954711914,-0.2654988765716553,-0.46752500534057617
1663861820136839700,6.518839599609375,0.7448549270629883,-0.3201240301132202,-0.11242461204528809
1663861820146727400,6.5287275390625,0.9219694137573242,-0.4295961856842041,0.03272557258605957
1663861820156615200,6.538615234375,0.6114740371704102,-0.44220423698425293,0.12761449813842773
1663861820166472200,6.54847216796875,0.2668304443359375,-0.4229593276977539,0.057244300842285156
1663861820176360000,6.55835986328125,-0.3986387252807617,-0.43789100646972656,-0.24216771125793457
1663861820186247700,6.56824755859375,-0.9194068908691406,-0.3704252243041992,-0.5563795566558838
1663861820196135400,6.578135498046875,-0.8612556457519531,-0.22915387153625488,-0.6649394035339355
1663861820206023000,6.58802294921875,-0.6691722869873047,-0.18553858995437622,-0.7500433921813965
1663861820215880200,6.597880126953125,-0.5652332305908203,-0.14502012729644775,-0.8636069297790527
1663861820225768000,6.607767822265625,-0.32232189178466797,-0.013602495193481445,-0.8363103866577148
1663861820235655700,6.61765576171875,-0.13400554656982422,0.08763730525970459,-0.7124433517456055
1663861820245543200,6.627543212890625,-0.03129386901855469,0.1871902346611023,-0.522911548614502
1663861820255400400,6.637400390625,0.047702789306640625,0.24896883964538574,-0.3738267421722412
1663861820265257700,6.6472578125,0.01661205291748047,0.24948948621749878,-0.17768120765686035
1663861820275145500,6.6571455078125,-0.12458324432373047,0.18495386838912964,-0.02929401397705078
1663861820285063700,6.667063720703125,-0.1536273956298828,0.12699908018112183,0.03368020057678223
1663861820294951200,6.676951171875,-0.058600425720214844,0.158383309841156,0.09685230255126953
1663861820304839000,6.6868388671875,0.08856868743896484,0.2345307469367981,0.14307212829589844
1663861820314726700,6.6967265625,0.0014486312866210938,0.3613770008087158,0.2929673194885254
1663861820324614400,6.706614501953125,-0.22647380828857422,0.444044291973114,0.3868741989135742
1663861820334502100,6.716502197265625,-0.2918243408203125,0.45148032903671265,0.44026684761047363
1663861820344389600,6.7263896484375,-0.21649169921875,0.45529311895370483,0.44609737396240234
1663861820354247000,6.736246826171875,-0.07236957550048828,0.4697498679161072,0.49728846549987793
1663861820364134700,6.746134765625,0.19313907623291016,0.4920044541358948,0.6265275478363037
1663861820374022400,6.7560224609375,0.4053201675415039,0.481828510761261,0.8026268482208252
1663861820383910000,6.765909912109375,0.5496978759765625,0.40345436334609985,0.8615796566009521
1663861820393797600,6.775797607421875,0.7525367736816406,0.2994135618209839,0.9798409938812256
1663861820403655000,6.785655029296875,0.8609323501586914,0.11175268888473511,0.9994533061981201
1663861820413512000,6.795511962890625,0.7560319900512695,-0.06692659854888916,0.9174292087554932
1663861820423399700,6.805399658203125,0.44382476806640625,-0.29931873083114624,0.6768410205841064
1663861820433287400,6.815287353515625,0.004085540771484375,-0.6180874109268188,0.33689260482788086
1663861820443175200,6.825175048828125,-0.4121360778808594,-0.748203694820404,-0.0785989761352539
1663861820453063000,6.83506298828125,-0.6662149429321289,-0.4241803288459778,-0.4380176067352295
1663861820462920000,6.844919921875,-0.7019987106323242,-0.016421794891357422,-0.6054441928863525
1663861820472807700,6.8548076171875,-0.40083980560302734,0.18043935298919678,-0.5213334560394287
1663861820482665000,6.8646650390625,-0.054657936096191406,0.017046570777893066,-0.32219505310058594
1663861820492583200,6.874583251953125,-0.03356742858886719,-0.6833219528198242,-0.2553596496582031
1663861820502440200,6.884440185546875,-0.3176546096801758,-1.475361943244934,-0.35300517082214355
1663861820512358400,6.8943583984375,-0.7172346115112305,-1.3078196048736572,-0.45163822174072266
1663861820522215700,6.904215576171875,-0.9371023178100586,-0.5196303129196167,-0.543787956237793
1663861820532134000,6.9141337890625,-0.570281982421875,0.07746124267578125,-0.32089948654174805
1663861820542021600,6.924021728515625,0.10581111907958984,0.27151715755462646,0.10314607620239258
1663861820551909400,6.933909423828125,0.5665626525878906,0.21816492080688477,0.3219285011291504
1663861820561766400,6.943766357421875,0.733698844909668,0.15049827098846436,0.40967655181884766
1663861820571623700,6.953623779296875,0.7216997146606445,0.14619290828704834,0.46819281578063965
1663861820581511400,6.963511474609375,0.5278501510620117,0.08475494384765625,0.4862203598022461
1663861820591429600,6.9734296875,0.29311466217041016,0.024572134017944336,0.4228367805480957
1663861820601317000,6.983317138671875,0.09640026092529297,-0.05311381816864014,0.2934556007385254
1663861820611204900,6.993204833984375,-0.09549236297607422,-0.08469617366790771,0.1546785831451416
1663861820621092600,7.003092529296875,-0.21529293060302734,-0.08982133865356445,-0.0018453598022460938
1663861820630980400,7.01298046875,-0.26532840728759766,-0.13808929920196533,-0.13629961013793945
1663861820640868000,7.0228681640625,-0.2695941925048828,-0.18619883060455322,-0.20841312408447266
1663861820650755600,7.032755615234375,-0.302337646484375,-0.17660057544708252,-0.21324515342712402
1663861820660612900,7.04261279296875,-0.2994098663330078,-0.099029541015625,-0.17856979370117188
1663861820670470100,7.05247021484375,-0.23482513427734375,-0.0029333829879760742,-0.1136014461517334
1663861820680357600,7.062357666015625,-0.14469623565673828,0.10055351257324219,-0.06595802307128906
1663861820690245400,7.072245361328125,-0.021920204162597656,0.15183067321777344,-0.016611337661743164
1663861820700133000,7.082133056640625,0.12159538269042969,0.12279307842254639,-0.0019648075103759766
1663861820710020900,7.092020751953125,0.1786022186279297,0.07117462158203125,0.05106973648071289
1663861820719878000,7.1018779296875,0.14241313934326172,0.04955124855041504,0.09603142738342285
1663861820729765600,7.111765625,0.020505905151367188,0.01225125789642334,0.12785887718200684
1663861820739653400,7.1216533203125,-0.06987190246582031,0.03518521785736084,0.11824750900268555
1663861820749510700,7.1315107421875,-0.15275096893310547,0.03433561325073242,0.12247610092163086
1663861820759398400,7.1413984375,-0.1684579849243164,0.038411736488342285,0.08809661865234375
1663861820769316600,7.151316650390625,-0.11496639251708984,0.06892728805541992,0.04214191436767578
1663861820779204000,7.1612041015625,-0.08324718475341797,0.0686255693435669,-0.027156591415405273
1663861820789091800,7.171091796875,-0.07085418701171875,0.08769106864929199,-0.052913665771484375
1663861820798979600,7.1809794921875,-0.022812843322753906,0.08512473106384277,-0.0541234016418457
1663861820808836900,7.1908369140625,-0.0012750625610351562,0.053700804710388184,-0.06437444686889648
1663861820818694000,7.20069384765625,0.020124435424804688,0.05559945106506348,-0.059885263442993164
1663861820828612000,7.210612060546875,0.06049156188964844,0.04078686237335205,-0.06699895858764648
1663861820838499800,7.220499755859375,0.0864095687866211,0.023692607879638672,-0.09079623222351074
1663861820848387600,7.2303876953125,0.06368255615234375,0.020741939544677734,-0.13449645042419434
1663861820858275300,7.240275390625,0.029600143432617188,-0.000996708869934082,-0.17764687538146973
1663861820868162800,7.250162841796875,0.019655227661132812,-0.003652811050415039,-0.21070003509521484
1663861820878050600,7.260050537109375,0.03363227844238281,-0.016121864318847656,-0.24613738059997559
1663861820887938300,7.269938232421875,0.047573089599609375,-0.04252469539642334,-0.23702454566955566
1663861820897826000,7.279825927734375,0.026169776916503906,-0.07098174095153809,-0.26640868186950684
1663861820907713800,7.2897138671875,0.0004444122314453125,-0.12766635417938232,-0.23402905464172363
1663861820917570800,7.29957080078125,0.0033063888549804688,-0.16977179050445557,-0.1639702320098877
1663861820927458600,7.30945849609375,0.02492523193359375,-0.16701853275299072,-0.10180377960205078
1663861820937346300,7.31934619140625,0.06974315643310547,-0.10358965396881104,-0.08292317390441895
1663861820947234000,7.329234130859375,0.1045064926147461,-0.027161359786987305,-0.1047213077545166
1663861820957121500,7.33912158203125,0.0988454818725586,0.04618692398071289,-0.18358421325683594
1663861820967009300,7.34900927734375,0.01816082000732422,0.09062325954437256,-0.3092658519744873
1663861820976866600,7.358866455078125,-0.08223533630371094,0.04697144031524658,-0.39086413383483887
1663861820986754300,7.36875439453125,-0.13172340393066406,-0.01786971092224121,-0.3311314582824707
1663861820996642000,7.37864208984375,-0.14539337158203125,-0.08955109119415283,-0.2519950866699219
1663861821006529500,7.388529541015625,-0.13305282592773438,-0.1494206190109253,-0.10030508041381836
1663861821016417300,7.398417236328125,-0.07148170471191406,-0.1902085542678833,0.03500032424926758
1663861821026305000,7.408304931640625,0.03655815124511719,-0.15574920177459717,0.18100666999816895
1663861821036162300,7.418162353515625,0.06302165985107422,-0.0984731912612915,0.3236122131347656
1663861821046049800,7.4280498046875,0.10000228881835938,-0.07360720634460449,0.4293978214263916
1663861821055937500,7.4379375,0.08429241180419922,-0.01036977767944336,0.582733154296875
1663861821065825300,7.4478251953125,0.0324859619140625,-0.013149857521057129,0.7842252254486084
1663861821075713000,7.457713134765625,-0.014916419982910156,-0.091225266456604,0.9198052883148193
1663861821085600800,7.467600830078125,-0.079376220703125,-0.13462507724761963,0.9441211223602295
1663861821095457800,7.477457763671875,-0.07450389862060547,-0.07946670055389404,0.8538317680358887
1663861821105345500,7.487345458984375,-0.08867073059082031,-0.026149630546569824,0.7249500751495361
1663861821115202800,7.497202880859375,-0.09794235229492188,0.03484523296356201,0.5911145210266113
1663861821125059800,7.507059814453125,-0.14300537109375,0.06043803691864014,0.3832228183746338
1663861821134947600,7.516947509765625,-0.10667228698730469,0.08377993106842041,0.2137134075164795
1663861821144865800,7.52686572265625,-0.029855728149414062,0.05429089069366455,0.06630516052246094
1663861821154723000,7.53672314453125,0.032500267028808594,0.04629838466644287,0.0026586055755615234
1663861821164610600,7.546610595703125,0.07102012634277344,-0.006852388381958008,-0.07365846633911133
1663861821174467800,7.5564677734375,0.05233001708984375,-0.035739779472351074,-0.15540122985839844
1663861821184386000,7.566385986328125,-0.011713981628417969,-0.04296672344207764,-0.19871258735656738
1663861821194273800,7.576273681640625,-0.05907249450683594,-0.023849844932556152,-0.21253061294555664
1663861821204161500,7.58616162109375,-0.0778970718383789,0.021326541900634766,-0.2157590389251709
1663861821214018600,7.5960185546875,-0.025180816650390625,-0.0007227659225463867,-0.2159266471862793
1663861821223906300,7.60590625,-0.01336669921875,-0.0322798490524292,-0.14860177040100098
1663861821233794000,7.6157939453125,-0.0063877105712890625,-0.06166720390319824,-0.05012035369873047
1663861821243681800,7.625681884765625,-0.0017147064208984375,-0.08192729949951172,0.0455472469329834
1663861821253569500,7.635569580078125,0.041306495666503906,-0.07623076438903809,0.121429443359375
1663861821263426600,7.645426513671875,0.022253036499023438,-0.018213510513305664,0.1848299503326416
1663861821273344800,7.6553447265625,0.01766490936279297,0.027689576148986816,0.19276738166809082
1663861821283202000,7.6652021484375,0.024984359741210938,0.0904233455657959,0.16975021362304688
1663861821293089800,7.67508984375,-0.015554428100585938,0.10312867164611816,0.10877084732055664
1663861821302977300,7.684977294921875,-0.0418853759765625,0.1040639877319336,0.039104461669921875
1663861821312834600,7.69483447265625,-0.046896934509277344,0.1148611307144165,0.003847360610961914
1663861821322722300,7.704722412109375,-0.033050537109375,0.061353087425231934,-0.018500089645385742
1663861821332640500,7.714640625,-0.007241249084472656,0.009969472885131836,-0.050371408462524414
1663861821342497500,7.72449755859375,0.018693923950195312,-0.039250850677490234,-0.06840729713439941
1663861821352385300,7.73438525390625,0.016068458557128906,-0.03355145454406738,-0.08935904502868652
1663861821362242600,7.74424267578125,-0.0030393600463867188,-0.02063274383544922,-0.10457181930541992
1663861821372160800,7.754160888671875,0.0017604827880859375,0.008768200874328613,-0.12449479103088379
1663861821382048500,7.764048583984375,-0.007685661315917969,0.02317214012145996,-0.12969040870666504
1663861821391936000,7.77393603515625,-0.021802902221679688,0.03273928165435791,-0.11549234390258789
1663861821401793300,7.783793212890625,0.006554603576660156,0.0328221321105957,-0.07519054412841797
1663861821411650600,7.793650634765625,0.022579193115234375,0.028111815452575684,-0.03284621238708496
1663861821421568800,7.80356884765625,-0.02756500244140625,0.01880800724029541,-0.0006921291351318359
1663861821431456300,7.813456298828125,-0.02972698211669922,0.002238154411315918,0.028459787368774414
1663861821441344000,7.823343994140625,-0.008177757263183594,0.0045822858810424805,0.06143641471862793
1663861821451231700,7.833231689453125,-0.0034074783325195312,0.020966649055480957,0.05600380897521973
1663861821461089000,7.843089111328125,-0.015250205993652344,0.022879362106323242,0.06968975067138672
1663861821470976800,7.852976806640625,0.01076507568359375,-0.00352632999420166,0.09734916687011719
1663861821480864300,7.8628642578125,-0.03193950653076172,-0.008340001106262207,0.11049461364746094
1663861821490752000,7.872751953125,-0.01280975341796875,0.001194000244140625,0.14250993728637695
1663861821500639700,7.8826396484375,-0.019870758056640625,-0.02470409870147705,0.1433250904083252
1663861821510497000,7.8924970703125,-0.01973724365234375,-0.012539386749267578,0.1393442153930664
1663861821520415200,7.902415283203125,-0.026582717895507812,0.0065348148345947266,0.12798500061035156
1663861821530302700,7.912302734375,-0.021429061889648438,-0.02419435977935791,0.1423327922821045
1663861821540190500,7.9221904296875,-0.01870441436767578,-0.023717164993286133,0.1304779052734375
1663861821550078200,7.932078125,-0.034870147705078125,-0.004240870475769043,0.10461735725402832
1663861821559966000,7.941966064453125,-0.029581069946289062,-0.0038775205612182617,0.07922053337097168
1663861821569853700,7.951853759765625,-0.012667655944824219,0.006229996681213379,0.08253192901611328
1663861821579741200,7.9617412109375,-0.00545501708984375,0.011629223823547363,0.06694889068603516
1663861821589629000,7.97162890625,0.0040645599365234375,-0.0064465999603271484,0.034801483154296875
1663861821599486200,7.981486328125,0.02045154571533203,0.0016845464706420898,-0.006125926971435547
1663861821609374000,7.9913740234375,0.02469635009765625,0.023984313011169434,-0.017801523208618164
1663861821619261400,8.001261474609375,0.02895069122314453,-0.006006360054016113,-0.04836320877075195
1663861821629149200,8.011149169921875,0.01664447784423828,0.0021251440048217773,-0.05957818031311035
1663861821639037000,8.021036865234375,-0.014336585998535156,0.007877826690673828,-0.04221701622009277
1663861821648924700,8.030924560546875,0.009350776672363281,0.010927557945251465,-0.07204151153564453
1663861821658781700,8.04078173828125,0.006649017333984375,0.013789653778076172,-0.06571078300476074
1663861821668669400,8.05066943359375,0.0016183853149414062,0.02113330364227295,-0.07109451293945312
1663861821678557200,8.06055712890625,-0.026826858520507812,0.014189600944519043,-0.04830026626586914
1663861821688414500,8.07041455078125,-0.01952075958251953,0.016544461250305176,-0.046808719635009766
1663861821698302200,8.08030224609375,-0.0005178451538085938,0.03055894374847412,-0.04315686225891113
1663861821708159200,8.0901591796875,-0.0077838897705078125,0.03243815898895264,-0.05344820022583008
1663861821718077400,8.100077392578125,0.015718460083007812,0.03173267841339111,-0.049486398696899414
1663861821727965200,8.109965087890625,0.029394149780273438,0.023961544036865234,-0.04547715187072754
1663861821737853000,8.11985302734375,0.01928424835205078,0.02099013328552246,-0.01798105239868164
1663861821747740700,8.12974072265625,-0.00006103515625,0.020577669143676758,-0.0357518196105957
1663861821757597700,8.13959765625,-0.026153564453125,-0.002934098243713379,-0.018096208572387695
1663861821767455000,8.149455078125,-0.042453765869140625,-0.02116227149963379,-0.026517629623413086
1663861821777342700,8.1593427734375,-0.04897594451904297,-0.0013742446899414062,-0.01623988151550293
1663861821787230200,8.169230224609375,-0.03185844421386719,-0.002868056297302246,-0.013314962387084961
1663861821797118000,8.179117919921875,-0.0032958984375,-0.011168479919433594,-0.0009257793426513672
1663861821806975200,8.188975341796874,0.027169227600097656,-0.033660054206848145,-0.014657735824584961
1663861821816893400,8.1988935546875,0.03832530975341797,-0.011485695838928223,-0.004590749740600586
1663861821826750500,8.20875048828125,0.030546188354492188,0.010131359100341797,0.033373117446899414
1663861821836638200,8.21863818359375,0.03467273712158203,0.014858722686767578,0.05650496482849121
1663861821846526000,8.22852587890625,0.008113861083984375,0.012592792510986328,0.0345461368560791
1663861821856383200,8.23838330078125,-0.008606910705566406,0.022087454795837402,0.017790555953979492
1663861821866270700,8.248270751953125,0.024347305297851562,-0.00632786750793457,0.015629291534423828
1663861821876189000,8.25818896484375,0.023759841918945312,-0.013082385063171387,-0.01464390754699707
1663861821886076700,8.26807666015625,0.018537521362304688,0.0013729333877563477,-0.009300470352172852
1663861821895964400,8.27796435546875,0.011056900024414062,-0.015070796012878418,-0.013492107391357422
1663861821905852200,8.28785205078125,0.017864227294921875,-0.0218048095703125,0.0011162757873535156
1663861821915740000,8.297739990234374,0.03863716125488281,-0.014188408851623535,-0.007972240447998047
1663861821925627600,8.307627685546874,-0.0021276473999023438,-0.03507089614868164,-0.040451765060424805
1663861821935515100,8.31751513671875,-0.009235382080078125,-0.008533239364624023,-0.02538323402404785
1663861821945403000,8.32740283203125,0.0025930404663085938,0.003415822982788086,-0.031651973724365234
1663861821955260200,8.33726025390625,0.018959999084472656,-0.015628576278686523,-0.014344215393066406
1663861821965148000,8.34714794921875,0.006789207458496094,0.0034093856811523438,0.0050466060638427734
1663861821975035400,8.357035400390625,0.006638526916503906,0.010207772254943848,-0.011301755905151367
1663861821984923100,8.366923095703125,0.015956878662109375,0.012215614318847656,-0.018139123916625977
1663861821994811000,8.376810791015625,-0.0008134841918945312,-0.02078866958618164,-0.031914710998535156
1663861822004698600,8.38669873046875,-0.02671051025390625,0.00803673267364502,-0.02436542510986328
1663861822014586400,8.39658642578125,-0.0050487518310546875,0.01295483112335205,-0.024228572845458984
1663861822024473900,8.406473876953125,-0.019135475158691406,-0.019806504249572754,-0.0309298038482666
1663861822034331100,8.4163310546875,-0.016508102416992188,-0.004905104637145996,-0.0233614444732666
1663861822044219000,8.426218994140624,0.00730133056640625,0.018986225128173828,-0.011292219161987305
1663861822054076000,8.436075927734375,0.021317481994628906,0.004658818244934082,0.0029702186584472656
1663861822063963600,8.445963623046875,0.03030681610107422,-0.004683971405029297,-0.011044502258300781
1663861822073851400,8.455851318359375,0.01566314697265625,0.004995822906494141,-0.020270586013793945
1663861822083708700,8.465708740234374,-0.02230548858642578,0.0027567148208618164,-0.022256135940551758
1663861822093596200,8.47559619140625,0.013316154479980469,-0.008818387985229492,0.013580083847045898
1663861822103453400,8.485453369140625,-0.019941329956054688,-0.0037935972213745117,-0.012350082397460938
1663861822113341200,8.495341064453125,0.013297080993652344,0.008083820343017578,0.006907463073730469
1663861822123229000,8.50522900390625,0.010661125183105469,-0.0014656782150268555,0.035248517990112305
1663861822133147100,8.515147216796874,-0.008394241333007812,-0.003920793533325195,0.02312779426574707
1663861822143004200,8.525004150390625,0.0011491775512695312,0.007772922515869141,0.015811920166015625
1663861822152892000,8.534891845703125,-0.013063430786132812,-0.0065653324127197266,0.013445377349853516
1663861822162779600,8.544779541015625,-0.01293182373046875,0.0029200315475463867,0.03710675239562988
1663861822172636700,8.55463671875,0.00838470458984375,0.0027971267700195312,0.010944604873657227
1663861822182524400,8.5645244140625,0.01045989990234375,-0.03261697292327881,0.011313438415527344
1663861822192442600,8.574442626953125,0.017210960388183594,-0.018069028854370117,-0.007117748260498047
1663861822202300000,8.5842998046875,-0.020814895629882812,-0.008668661117553711,-0.018397092819213867
1663861822212187600,8.594187744140624,0.0006589889526367188,0.0006654262542724609,-0.017712116241455078
1663861822222075400,8.604075439453124,0.005324363708496094,-0.018409371376037598,-0.026667356491088867
1663861822231963000,8.613962890625,-0.008874893188476562,-0.0042716264724731445,0.004477977752685547
1663861822241850600,8.6238505859375,0.0030488967895507812,-0.009019732475280762,-0.002664327621459961
1663861822251708000,8.6337080078125,-0.004025459289550781,0.0028761625289916992,-0.0003566741943359375
1663861822261595600,8.643595703125,-0.015775680541992188,-0.0017848014831542969,-0.0073146820068359375
1663861822271513900,8.653513916015624,0.000926971435546875,-0.0016353130340576172,-0.018817424774169922
1663861822281401300,8.6634013671875,-0.013178825378417969,0.0006808042526245117,-0.016286373138427734
1663861822291289000,8.6732890625,-0.031785011291503906,0.010101675987243652,-0.0019185543060302734
1663861822301146400,8.683146484375,-0.0029811859130859375,0.0006233453750610352,-0.009080171585083008
1663861822311034000,8.6930341796875,0.020615577697753906,0.002950429916381836,0.007549762725830078
1663861822320921600,8.702921630859375,0.013276100158691406,-0.002014756202697754,0.026072263717651367
1663861822330809300,8.712809326171875,0.0036487579345703125,0.016644835472106934,0.023305654525756836
1663861822340697000,8.722697021484375,0.0059051513671875,0.027913808822631836,0.01373744010925293
1663861822350584800,8.732584716796875,0.012851715087890625,0.02019786834716797,0.023093700408935547
1663861822360441900,8.74244189453125,0.019626617431640625,0.01266622543334961,0.02541041374206543
1663861822370329600,8.75232958984375,-0.009047508239746094,0.007471442222595215,0.037224531173706055
1663861822380217300,8.76221728515625,0.00278472900390625,0.028142094612121582,0.02767038345336914
1663861822390105000,8.77210498046875,-0.0044078826904296875,0.013223886489868164,0.008864164352416992
1663861822399962000,8.781962158203125,-0.009084701538085938,0.0033091306686401367,0.0019147396087646484
1663861822409849900,8.791849853515625,-0.060774803161621094,-0.008500337600708008,0.009112358093261719
1663861822419737600,8.801737548828125,-0.045696258544921875,-0.005668759346008301,0.006663322448730469
1663861822429625300,8.811625244140625,-0.042654991149902344,0.002034902572631836,0.023085832595825195
1663861822439513000,8.82151318359375,-0.032608985900878906,-0.02089512348175049,0.02040386199951172
1663861822449400800,8.83140087890625,-0.027364730834960938,-0.03657090663909912,0.03637957572937012
1663861822459288300,8.841288330078125,0.04599285125732422,-0.0237656831741333,0.012358665466308594
1663861822469176000,8.851176025390625,0.03576183319091797,0.0028138160705566406,0.031033754348754883
1663861822479063800,8.861063720703125,0.035190582275390625,0.028820276260375977,0.03271293640136719
1663861822488951600,8.87095166015625,-0.021932601928710938,0.0355076789855957,0.04164576530456543
1663861822498808600,8.88080859375,-0.028726577758789062,0.03986358642578125,0.02477717399597168
1663861822508696300,8.8906962890625,-0.033138275146484375,0.03462338447570801,0.029698610305786133
1663861822518584000,8.900583984375,-0.042171478271484375,0.03194260597229004,0.008526325225830078
1663861822528471800,8.910471923828124,-0.008627891540527344,0.029230356216430664,0.0017104148864746094
1663861822538359600,8.920359619140624,0.01977825164794922,0.019317030906677246,0.013411998748779297
1663861822548247000,8.9302470703125,0.02659130096435547,0.01179361343383789,0.015315771102905273
1663861822558134800,8.940134765625,0.002681732177734375,-0.0025740861892700195,-0.018152475357055664
1663861822568022500,8.9500224609375,0.02150440216064453,0.009299278259277344,-0.00860142707824707
1663861822577879800,8.9598798828125,0.01637744903564453,0.009327054023742676,-0.005963563919067383
1663861822587767300,8.969767333984375,0.013625144958496094,0.009429693222045898,-0.026691913604736328
1663861822597624600,8.97962451171875,-0.010244369506835938,-0.004837512969970703,0.004731178283691406
1663861822607512300,8.98951220703125,-0.019547462463378906,0.023313045501708984,0.01432657241821289
1663861822617400000,8.999400146484374,0.018471717834472656,0.017925739288330078,0.011790752410888672
1663861822627287600,9.00928759765625,0.006468772888183594,0.0007609128952026367,0.016157865524291992
1663861822637175300,9.01917529296875,-0.0006580352783203125,0.012300729751586914,0.008802652359008789
1663861822647063000,9.02906298828125,0.004109382629394531,-0.004590153694152832,0.02028346061706543
1663861822656950800,9.03895068359375,-0.024161338806152344,0.0025501251220703125,0.036284446716308594
1663861822666838500,9.048838623046874,-0.018998146057128906,0.011939764022827148,0.033072471618652344
1663861822676726300,9.058726318359374,0.009570121765136719,0.028414011001586914,0.01833367347717285
1663861822686613800,9.06861376953125,-0.00002765655517578125,0.02812373638153076,0.029841899871826172
1663861822696501500,9.07850146484375,-0.011781692504882812,0.013704180717468262,0.03151440620422363
1663861822706389200,9.08838916015625,0.007292747497558594,-0.0006402730941772461,0.028465747833251953
1663861822716246500,9.09824658203125,-0.011584281921386719,0.015875577926635742,0.03710198402404785
1663861822726134000,9.108134033203125,-0.02546215057373047,0.015641331672668457,0.03157806396484375
1663861822736021800,9.118021728515625,-0.02270030975341797,0.008420705795288086,0.05697321891784668
1663861822745879000,9.127879150390624,-0.015260696411132812,0.024877071380615234,0.022993803024291992
1663861822755736000,9.137736083984375,-0.026787757873535156,0.008106350898742676,0.010844230651855469
1663861822765654300,9.147654296875,-0.028716087341308594,0.02459585666656494,0.05304837226867676
1663861822775542000,9.1575419921875,0.01418304443359375,0.012437820434570312,0.030783891677856445
1663861822785429800,9.1674296875,0.006954193115234375,0.026368021965026855,0.03469562530517578
1663861822795287000,9.177287109375,-0.0001659393310546875,0.009468913078308105,0.03863525390625
1663861822805174500,9.187174560546875,-0.016632080078125,-0.0047228336334228516,0.00255584716796875
1663861822815062300,9.197062255859375,-0.018716812133789062,0.01657259464263916,0.009592533111572266
1663861822824919600,9.20691943359375,0.0027742385864257812,0.009155988693237305,0.009548425674438477
1663861822834807300,9.216807373046874,-0.006744384765625,0.0066291093826293945,0.004874467849731445
1663861822844664300,9.226664306640625,-0.008982658386230469,0.013567209243774414,0.014204978942871094
1663861822854552000,9.236552001953125,0.0029230117797851562,0.008638620376586914,0.014049530029296875
1663861822864470300,9.24647021484375,-0.013653755187988281,0.008371829986572266,0.006945610046386719
1663861822874327600,9.25632763671875,-0.001659393310546875,0.005781888961791992,0.004555225372314453
1663861822884245800,9.266245849609374,-0.0016269683837890625,-0.008397221565246582,0.013867855072021484
1663861822894102800,9.276102783203125,0.000705718994140625,0.017704129219055176,0.002019643783569336
1663861822903990500,9.285990478515625,0.005359649658203125,0.005929231643676758,-0.021509408950805664
1663861822913878300,9.295878173828125,0.0028972625732421875,0.008457660675048828,-0.009418010711669922
1663861822923735600,9.305735595703124,0.014644622802734375,0.013064384460449219,0.0023648738861083984
1663861822933623000,9.315623046875,-0.0021123886108398438,0.005684614181518555,0.011933565139770508
1663861822943510800,9.3255107421875,-0.0186004638671875,-0.010744810104370117,0.0023818016052246094
1663861822953398500,9.3353984375,-0.011229515075683594,-0.003330826759338379,-0.004755735397338867
1663861822963316700,9.345316650390625,0.007821083068847656,0.0038558244705200195,-0.004826545715332031
1663861822973174000,9.355174072265624,0.010024070739746094,-0.014990448951721191,-0.0070438385009765625
1663861822983061500,9.3650615234375,-0.009035110473632812,-0.002767324447631836,0.0002760887145996094
1663861822992949200,9.37494921875,0.0076236724853515625,-0.014408707618713379,0.009533166885375977
1663861823002806500,9.384806640625,0.01688098907470703,-0.0024573802947998047,0.018970012664794922
1663861823012694300,9.3946943359375,-0.014047622680664062,0.014018416404724121,0.00703740119934082
1663861823022581800,9.404581787109375,-0.011429786682128906,0.00892937183380127,0.032772064208984375
1663861823032469500,9.414469482421875,0.01468658447265625,0.013293027877807617,-0.0007615089416503906
1663861823042357200,9.424357177734375,0.016820907592773438,0.019733309745788574,0.02287459373474121
1663861823052245000,9.434244873046875,-0.009395599365234375,0.005175113677978516,0.03210139274597168
1663861823062132700,9.4441328125,-0.002178192138671875,-0.01124584674835205,0.005634307861328125
1663861823072020200,9.454020263671875,-0.07280921936035156,-0.017702579498291016,0.014940738677978516
1663861823081877500,9.46387744140625,-0.07635974884033203,-0.009815216064453125,0.021721363067626953
1663861823091734800,9.47373486328125,-0.009194374084472656,0.014622807502746582,0.04938459396362305
1663861823101622300,9.483622314453125,0.0026884078979492188,-0.006045222282409668,0.022525787353515625
1663861823111510000,9.493510009765625,0.030828475952148438,-0.00075531005859375,0.005733489990234375
1663861823121397800,9.503397705078125,0.03728199005126953,0.006699681282043457,0.019919157028198242
1663861823131316000,9.51331591796875,0.008427619934082031,0.011425018310546875,0.019448518753051758
1663861823141203700,9.52320361328125,-0.024641990661621094,0.008991599082946777,0.011945724487304688
1663861823151091500,9.533091552734374,-0.04076671600341797,0.009058237075805664,0.028302907943725586
1663861823160979200,9.542979248046874,-0.03309345245361328,0.006783127784729004,0.020949363708496094
1663861823170866700,9.55286669921875,-0.051456451416015625,-0.011855006217956543,0.0066661834716796875
1663861823180754400,9.56275439453125,0.010586738586425781,-0.004346370697021484,-0.0029020309448242188
1663861823190642200,9.57264208984375,0.05518627166748047,-0.00897669792175293,0.015865325927734375
1663861823200530000,9.582530029296874,0.05196952819824219,-0.008818387985229492,0.01537179946899414
1663861823210387000,9.592386962890625,0.0558624267578125,0.01503753662109375,0.02191615104675293
1663861823220274700,9.602274658203125,0.02902698516845703,-0.00858771800994873,0.019149303436279297
1663861823230162400,9.612162353515625,0.00965118408203125,-0.01760852336883545,0.007136344909667969
1663861823240050200,9.62205029296875,0.0282745361328125,-0.01720249652862549,-0.02105093002319336
1663861823249938000,9.63193798828125,-0.012294769287109375,0.01122748851776123,-0.025122642517089844
1663861823259825400,9.641825439453125,-0.012104988098144531,-0.005763411521911621,-0.019795894622802734
1663861823269713200,9.651713134765625,0.02579784393310547,-0.003744363784790039,-0.017017364501953125
1663861823279570400,9.6615703125,0.006561279296875,0.005385637283325195,-0.007310390472412109
1663861823289427500,9.671427490234375,-0.024086952209472656,0.012149691581726074,0.016227245330810547
1663861823299315200,9.681315185546875,-0.025981903076171875,0.007204771041870117,-0.005450248718261719
1663861823309203000,9.691202880859375,0.0051479339599609375,0.0047103166580200195,-0.010376930236816406
1663861823319090700,9.701090576171875,-0.013696670532226562,0.014048337936401367,-0.001129150390625
1663861823328978400,9.710978515625,-0.0016422271728515625,0.004491567611694336,0.005739450454711914
1663861823338866200,9.7208662109375,0.005461692810058594,-0.0024613142013549805,-0.006249666213989258
1663861823348753700,9.730753662109375,-0.018177032470703125,0.01186060905456543,-0.006248950958251953
1663861823358611000,9.74061083984375,-0.0036916732788085938,-0.00004303455352783203,0.024259090423583984
1663861823368498700,9.750498779296874,-0.015372276306152344,-0.006920337677001953,0.016570329666137695
1663861823378386400,9.760386474609374,-0.008012771606445312,-0.006588578224182129,0.02313232421875
1663861823388274000,9.77027392578125,0.008605003356933594,-0.003934025764465332,0.02263188362121582
1663861823398131200,9.780131103515625,0.006103515625,0.0010313987731933594,0.01283574104309082
1663861823408019000,9.79001904296875,-0.010521888732910156,0.012835502624511719,0.010370731353759766
1663861823417906700,9.79990673828125,-0.008024215698242188,-0.001439809799194336,0.04325222969055176
1663861823427794200,9.809794189453125,0.01091766357421875,-0.0038176774978637695,0.014382600784301758
1663861823437682000,9.819681884765625,0.0012941360473632812,-0.0013405084609985352,0.021314620971679688
1663861823447569700,9.829569580078125,0.005977630615234375,-0.013066291809082031,0.006852388381958008
1663861823457457400,9.83945751953125,-0.013001441955566406,-0.0033953189849853516,0.03510761260986328
1663861823467345200,9.84934521484375,0.006077766418457031,-0.010528564453125,0.0298001766204834
1663861823477232600,9.859232666015625,0.010650634765625,-0.01742398738861084,0.003498554229736328
1663861823487120400,9.869120361328125,-0.0036954879760742188,-0.0148240327835083,0.00600433349609375
1663861823497008000,9.879008056640625,-0.0036725997924804688,0.0017478466033935547,0.029654741287231445
1663861823506896000,9.888895751953125,-0.0012388229370117188,-0.007854104042053223,0.005619049072265625
1663861823516753000,9.8987529296875,-0.008307456970214844,-0.014794111251831055,-0.0061604976654052734
1663861823526640600,9.908640625,-0.019982337951660156,0.008975744247436523,0.015325307846069336
1663861823536528400,9.9185283203125,-0.014975547790527344,0.018242478370666504,0.008098840713500977
1663861823546416000,9.928416015625,-0.026473045349121094,0.0037238597869873047,-0.025023698806762695
1663861823556304000,9.938303955078124,-0.009591102600097656,0.0037468671798706055,-0.010394573211669922
1663861823566191400,9.94819140625,0.011721611022949219,-0.005680561065673828,0.004017353057861328
1663861823576079000,9.9580791015625,0.009191513061523438,0.0062503814697265625,0.00620269775390625
1663861823585966800,9.967966796875,0.013797760009765625,0.013283371925354004,0.010593414306640625
1663861823595824000,9.97782421875,-0.005227088928222656,-0.007963180541992188,0.005500316619873047
1663861823605712000,9.9877119140625,-0.0074748992919921875,-0.0030612945556640625,0.012357473373413086
1663861823615599400,9.997599365234375,0.00215911865234375,0.004037976264953613,-0.009356260299682617
1663861823625487000,10.007487060546875,-0.0001850128173828125,0.0017273426055908203,-0.009429454803466797
1663861823635374800,10.017374755859375,0.00926971435546875,-0.007846951484680176,0.014154911041259766
1663861823645262600,10.0272626953125,0.006779670715332031,-0.033660054206848145,0.020986557006835938
1663861823655119600,10.03711962890625,-0.005146026611328125,-0.014141321182250977,0.013650655746459961
1663861823665007400,10.04700732421875,0.020849227905273438,-0.009565591812133789,0.013527631759643555
1663861823674895000,10.05689501953125,0.015764236450195312,-0.0073587894439697266,0.01824498176574707
1663861823684782800,10.066782958984374,0.017830848693847656,-0.00280606746673584,0.006397247314453125
1663861823694670600,10.076670654296874,0.031653404235839844,-0.007724761962890625,0.013447284698486328
1663861823704558000,10.08655810546875,-0.0042057037353515625,0.013336420059204102,0.011075973510742188
1663861823714415400,10.096415283203125,0.01702404022216797,-0.0012854337692260742,0.020533323287963867
1663861823724303000,10.10630322265625,-0.02332592010498047,0.005729556083679199,0.01569962501525879
1663861823734160100,10.11616015625,-0.02534961700439453,-0.017643213272094727,0.0037784576416015625
1663861823744047900,10.1260478515625,-0.041481971740722656,-0.021512150764465332,0.013135433197021484
1663861823753935600,10.135935546875,-0.026763916015625,-0.011246681213378906,0.031958818435668945
1663861823763823400,10.1458232421875,-0.0028676986694335938,-0.005771994590759277,0.03388643264770508
1663861823773711000,10.155711181640624,0.02773571014404297,-0.007532358169555664,-0.009077072143554688
1663861823783598600,10.1655986328125,0.04140186309814453,0.004588007926940918,-0.02081584930419922
1663861823793486300,10.175486328125,0.03136444091796875,0.02811121940612793,0.016882658004760742
1663861823803374000,10.1853740234375,-0.0185394287109375,-0.0030126571655273438,0.002276182174682617
1663861823813261800,10.19526171875,-0.03236865997314453,0.011333465576171875,0.009290933609008789
1663861823823149600,10.205149658203124,-0.013055801391601562,0.013778090476989746,0.004532575607299805
1663861823833006600,10.215006591796875,-0.01056671142578125,0.002049684524536133,-0.00711369514465332
1663861823842894300,10.224894287109375,0.0037250518798828125,-0.01665341854095459,-0.009350299835205078
1663861823852751600,10.234751708984374,0.029511451721191406,-0.014066219329833984,0.019266605377197266
1663861823862639400,10.244639404296874,0.045538902282714844,-0.025732994079589844,0.023541688919067383
1663861823872496400,10.254496337890625,0.03774452209472656,-0.013571619987487793,0.020690441131591797
1663861823882414600,10.26441455078125,0.01120758056640625,-0.02056300640106201,-0.010158777236938477
1663861823892302300,10.27430224609375,0.001590728759765625,-0.010816335678100586,0.008933782577514648
1663861823902190000,10.284190185546874,-0.005596160888671875,-0.0060623884201049805,-0.0025742053985595703
1663861823912077800,10.294077880859374,-0.005596160888671875,-0.001372694969177246,-0.009193897247314453
1663861823921965300,10.30396533203125,-0.010256767272949219,-0.0017061233520507812,-0.020492076873779297
1663861823931853000,10.31385302734375,-0.02423095703125,0.0074912309646606445,-0.012890338897705078
1663861823941710300,10.32371044921875,-0.02382659912109375,0.023615360260009766,-0.02199101448059082
1663861823951598000,10.33359814453125,-0.011653900146484375,0.011101961135864258,-0.023875951766967773
1663861823961455000,10.343455078125,-0.013803482055664062,-0.0035724639892578125,-0.01395106315612793
1663861823971342800,10.3533427734375,-0.013540267944335938,0.012915849685668945,-0.004414081573486328
1663861823981230600,10.363230712890624,0.014997482299804688,0.022104501724243164,0.0119171142578125
1663861823991118300,10.373118408203124,0.0030050277709960938,0.012370944023132324,0.004563093185424805
1663861824000975400,10.382975341796875,0.002964019775390625,-0.0017933845520019531,0.02321481704711914
1663861824010863000,10.392863037109375,0.021765708923339844,0.0030603408813476562,0.006226301193237305
1663861824020750800,10.402750732421875,0.0049762725830078125,0.005422711372375488,0.015324592590332031
1663861824030638600,10.412638671875,-0.004496574401855469,-0.02063894271850586,0.022044658660888672
1663861824040526000,10.422526123046875,-0.0068149566650390625,0.0078084468841552734,0.02188563346862793
1663861824050383400,10.43238330078125,-0.016150474548339844,-0.004407405853271484,0.002920866012573242
1663861824060301600,10.442301513671875,-0.0041179656982421875,-0.014153718948364258,0.01251220703125
1663861824070189300,10.452189208984375,-0.020582199096679688,0.011423110961914062,0.005702495574951172
1663861824080077000,10.4620771484375,-0.022706985473632812,0.017757892608642578,0.0015532970428466797
1663861824089964800,10.47196484375,0.019904136657714844,0.009907126426696777,0.03287458419799805
1663861824099852300,10.481852294921875,0.026566505432128906,-0.007378697395324707,0.023457050323486328
1663861824109740000,10.491739990234375,0.023667335510253906,-0.0008890628814697266,0.01903510093688965
1663861824119627800,10.501627685546875,0.023183822631835938,0.0077838897705078125,0.02644205093383789
1663861824129515500,10.511515625,0.0320892333984375,-0.004858851432800293,0.007931709289550781
1663861824139403300,10.5214033203125,0.01730632781982422,0.0016162395477294922,-0.005562305450439453
1663861824149260300,10.53126025390625,0.0028095245361328125,0.003170490264892578,0.01638317108154297
1663861824159148000,10.54114794921875,-0.023197174072265625,-0.004671692848205566,-0.0021789073944091797
1663861824169005300,10.55100537109375,0.0006580352783203125,-0.024068117141723633,0.0054759979248046875
1663861824178892800,10.560892822265625,-0.015928268432617188,-0.012417912483215332,-0.010548591613769531
1663861824188780500,10.570780517578125,-0.027523040771484375,0.010893106460571289,0.009010791778564453
1663861824198668300,10.580668212890625,-0.024750709533691406,0.0009474754333496094,-0.009657621383666992
1663861824208556000,10.59055615234375,0.001544952392578125,-0.018270134925842285,-0.004591941833496094
1663861824218443800,10.60044384765625,0.02267932891845703,0.005268096923828125,-0.006639719009399414
1663861824228331300,10.610331298828125,-0.003650665283203125,0.0025162696838378906,-0.020313024520874023
1663861824238219000,10.620218994140625,0.0198822021484375,0.013842225074768066,-0.01717972755432129
1663861824248106800,10.630106689453125,0.0030107498168945312,0.0016556978225708008,-0.0071468353271484375
1663861824257994500,10.639994384765625,-0.0089111328125,-0.0009170770645141602,0.00988626480102539
1663861824267882200,10.64988232421875,-0.032370567321777344,0.0035353899002075195,0.012435436248779297
1663861824277739300,10.6597392578125,-0.0013151168823242188,0.007956862449645996,0.01738882064819336
1663861824287627000,10.669626953125,0.005747795104980469,-0.008882522583007812,0.0031037330627441406
1663861824297514800,10.6795146484375,0.0055866241455078125,0.0004140138626098633,0.008121728897094727
1663861824307402500,10.689402587890624,0.012495040893554688,0.00017523765563964844,0.01068878173828125
1663861824317290200,10.699290283203124,0.012288093566894531,-0.002504110336303711,0.005938291549682617
1663861824327177700,10.709177734375,-0.013853073120117188,-0.021512389183044434,0.017849206924438477
1663861824337035000,10.719034912109375,-0.01607036590576172,-0.014263510704040527,0.006199359893798828
1663861824346922800,10.7289228515625,-0.039437294006347656,-0.009491682052612305,-0.014662742614746094
1663861824356810500,10.738810546875,-0.01535797119140625,-0.007155179977416992,-0.009176969528198242
1663861824366667500,10.74866748046875,0.02013683319091797,0.0020644664764404297,-0.020364761352539062
1663861824376524800,10.75852490234375,0.010331153869628906,0.0013588666915893555,-0.0077860355377197266
1663861824386443000,10.768443115234374,-0.0040302276611328125,-0.008538603782653809,-0.00014066696166992188
1663861824396330800,10.778330810546874,-0.008788108825683594,0.012193083763122559,-0.006510496139526367
1663861824406218200,10.78821826171875,-0.025269508361816406,0.009140968322753906,-0.015041351318359375
1663861824416106000,10.79810595703125,-0.04385852813720703,0.013309240341186523,-0.02342987060546875
1663861824425993700,10.80799365234375,-0.07155990600585938,0.013270974159240723,-0.005892753601074219
1663861824435881500,10.817881591796874,-0.053999900817871094,-0.007774233818054199,0.0015268325805664062
1663861824445769200,10.827769287109374,-0.008435249328613281,-0.011889815330505371,-0.010230779647827148
1663861824455656700,10.83765673828125,-0.010686874389648438,-0.018292546272277832,-0.012473344802856445
1663861824465514000,10.847513916015625,0.020036697387695312,-0.026930689811706543,-0.014574766159057617
1663861824475401700,10.857401611328125,0.03612518310546875,-0.01903986930847168,-0.02370452880859375
1663861824485258800,10.8672587890625,0.03318023681640625,-0.0066863298416137695,-0.014060735702514648
1663861824495146500,10.877146484375,0.0067386627197265625,0.016991734504699707,0.009670019149780273
1663861824505034200,10.8870341796875,-0.002811431884765625,0.02154839038848877,-0.0021965503692626953
1663861824514922000,10.896921875,0.0019168853759765625,0.0024445056915283203,-0.0044460296630859375
1663861824524809700,10.906809814453124,-0.007599830627441406,-0.0023720264434814453,-0.025292396545410156
1663861824534697500,10.916697509765624,0.004239082336425781,-0.019081950187683105,-0.01510477066040039
1663861824544585000,10.9265849609375,-0.0029420852661132812,-0.02622675895690918,-0.005095005035400391
1663861824554472700,10.93647265625,0.023016929626464844,-0.028529047966003418,-0.0048940181732177734
1663861824564330000,10.946330078125,0.022645950317382812,-0.014316797256469727,-0.00469660758972168
1663861824574187000,10.95618701171875,-0.006011962890625,-0.002552628517150879,0.0050122737884521484
1663861824584105200,10.966105224609375,-0.010639190673828125,0.0018291473388671875,0.007478475570678711
1663861824593962500,10.97596240234375,0.015408515930175781,-0.007889509201049805,0.0005209445953369141
1663861824603850200,10.985850341796874,-0.017884254455566406,-0.005813121795654297,0.0033071041107177734
1663861824613738000,10.995738037109374,-0.010550498962402344,-0.0015619993209838867,0.008295059204101562
1663861824623625500,11.00562548828125,-0.005667686462402344,0.007289528846740723,0.022556781768798828
1663861824633482800,11.015482666015625,-0.010245323181152344,0.006676077842712402,0.0057637691497802734
1663861824643401000,11.02540087890625,-0.00295257568359375,-0.012630462646484375,0.0008988380432128906
1663861824653288700,11.035288818359374,-0.02872943878173828,-0.0008885860443115234,0.01718759536743164
1663861824663176400,11.045176513671874,-0.037558555603027344,0.00370943546295166,0.007099151611328125
1663861824673033500,11.055033447265625,-0.02272319793701172,-0.015152812004089355,0.016106605529785156
1663861824682921200,11.064921142578125,0.020064353942871094,0.008776068687438965,0.0203554630279541
1663861824692778500,11.074778564453124,-0.013202667236328125,0.017952322959899902,0.02464747428894043
1663861824702696700,11.08469677734375,0.012919425964355469,0.019935131072998047,0.05250239372253418
1663861824712553700,11.0945537109375,-0.0013942718505859375,0.010210275650024414,0.04446887969970703
1663861824722441500,11.10444140625,0.017469406127929688,-0.013367652893066406,0.015382528305053711
1663861824732329200,11.1143291015625,-0.025200843811035156,-0.0013780593872070312,0.03869152069091797
1663861824742217000,11.124217041015624,-0.013067245483398438,-0.0037842988967895508,0.03355526924133301
1663861824752104400,11.1341044921875,-0.020006179809570312,0.0009167194366455078,0.02635669708251953
1663861824761961700,11.143961669921875,-0.0032205581665039062,-0.008552193641662598,0.009546756744384766
1663861824771880000,11.1538798828125,0.00861358642578125,-0.010943293571472168,0.01175546646118164
1663861824781767700,11.163767578125,0.0155487060546875,-0.008788824081420898,0.02109837532043457
1663861824791655400,11.173655517578124,0.005843162536621094,0.003026247024536133,0.0067980289459228516
1663861824801543200,11.183543212890624,0.012770652770996094,-0.008986473083496094,0.016293048858642578
1663861824811430700,11.1934306640625,0.005478858947753906,-0.039644598960876465,0.009139776229858398
1663861824821288000,11.203287841796875,-0.0017070770263671875,-0.006244659423828125,-0.01200246810913086
1663861824831175700,11.21317578125,-0.011139869689941406,-0.02505362033843994,-0.006916999816894531
1663861824841032700,11.22303271484375,0.000759124755859375,-0.017581701278686523,0.005216121673583984
1663861824850920400,11.23292041015625,-0.029834747314453125,-0.0009305477142333984,-0.0066907405853271484
1663861824860808200,11.24280810546875,-0.01755809783935547,-0.0009278059005737305,-0.011347055435180664
1663861824870665500,11.25266552734375,-0.0007047653198242188,-0.02208399772644043,-0.00907588005065918
1663861824880553000,11.262552978515625,-0.007716178894042969,-0.012333035469055176,-0.004362344741821289
1663861824890440700,11.272440673828125,0.025382041931152344,-0.002655625343322754,-0.0019791126251220703
1663861824900328400,11.282328369140625,0.020295143127441406,0.00697934627532959,-0.00690913200378418
1663861824910216200,11.29221630859375,0.03412437438964844,0.0022919178009033203,-0.03293180465698242
1663861824920073200,11.3020732421875,0.026551246643066406,-0.002317667007446289,-0.02321457862854004
1663861824929991400,11.311991455078125,0.016745567321777344,0.009536027908325195,-0.025409221649169922
1663861824939879200,11.321879150390625,-0.007042884826660156,0.018808960914611816,-0.0039255619049072266
1663861824949767000,11.331766845703125,0.00010776519775390625,0.0021184682846069336,0.010340690612792969
1663861824959654700,11.341654541015625,-0.006928443908691406,0.01622641086578369,0.007686614990234375
1663861824969511700,11.35151171875,-0.004436492919921875,-0.0004214048385620117,-0.004330873489379883
1663861824979399400,11.3613994140625,0.005092620849609375,-0.009785771369934082,0.014434337615966797
1663861824989287200,11.371287109375,-0.004382133483886719,-0.011969447135925293,0.0022890567779541016
1663861824999175000,11.3811748046875,-0.016066551208496094,-0.011629581451416016,0.018603086471557617
1663861825009062700,11.391062744140624,-0.008738517761230469,-0.011295437812805176,0.013547897338867188
1663861825018950400,11.400950439453124,-0.015639305114746094,-0.010966897010803223,0.010828733444213867
1663861825028838000,11.410837890625,-0.013006210327148438,-0.015535473823547363,0.012958765029907227
1663861825038725600,11.4207255859375,-0.005733489990234375,-0.020055532455444336,0.019880056381225586
1663861825048613400,11.43061328125,-0.026807785034179688,-0.005709528923034668,0.04072427749633789
1663861825058501000,11.440501220703124,0.0066089630126953125,0.006157994270324707,0.01648116111755371
1663861825068388900,11.450388916015624,0.013524055480957031,0.010540366172790527,0.0069806575775146484
1663861825078246000,11.460245849609375,-0.007958412170410156,0.010064244270324707,0.011967658996582031
1663861825088133600,11.470133544921875,-0.024366378784179688,0.01922428607940674,0.023821115493774414
1663861825098021400,11.480021484375,-0.03578472137451172,0.0049588680267333984,0.002330780029296875
1663861825107878400,11.48987841796875,-0.04460906982421875,-0.018244028091430664,-0.002530336380004883
1663861825117735700,11.499735595703125,-0.03919029235839844,-0.024274587631225586,0.011403083801269531
1663861825127623400,11.50962353515625,-0.017383575439453125,0.0027899742126464844,0.01578664779663086
1663861825137541600,11.519541748046874,0.0017271041870117188,-0.022521376609802246,0.022346019744873047
1663861825147429400,11.529429443359374,0.008771896362304688,-0.014316558837890625,0.016932964324951172
1663861825157316900,11.53931689453125,0.034537315368652344,-0.004100799560546875,0.0068836212158203125
1663861825167174100,11.549174072265625,0.038631439208984375,0.010563135147094727,-0.012107133865356445
1663861825177031400,11.559031494140624,-0.009126663208007812,0.02015674114227295,-0.004872322082519531
1663861825186949600,11.56894970703125,-0.009004592895507812,0.006008148193359375,0.009305477142333984
1663861825196837000,11.578837158203125,-0.025386810302734375,0.0015320777893066406,0.0068759918212890625
1663861825206724900,11.588724853515625,-0.018004417419433594,-0.0003222227096557617,-0.0024759769439697266
1663861825216582100,11.59858203125,0.008135795593261719,0.007054805755615234,0.007069110870361328
1663861825226470000,11.608469970703124,0.04099750518798828,-0.002385377883911133,-0.00738525390625
1663861825236357400,11.618357421875,0.056862831115722656,-0.016443610191345215,0.001905202865600586
1663861825246245000,11.6282451171875,0.06304264068603516,-0.025437235832214355,-0.007878780364990234
1663861825256132900,11.6381328125,0.014928817749023438,-0.006042599678039551,0.00858926773071289
1663861825266020600,11.6480205078125,0.026409149169921875,0.00351715087890625,0.003908395767211914
1663861825275908400,11.657908447265624,0.0023374557495117188,0.0036259889602661133,-0.017077207565307617
1663861825285796000,11.667796142578124,-0.028387069702148438,-0.01757216453552246,-0.03535723686218262
1663861825295683600,11.67768359375,-0.030307769775390625,-0.0032126903533935547,-0.008696556091308594
1663861825305571300,11.6875712890625,-0.013322830200195312,0.022692561149597168,-0.0061953067779541016
1663861825315428600,11.6974287109375,-0.024765968322753906,0.024547934532165527,-0.0111236572265625
1663861825325316400,11.70731640625,-0.0053691864013671875,0.01462090015411377,-0.009123086929321289
1663861825335173400,11.71717333984375,0.00428009033203125,0.007084369659423828,0.004724264144897461
1663861825345061000,11.72706103515625,0.018442153930664062,-0.014211177825927734,-0.007554531097412109
1663861825354918400,11.73691845703125,0.001789093017578125,-0.00915062427520752,0.0037958621978759766
1663861825364836600,11.746836669921874,-0.02878570556640625,0.01243293285369873,0.017521381378173828
1663861825374724000,11.75672412109375,-0.009478569030761719,0.003138422966003418,0.019443750381469727
1663861825384611800,11.76661181640625,0.0025377273559570312,0.0011057853698730469,0.01396322250366211
1663861825394499600,11.77649951171875,0.014311790466308594,-0.0009478330612182617,0.013397693634033203
1663861825404387300,11.78638720703125,0.04240131378173828,0.013299822807312012,0.015197277069091797
1663861825414244400,11.796244384765625,-0.0005521774291992188,-0.012941837310791016,0.02628350257873535
1663861825424132000,11.806132080078125,-0.014562606811523438,-0.008006095886230469,0.006577968597412109
1663861825433989400,11.8159892578125,-0.030777931213378906,0.003783583641052246,0.00410151481628418
1663861825443907600,11.825907470703125,-0.0161285400390625,0.013032793998718262,0.00636601448059082
1663861825453795300,11.83579541015625,0.0077304840087890625,0.012824296951293945,0.013200759887695312
1663861825463682800,11.845682861328125,0.014674186706542969,-0.022609829902648926,0.00815439224243164
1663861825473540000,11.8555400390625,0.0026865005493164062,-0.01979243755340576,0.017311573028564453
1663861825483427800,11.865427734375,0.004979133605957031,0.001912832260131836,0.021723508834838867
1663861825493285000,11.87528515625,0.00018978118896484375,-0.0005480051040649414,0.00018739700317382812
1663861825503203300,11.885203369140624,0.007258415222167969,-0.00765228271484375,0.01901555061340332
1663861825513090800,11.8950908203125,0.002391815185546875,-0.009822607040405273,0.011751174926757812
1663861825522978600,11.904978515625,0.011698722839355469,-0.023720264434814453,0.007052421569824219
1663861825532866300,11.9148662109375,-0.0025949478149414062,-0.009120583534240723,-0.007314205169677734
1663861825542754000,11.924754150390624,0.004559516906738281,0.009739279747009277,0.00918269157409668
1663861825552641800,11.934641845703124,0.0021610260009765625,-0.011628150939941406,-0.019338607788085938
1663861825562529300,11.944529296875,-0.02609539031982422,0.0027358531951904297,-0.014442920684814453
1663861825572417000,11.9544169921875,-0.0020322799682617188,0.01448976993560791,-0.023969411849975586
1663861825582274300,11.9642744140625,-0.0066890716552734375,0.0002684593200683594,-0.016640424728393555
1663861825592162000,11.974162109375,0.005221366882324219,-0.006635904312133789,-0.02829146385192871
1663861825602049500,11.984049560546875,-0.03726387023925781,-0.0019366741180419922,-0.01830434799194336
1663861825611937300,11.993937255859375,-0.0060443878173828125,0.00503993034362793,-0.013195037841796875
1663861825621825000,12.003824951171875,0.022310256958007812,0.002428412437438965,-0.0011420249938964844
1663861825631712800,12.013712646484375,-0.011021614074707031,-0.011737704277038574,0.015329360961914062
1663861825641600500,12.0236005859375,0.0009450912475585938,0.004956364631652832,-0.006134986877441406
1663861825651457500,12.03345751953125,0.005634307861328125,-0.004436850547790527,0.005723237991333008
1663861825661314800,12.043314697265625,-0.0038890838623046875,-0.011345148086547852,0.003261089324951172
1663861825671202600,12.05320263671875,-0.020239830017089844,-0.011120080947875977,-0.020575761795043945
1663861825681090000,12.063090087890625,-0.00339508056640625,-0.003831624984741211,-0.00860738754272461
1663861825690977800,12.072977783203125,-0.0009784698486328125,-0.01315462589263916,0.010347366333007812
1663861825700865500,12.082865478515625,0.017862319946289062,-0.017519235610961914,0.0030851364135742188
1663861825710722800,12.092722900390624,0.027004241943359375,0.0015083551406860352,-0.013463735580444336
1663861825720610300,12.1026103515625,0.00302886962890625,0.0013605356216430664,-0.00855398178100586
1663861825730498000,12.112498046875,-0.0017824172973632812,0.0036748647689819336,-0.015266895294189453
1663861825740355300,12.122355224609375,-0.00884246826171875,0.001293778419494629,0.001531839370727539
1663861825750273500,12.1322734375,-0.011073112487792969,-0.0034030675888061523,-0.005491018295288086
1663861825760130800,12.142130859375,-0.001461029052734375,-0.0033377408981323242,-0.0007104873657226562
1663861825770049000,12.152049072265624,-0.0014753341674804688,-0.005760908126831055,-0.0005011558532714844
1663861825779936500,12.1619365234375,-0.029730796813964844,0.01055598258972168,0.002071380615234375
1663861825789824300,12.17182421875,0.00373077392578125,0.024260282516479492,0.018616437911987305
1663861825799712000,12.1817119140625,-0.012844085693359375,-0.0067719221115112305,-0.005142927169799805
1663861825809569300,12.1915693359375,-0.010347366333007812,-0.01353764533996582,-0.004860877990722656
1663861825819456800,12.201456787109375,-0.031429290771484375,-0.015299677848815918,0.011814594268798828
1663861825829344500,12.211344482421875,-0.06159496307373047,0.008996725082397461,0.02347397804260254
1663861825839232300,12.221232177734375,-0.030023574829101562,0.00006973743438720703,0.011296510696411133
1663861825849120000,12.2311201171875,-0.013124465942382812,-0.010947704315185547,0.01812601089477539
1663861825858977000,12.24097705078125,0.017635345458984375,-0.012699246406555176,-0.010333538055419922
