time,seconds_elapsed,z,y,x
1663861813838488000,0.220488037109375,7.2447357177734375,0.044189453125,-2.2328948974609375
1663861813848375800,0.230375732421875,8.623809814453125,0.42486572265625,-2.1179656982421875
1663861813858263300,0.24026318359375,9.756256103515625,0.448822021484375,-2.1395111083984375
1663861813868181500,0.250181396484375,9.725128173828125,-0.00848388671875,-2.4794921875
1663861813878008300,0.26000830078125,10.08905029296875,0.4990997314453125,-2.6973724365234375
1663861813887896000,0.26989599609375,11.446563720703125,1.116790771484375,-3.1786041259765625
1663861813897753000,0.279753173828125,8.77703857421875,1.34185791015625,-3.2288818359375
1663861813907610400,0.2896103515625,5.8441314697265625,1.380157470703125,-2.4794921875
1663861813917467400,0.29946728515625,7.2710723876953125,1.696197509765625,-1.3254852294921875
1663861813927385600,0.309385498046875,9.090667724609375,2.1367340087890625,-0.667083740234375
1663861813937243000,0.319242919921875,10.287765502929688,2.0816650390625,-0.592864990234375
1663861813947161000,0.3291611328125,11.063491821289062,1.284393310546875,-0.5904693603515625
1663861813957048800,0.339048828125,11.295730590820312,0.5781097412109375,-0.6072235107421875
1663861813966936600,0.3489365234375,10.766616821289062,0.386566162109375,-0.1882476806640625
1663861813976824300,0.35882421875,9.43304443359375,1.10003662109375,0.621002197265625
1663861813986681300,0.368681396484375,8.449020385742188,2.194183349609375,0.348052978515625
1663861813996538600,0.37853857421875,8.812942504882812,2.658660888671875,-1.7995452880859375
1663861814006456800,0.388456787109375,9.260665893554688,1.9380035400390625,-4.361328125
1663861814016344600,0.398344482421875,9.270233154296875,0.5062713623046875,-3.6430816650390625
1663861814026232000,0.408232177734375,10.112991333007812,0.0825042724609375,-1.533782958984375
1663861814036119800,0.418119873046875,11.48248291015625,1.061737060546875,-0.5377960205078125
1663861814046007600,0.428007568359375,10.613388061523438,2.5605010986328125,0.304962158203125
1663861814055895300,0.437895263671875,8.446624755859375,4.0281524658203125,1.552337646484375
1663861814065783000,0.447782958984375,7.072357177734375,4.2938995361328125,2.11737060546875
1663861814075670500,0.45767041015625,7.5871124267578125,3.2955169677734375,1.0423736572265625
1663861814085527800,0.46752783203125,9.746688842773438,1.993072509765625,-0.0589599609375
1663861814095415600,0.47741552734375,9.6964111328125,0.8007659912109375,-0.6072235107421875
1663861814105303300,0.48730322265625,9.294174194335938,0.5278167724609375,0.020050048828125
1663861814115190800,0.497190673828125,8.829696655273438,1.4567718505859375,1.07110595703125
1663861814125078500,0.50707861328125,7.96539306640625,2.553314208984375,1.48291015625
1663861814134966300,0.51696630859375,7.5966949462890625,3.451141357421875,1.1836395263671875
1663861814144823600,0.526823486328125,8.611831665039062,3.4942474365234375,1.0208282470703125
1663861814154711000,0.5367109375,9.969345092773438,2.8094940185546875,0.4869232177734375
1663861814164598800,0.546598876953125,9.9932861328125,1.95477294921875,-0.255279541015625
1663861814174486500,0.556486572265625,9.650909423828125,1.3825531005859375,-0.097259521484375
1663861814184374300,0.566374267578125,9.308547973632812,1.835052490234375,0.7933807373046875
1663861814194262000,0.576261962890625,8.453811645507812,2.47430419921875,1.2315216064453125
1663861814204119000,0.586119140625,8.274246215820312,2.6395111083984375,0.8771820068359375
1663861814214006800,0.5960068359375,9.061935424804688,2.43121337890625,-0.391754150390625
1663861814223864000,0.605864013671875,9.478530883789062,2.3976898193359375,-1.3518218994140625
1663861814233751800,0.615751708984375,9.646133422851562,2.2181243896484375,-1.2991485595703125
1663861814243608800,0.62560888671875,9.43304443359375,1.8781585693359375,-0.7819976806640625
1663861814253527000,0.635527099609375,9.234329223632812,2.198974609375,-0.487518310546875
1663861814263384300,0.64538427734375,9.133773803710938,2.457550048828125,-0.4587860107421875
1663861814273272000,0.65527197265625,9.356430053710938,1.81829833984375,-0.3366851806640625
1663861814283159600,0.66515966796875,9.176864624023438,1.7416839599609375,0.0847015380859375
1663861814293047300,0.67504736328125,8.9781494140625,2.41925048828125,0.6186065673828125
1663861814302935000,0.68493505859375,8.846466064453125,2.574859619140625,1.0423736572265625
1663861814312822800,0.69482275390625,9.07391357421875,2.3067169189453125,1.1692657470703125
1663861814322710500,0.70471044921875,8.985321044921875,1.949981689453125,0.7837982177734375
1663861814332598000,0.714597900390625,9.366012573242188,1.4926910400390625,0.1708831787109375
1663861814342485800,0.72448583984375,10.3955078125,0.5804901123046875,-0.4803314208984375
1663861814352373500,0.73437353515625,10.65887451171875,-0.0060882568359375,-0.5066680908203125
1663861814362261200,0.74426123046875,10.706756591796875,0.2668609619140625,0.2714385986328125
1663861814372149000,0.75414892578125,11.046737670898438,0.7600555419921875,1.4517822265625
1663861814382036500,0.764036376953125,10.0555419921875,1.0186309814453125,2.3735504150390625
1663861814391893800,0.773893798828125,8.1856689453125,1.0856781005859375,3.031951904296875
1663861814401781500,0.783781494140625,6.0979156494140625,0.8486480712890625,3.0367431640625
1663861814411669200,0.793669189453125,4.9678497314453125,0.0322265625,3.3072967529296875
1663861814421557000,0.803556884765625,4.716461181640625,-0.975738525390625,3.4988250732421875
1663861814431444500,0.813444580078125,4.51055908203125,-1.579071044921875,3.347991943359375
1663861814441303600,0.823303466796875,4.1729888916015625,-1.7777862548828125,2.8524017333984375
1663861814451191300,0.83319140625,3.8162384033203125,-1.4904937744140625,2.68719482421875
1663861814461078800,0.843078857421875,3.2033233642578125,-1.0858612060546875,2.639312744140625
1663861814470966500,0.852966552734375,2.063690185546875,-0.721954345703125,2.857177734375
1663861814480854300,0.862854248046875,0.342254638671875,-0.41070556640625,3.6448822021484375
1663861814490742000,0.872741943359375,-0.5388031005859375,-0.164093017578125,3.59698486328125
1663861814500629800,0.882629638671875,0.8618011474609375,-0.3819732666015625,1.942596435546875
1663861814510517200,0.892517333984375,2.767578125,-1.780181884765625,-0.2265472412109375
1663861814520374500,0.90237451171875,3.543304443359375,-3.6644287109375,-1.6463165283203125
1663861814530262300,0.91226220703125,2.125946044921875,-4.5287322998046875,-1.955169677734375
1663861814540150000,0.92214990234375,-0.6010589599609375,-5.0195465087890625,-1.385345458984375
1663861814550037500,0.93203759765625,-2.2913665771484375,-5.9197540283203125,-0.4803314208984375
1663861814559925200,0.94192529296875,-1.400726318359375,-6.9109649658203125,1.07110595703125
1663861814569813000,0.95181298828125,1.1203765869140625,-7.0641937255859375,2.830841064453125
1663861814579670300,0.961670166015625,2.77716064453125,-6.7433624267578125,3.6927642822265625
1663861814589557800,0.971557861328125,3.3134613037109375,-6.2022705078125,5.1292877197265625
1663861814599445500,0.981445556640625,3.2823333740234375,-6.2453765869140625,5.7589569091796875
1663861814609333200,0.991333251953125,3.8521575927734375,-7.674713134765625,6.1180877685546875
1663861814619221000,1.001220947265625,5.0205230712890625,-9.104049682617188,9.345474243164062
1663861814629108700,1.011108642578125,7.292633056640625,-8.421707153320312,14.1817626953125
1663861814638965800,1.0209658203125,9.270233154296875,-6.0394744873046875,17.133804321289062
1663861814648853500,1.030853515625,9.540786743164062,-4.2964935302734375,17.65814208984375
1663861814658741200,1.0407412109375,7.77386474609375,-4.030731201171875,16.798614501953125
1663861814668629000,1.05062890625,5.4419097900390625,-4.68914794921875,14.555252075195312
1663861814678516700,1.060516845703125,4.5201416015625,-5.3236083984375,12.836212158203125
1663861814688404200,1.070404296875,6.0907440185546875,-5.31402587890625,14.940719604492188
1663861814698292000,1.0802919921875,6.818572998046875,-4.2126922607421875,17.981353759765625
1663861814708149200,1.090149169921875,5.75555419921875,-3.1376953125,20.629348754882812
1663861814718037000,1.100037109375,5.221649169921875,-2.1847991943359375,22.345977783203125
1663861814727894000,1.10989404296875,5.614288330078125,-1.4066925048828125,22.05389404296875
1663861814737781800,1.11978173828125,5.4610595703125,-1.2367095947265625,20.119369506835938
1663861814747669500,1.12966943359375,4.36212158203125,-1.5216064453125,18.125
1663861814757557200,1.13955712890625,3.0596771240234375,-1.2271270751953125,17.071563720703125
1663861814767444700,1.14944482421875,2.085235595703125,-0.02044677734375,17.734756469726562
1663861814777332500,1.15933251953125,0.4116973876953125,0.8654022216796875,17.682083129882812
1663861814787189800,1.169189697265625,-0.428680419921875,1.0593414306640625,16.429916381835938
1663861814797077500,1.179077392578125,-0.555572509765625,1.2149658203125,14.46905517578125
1663861814806965000,1.188965087890625,-1.3767852783203125,1.114410400390625,11.9527587890625
1663861814816852700,1.198852783203125,-2.93780517578125,0.4631805419921875,9.55377197265625
1663861814826740500,1.208740478515625,-3.1532745361328125,-0.161712646484375,8.143585205078125
1663861814836628200,1.218628173828125,-4.2306671142578125,-0.015655517578125,9.7979736328125
1663861814846516000,1.228515869140625,-13.510589599609375,0.0944671630859375,13.64306640625
1663861814856403500,1.238403564453125,-12.21533203125,-2.7354736328125,12.25921630859375
1663861814866291200,1.248291259765625,-8.008712768554688,-4.0642547607421875,8.926483154296875
1663861814876179000,1.258178955078125,-6.29925537109375,-3.300506591796875,8.531448364257812
1663861814886036200,1.2680361328125,-5.554656982421875,-3.5878143310546875,7.415740966796875
1663861814895924000,1.277924072265625,-4.1253204345703125,-4.420989990234375,6.1132965087890625
1663861814905811500,1.2878115234375,-7.2186279296875,-2.6421051025390625,2.64410400390625
1663861814915699200,1.29769921875,-11.300750732421875,0.0777130126953125,-1.265625
1663861814925587000,1.3075869140625,-2.1285552978515625,-3.1400909423828125,-1.902496337890625
1663861814935474700,1.317474609375,9.016448974609375,-10.930831909179688,5.038299560546875
1663861814945331700,1.327331787109375,20.115966796875,-6.111297607421875,12.340621948242188
1663861814955219500,1.337219482421875,19.266021728515625,-4.8088531494140625,20.931015014648438
1663861814965107200,1.347107177734375,14.32440185546875,-3.247833251953125,19.463363647460938
1663861814974995000,1.356994873046875,0.9360198974609375,-2.2350921630859375,13.616729736328125
1663861814984882700,1.366882568359375,-9.064559936523438,-3.0562896728515625,10.468353271484375
1663861814994770200,1.376770263671875,-6.6344451904296875,-2.086639404296875,14.303863525390625
1663861815004658000,1.386657958984375,-4.9178009033203125,-3.1137542724609375,17.401962280273438
1663861815014515200,1.39651513671875,-2.5236053466796875,-6.4464874267578125,13.638275146484375
1663861815024403000,1.40640283203125,0.39013671875,-10.028213500976562,6.5634002685546875
1663861815034290400,1.41629052734375,0.689422607421875,-12.144683837890625,1.0088653564453125
1663861815044178200,1.42617822265625,3.9670867919921875,-13.564453125,2.1604766845703125
1663861815054035500,1.436035400390625,3.775543212890625,-12.475082397460938,3.738250732421875
1663861815063892500,1.445892578125,2.1666412353515625,-8.371429443359375,0.484527587890625
1663861815073780200,1.4557802734375,0.150726318359375,-8.249313354492188,0.905914306640625
1663861815083668000,1.46566796875,-2.1285552978515625,-9.621200561523438,2.91943359375
1663861815093525200,1.475525146484375,-4.7957000732421875,-8.385787963867188,5.0550537109375
1663861815103412700,1.485412841796875,-5.195526123046875,-7.2054443359375,6.0510406494140625
1663861815113331000,1.4953310546875,0.33746337890625,-6.52789306640625,7.1954803466796875
1663861815123188200,1.505188232421875,7.45782470703125,-5.742584228515625,8.576934814453125
1663861815133076000,1.515075927734375,0.648712158203125,-7.3610687255859375,7.05181884765625
1663861815142963700,1.524963623046875,-4.264190673828125,-12.779144287109375,2.143707275390625
1663861815152851500,1.5348515625,-4.517974853515625,-16.705642700195312,1.286590576171875
1663861815162739000,1.544739013671875,-1.8364715576171875,-14.819015502929688,5.70867919921875
1663861815172626700,1.554626708984375,3.109954833984375,-13.576416015625,3.575439453125
1663861815182514400,1.564514404296875,3.64385986328125,-8.6419677734375,4.3008880615234375
1663861815192402200,1.574402099609375,-4.7549896240234375,-5.3331756591796875,3.69036865234375
1663861815202290000,1.5842900390625,-1.9920806884765625,-5.2733306884765625,3.5562896728515625
1663861815212177400,1.594177490234375,2.908843994140625,-7.94525146484375,5.0933685302734375
1663861815222065200,1.604065185546875,-0.6226043701171875,-8.608444213867188,7.7605133056640625
1663861815231953000,1.613952880859375,-1.8125152587890625,-6.61407470703125,8.038238525390625
1663861815241840600,1.623840576171875,-1.4246673583984375,-5.66119384765625,8.155548095703125
1663861815251728400,1.633728271484375,-0.79498291015625,-2.836029052734375,9.740509033203125
1663861815261585400,1.64358544921875,-1.982513427734375,-0.8943328857421875,6.35272216796875
1663861815271473200,1.65347314453125,-0.0863037109375,-2.910247802734375,3.7262725830078125
1663861815281361000,1.66336083984375,0.912078857421875,-5.1727752685546875,2.8954925537109375
1663861815291248600,1.67324853515625,0.4212646484375,-6.88702392578125,4.774932861328125
1663861815301136100,1.68313623046875,0.710968017578125,-7.7680816650390625,3.9633026123046875
1663861815311023900,1.69302392578125,-0.1844635009765625,-8.280441284179688,3.970489501953125
1663861815320881200,1.702881103515625,-0.1581268310546875,-6.3770599365234375,4.3870849609375
1663861815330769000,1.712768798828125,0.8618011474609375,-3.8870849609375,4.85394287109375
1663861815340656400,1.722656494140625,-0.0839080810546875,-2.994049072265625,5.735015869140625
1663861815350544100,1.732544189453125,-1.3839569091796875,-3.17840576171875,5.6153106689453125
1663861815360431900,1.742431884765625,-1.7694244384765625,-5.5055694580078125,3.575439453125
1663861815370319600,1.752319580078125,-3.979278564453125,-8.517471313476562,1.197998046875
1663861815380177000,1.762177001953125,-0.43585205078125,-10.545364379882812,2.057525634765625
1663861815390064400,1.772064453125,-5.523529052734375,-8.369033813476562,0.336090087890625
1663861815399952100,1.7819521484375,-4.498809814453125,-6.7433624267578125,2.1413116455078125
1663861815409839900,1.79183984375,3.342193603515625,-2.3524017333984375,2.64410400390625
1663861815419727600,1.8017275390625,3.1075592041015625,-1.061920166015625,3.4413604736328125
1663861815429584600,1.811584716796875,-0.8380889892578125,-3.5040130615234375,2.97210693359375
1663861815439472400,1.821472412109375,-0.93145751953125,-10.916458129882812,1.96893310546875
1663861815449360100,1.831360107421875,-0.1796722412109375,-20.519607543945312,1.573883056640625
1663861815459247900,1.841247802734375,-0.979339599609375,-23.062240600585938,1.478118896484375
1663861815469135600,1.851135498046875,-2.2769927978515625,-18.137374877929688,0.98492431640625
1663861815478992600,1.86099267578125,-2.80133056640625,-10.959548950195312,1.751068115234375
1663861815488880400,1.87088037109375,-2.4565582275390625,-6.142425537109375,0.2546844482421875
1663861815498768100,1.88076806640625,-1.146942138671875,-5.5462646484375,-1.5673065185546875
1663861815508655900,1.89065576171875,-2.839630126953125,-5.7665252685546875,-1.8737640380859375
1663861815518543400,1.90054345703125,-8.035049438476562,-14.182144165039062,0.9729461669921875
1663861815528431000,1.91043115234375,-2.564300537109375,-26.071762084960938,2.7207183837890625
1663861815538318800,1.92031884765625,3.162628173828125,-24.36468505859375,7.6455841064453125
1663861815548206600,1.93020654296875,1.6542816162109375,-15.518112182617188,9.711776733398438
1663861815558094300,1.94009423828125,2.8011016845703125,-15.017730712890625,4.1045684814453125
1663861815567951400,1.949951416015625,0.7085723876953125,-9.791183471679688,4.0087890625
1663861815577839000,1.959839111328125,-1.3264923095703125,-5.436126708984375,3.3815155029296875
1663861815587726800,1.969726806640625,-1.5946502685546875,-9.077713012695312,-2.9894561767578125
1663861815597614600,1.979614501953125,-2.0375823974609375,-12.798309326171875,-6.0013580322265625
1663861815607502300,1.98950244140625,-0.483734130859375,-12.779144287109375,-3.880096435546875
1663861815617389800,1.999389892578125,1.07489013671875,-13.076034545898438,-1.4451904296875
1663861815627247000,2.0092470703125,1.73089599609375,-13.044906616210938,0.453399658203125
1663861815637134800,2.019134765625,1.0940399169921875,-12.092010498046875,0.4438323974609375
1663861815647022600,2.029022705078125,-0.069549560546875,-10.590850830078125,-0.7436981201171875
1663861815656910000,2.03891015625,0.0908660888671875,-10.404098510742188,-1.73968505859375
1663861815666797800,2.0487978515625,0.47393798828125,-11.311508178710938,-1.988677978515625
1663861815676685600,2.058685546875,0.43084716796875,-12.190170288085938,-2.2137298583984375
1663861815686573300,2.0685732421875,0.2345123291015625,-12.915618896484375,-2.3621826171875
1663861815696430300,2.078430419921875,-0.1317901611328125,-13.193344116210938,-2.4866790771484375
1663861815706318000,2.088318115234375,-0.49810791015625,-12.764785766601562,-2.5824432373046875
1663861815716205800,2.098205810546875,-0.7279510498046875,-12.020187377929688,-2.9439697265625
1663861815726093600,2.108093505859375,-0.5172576904296875,-12.017791748046875,-3.135498046875
1663861815735981300,2.117981201171875,-0.2203826904296875,-12.379318237304688,-2.9774932861328125
1663861815745868800,2.127868896484375,-0.1102447509765625,-10.736892700195312,-0.8801727294921875
1663861815755726000,2.13772607421875,0.7875823974609375,-9.8677978515625,-0.8921356201171875
1663861815765613800,2.14761376953125,1.038970947265625,-10.083282470703125,-1.3254852294921875
1663861815775501600,2.15750146484375,0.4859161376953125,-8.795196533203125,-0.5162506103515625
1663861815785358600,2.167358642578125,0.382965087890625,-8.333114624023438,-0.4228668212890625
1663861815795216000,2.1772158203125,0.11480712890625,-10.717742919921875,-0.011077880859375
1663861815805134000,2.187134033203125,1.714141845703125,-7.9835662841796875,1.952178955078125
1663861815815021800,2.197021728515625,0.6511077880859375,-4.600555419921875,1.9019012451171875
1663861815824909300,2.206909423828125,-2.02081298828125,-5.4696502685546875,-0.8227081298828125
1663861815834766600,2.2167666015625,-2.7821807861328125,-7.8830108642578125,-2.8984832763671875
1663861815844654300,2.226654296875,-2.1860198974609375,-9.642745971679688,-3.5281524658203125
1663861815854542000,2.2365419921875,-2.41107177734375,-10.454376220703125,-2.97509765625
1663861815864429800,2.246429931640625,-2.6935882568359375,-10.157501220703125,-1.98388671875
1663861815874317300,2.2563173828125,-2.5092315673828125,-9.800765991210938,-1.586456298828125
1663861815884205000,2.266205078125,-2.7462615966796875,-10.418472290039062,-1.9743194580078125
1663861815894092800,2.2760927734375,-2.70794677734375,-10.75604248046875,-2.417236328125
1663861815903980500,2.28598046875,-2.5020599365234375,-10.6602783203125,-2.4507598876953125
1663861815913868300,2.295868408203125,-2.27459716796875,-10.847030639648438,-2.8410186767578125
1663861815923755800,2.305755859375,-1.9274444580078125,-10.626754760742188,-3.3916778564453125
1663861815933643500,2.3156435546875,-1.76702880859375,-10.246078491210938,-4.22247314453125
1663861815943500800,2.325500732421875,-2.073486328125,-9.458389282226562,-5.0819854736328125
1663861815953388500,2.335388427734375,-2.616973876953125,-8.045806884765625,-5.1849365234375
1663861815963276000,2.345276123046875,-2.77978515625,-7.4304962158203125,-5.4722442626953125
1663861815973163800,2.355163818359375,-2.7678070068359375,-7.622039794921875,-5.4363250732421875
1663861815983021000,2.36502099609375,-3.1580657958984375,-6.9851837158203125,-3.9710845947265625
1663861815992908800,2.37490869140625,-3.0694732666015625,-7.9117431640625,-3.4395751953125
1663861816002765800,2.384765869140625,-2.5834503173828125,-8.713790893554688,-2.5848388671875
1663861816012653600,2.394653564453125,-2.39910888671875,-9.5086669921875,-1.98388671875
1663861816022541300,2.404541259765625,-2.6552886962890625,-10.305938720703125,-2.11077880859375
1663861816032429000,2.414428955078125,-3.2418670654296875,-11.112777709960938,-2.0605010986328125
1663861816042286000,2.4242861328125,-4.02716064453125,-10.969131469726562,-1.3685760498046875
1663861816052204300,2.434204345703125,-4.582611083984375,-10.478317260742188,-0.8921356201171875
1663861816062092000,2.444092041015625,-4.7118988037109375,-9.999481201171875,-1.1339569091796875
1663861816071949300,2.45394921875,-4.14447021484375,-9.860610961914062,-1.1866302490234375
1663861816081836800,2.4638369140625,-3.4214324951171875,-9.199813842773438,-0.106842041015625
1663861816091724500,2.473724609375,-4.1301116943359375,-8.68505859375,0.546783447265625
1663861816101612300,2.4836123046875,-5.056671142578125,-9.015457153320312,0.3600311279296875
1663861816111500000,2.4935,-5.521148681640625,-7.7896270751953125,0.62579345703125
1663861816121387800,2.5033876953125,-6.536285400390625,-7.6363983154296875,-0.45159912109375
1663861816131275500,2.513275634765625,-7.0510406494140625,-8.287628173828125,-2.3406219482421875
1663861816141163000,2.5231630859375,-6.8188018798828125,-7.24615478515625,-2.5608978271484375
1663861816151050800,2.53305078125,-5.861114501953125,-6.0706024169921875,-1.6558837890625
1663861816160938500,2.5429384765625,-5.6983184814453125,-5.5869598388671875,-0.69342041015625
1663861816170795800,2.552795654296875,-5.8443603515625,-5.4481048583984375,0.515655517578125
1663861816180652800,2.56265283203125,-6.9145660400390625,-5.6851348876953125,1.1692657470703125
1663861816190540500,2.57254052734375,-7.814788818359375,-6.101715087890625,1.2099761962890625
1663861816200428300,2.58242822265625,-8.307998657226562,-6.5159149169921875,0.230743408203125
1663861816210316000,2.59231591796875,-8.003921508789062,-6.9373016357421875,-1.1171875
1663861816220203500,2.60220361328125,-7.4412841796875,-6.97320556640625,-1.9791107177734375
1663861816230091300,2.61209130859375,-6.97442626953125,-6.7098541259765625,-1.8593902587890625
1663861816239979000,2.62197900390625,-6.557830810546875,-6.0442657470703125,-1.598419189453125
1663861816249866800,2.63186669921875,-7.3000335693359375,-5.49359130859375,-1.469146728515625
1663861816259754500,2.64175439453125,-7.46044921875,-5.340362548828125,-1.4787139892578125
1663861816269642000,2.65164208984375,-6.9624481201171875,-5.814422607421875,-2.1826171875
1663861816279529700,2.66152978515625,-7.0989227294921875,-6.1519927978515625,-3.214508056640625
1663861816289417500,2.67141748046875,-7.472412109375,-6.659576416015625,-3.899261474609375
1663861816299305200,2.68130517578125,-7.2736968994140625,-6.9947509765625,-3.3749237060546875
1663861816309162200,2.691162353515625,-7.3910064697265625,-6.4991607666015625,-2.3741455078125
1663861816319050000,2.701050048828125,-6.727813720703125,-5.8623046875,-1.8115081787109375
1663861816328937700,2.710937744140625,-6.7972564697265625,-5.2493896484375,-2.0389556884765625
1663861816338825500,2.720825439453125,-7.6950836181640625,-4.600555419921875,-2.8577728271484375
1663861816348713200,2.730713134765625,-8.298416137695312,-4.231842041015625,-3.6813812255859375
1663861816358601000,2.74060107421875,-8.420516967773438,-4.5071868896484375,-4.4163970947265625
1663861816368488400,2.750488525390625,-7.412567138671875,-4.6077423095703125,-5.115509033203125
1663861816378345700,2.760345703125,-7.5586090087890625,-4.5454864501953125,-5.637451171875
1663861816388233500,2.7702333984375,-8.140396118164062,-4.5598602294921875,-5.2615509033203125
1663861816398121200,2.780121337890625,-7.8435211181640625,-4.3707122802734375,-3.9878387451171875
1663861816408008700,2.7900087890625,-8.205047607421875,-3.992431640625,-3.3031005859375
1663861816417896400,2.799896484375,-8.4755859375,-3.6045684814453125,-2.8529815673828125
1663861816427784200,2.8097841796875,-8.5186767578125,-3.5614776611328125,-2.6829986572265625
1663861816437641500,2.819641357421875,-9.588882446289062,-3.618927001953125,-3.286346435546875
1663861816447529000,2.829529052734375,-9.610443115234375,-3.9948272705078125,-4.2320556640625
1663861816457416700,2.839416748046875,-10.072525024414062,-4.0858001708984375,-3.722076416015625
1663861816467304400,2.849304443359375,-10.917678833007812,-3.987640380859375,-3.4754791259765625
1663861816477192200,2.859192138671875,-11.142730712890625,-3.6572418212890625,-2.764404296875
1663861816487080000,2.869079833984375,-10.745285034179688,-3.1831817626953125,-1.93121337890625
1663861816496937000,2.87893701171875,-10.345458984375,-2.498443603515625,-2.4340057373046875
1663861816506824700,2.88882470703125,-10.141952514648438,-1.6389312744140625,-2.0916290283203125
1663861816516712400,2.89871240234375,-10.23052978515625,-0.98052978515625,-2.1873931884765625
1663861816526600200,2.90860009765625,-10.5369873046875,-0.70758056640625,-2.654266357421875
1663861816536487700,2.91848779296875,-10.625579833984375,-0.628570556640625,-3.0157928466796875
1663861816546375400,2.92837548828125,-11.355804443359375,-0.4945068359375,-3.6981353759765625
1663861816556232700,2.938232666015625,-13.053298950195312,-0.33648681640625,-6.10430908203125
1663861816566120400,2.948120361328125,-10.697402954101562,-0.33648681640625,-4.6414642333984375
1663861816576008200,2.95800830078125,-9.485946655273438,-0.3556365966796875,-3.29351806640625
1663861816585895700,2.967895751953125,-10.283203125,-0.2550811767578125,-4.3828887939453125
1663861816595783400,2.977783447265625,-10.807540893554688,-0.178466796875,-5.010162353515625
1663861816605671200,2.987671142578125,-11.319900512695312,-0.142547607421875,-5.13226318359375
1663861816615528400,2.997528564453125,-12.313491821289062,-0.1401519775390625,-5.4722442626953125
1663861816625416000,3.007416015625,-13.539321899414062,-0.12579345703125,-6.056427001953125
1663861816635303700,3.0173037109375,-14.4132080078125,-0.030029296875,-6.6454010009765625
1663861816645191400,3.02719140625,-13.637481689453125,0.465576171875,-6.6142730712890625
1663861816655079200,3.0370791015625,-12.440383911132812,0.4775390625,-6.4730224609375
1663861816664967000,3.046966796875,-11.597625732421875,0.175872802734375,-6.3221893310546875
1663861816674854400,3.0568544921875,-10.723739624023438,0.3626251220703125,-5.8936309814453125
1663861816684711700,3.066711669921875,-9.67987060546875,0.4344482421875,-5.505767822265625
1663861816694599400,3.076599365234375,-8.817962646484375,-0.34844970703125,-4.9814300537109375
1663861816704487200,3.086487060546875,-8.121246337890625,-1.282196044921875,-4.301483154296875
1663861816714374700,3.096374755859375,-7.9823760986328125,-1.77301025390625,-4.196136474609375
1663861816724262400,3.106262451171875,-8.568954467773438,-1.92144775390625,-4.0045928955078125
1663861816734150100,3.116150146484375,-9.239334106445312,-1.978912353515625,-3.7244720458984375
1663861816744007400,3.12600732421875,-8.904144287109375,-1.969329833984375,-3.6191253662109375
1663861816753895000,3.13589501953125,-8.628814697265625,-1.7251129150390625,-3.6694183349609375
1663861816763782700,3.14578271484375,-8.89935302734375,-1.557525634765625,-3.841796875
1663861816773670400,3.15567041015625,-9.2369384765625,-1.35162353515625,-3.8106689453125
1663861816783558100,3.16555810546875,-9.524246215820312,-1.188812255859375,-3.784332275390625
1663861816793415200,3.175415283203125,-9.730148315429688,-1.05474853515625,-3.8441925048828125
1663861816803303000,3.185302978515625,-9.85943603515625,-1.136138916015625,-3.880096435546875
1663861816813190700,3.195190673828125,-9.811553955078125,-1.35162353515625,-3.8729248046875
1663861816823078400,3.205078369140625,-9.667892456054688,-1.4641571044921875,-3.927978515625
1663861816832966100,3.214966064453125,-9.232147216796875,-1.4354248046875,-3.98065185546875
1663861816842854000,3.22485400390625,-8.60247802734375,-1.368377685546875,-3.9878387451171875
1663861816852741400,3.234741455078125,-8.1475830078125,-1.32049560546875,-4.0620574951171875
1663861816862598700,3.2445986328125,-8.003921508789062,-1.2486724853515625,-4.0955810546875
1663861816872486400,3.254486328125,-8.173919677734375,-1.2271270751953125,-3.9878387451171875
1663861816882343400,3.264343505859375,-8.545013427734375,-1.2702178955078125,-3.954315185546875
1663861816892231200,3.274231201171875,-9.033432006835938,-1.2869873046875,-4.14825439453125
1663861816902119000,3.284118896484375,-9.572128295898438,-1.294158935546875,-4.440338134765625
1663861816912006700,3.294006591796875,-9.938446044921875,-1.21514892578125,-4.63427734375
1663861816921863700,3.30386376953125,-10.086883544921875,-1.045166015625,-4.7276458740234375
1663861816931751400,3.31375146484375,-10.180252075195312,-0.891937255859375,-4.6654052734375
1663861816941639200,3.32363916015625,-10.254470825195312,-0.7913818359375,-4.4738616943359375
1663861816951527000,3.33352685546875,-10.204193115234375,-0.7099761962890625,-4.2104949951171875
1663861816961414700,3.34341455078125,-10.062942504882812,-0.6884307861328125,-4.0189666748046875
1663861816971302100,3.35330224609375,-9.79718017578125,-0.7363128662109375,-3.8872833251953125
1663861816981190000,3.36318994140625,-9.51226806640625,-0.84405517578125,-3.9040374755859375
1663861816991047200,3.373047119140625,-9.459609985351562,-0.9470062255859375,-3.9758758544921875
1663861817000935000,3.382934814453125,-9.653533935546875,-1.0308074951171875,-4.026153564453125
1663861817010822400,3.392822509765625,-9.971969604492188,-1.028411865234375,-3.8657379150390625
1663861817020710100,3.402710205078125,-10.333480834960938,-0.9278564453125,-3.5999755859375
1663861817030567400,3.4125673828125,-10.522628784179688,-0.8632049560546875,-3.3773193359375
1663861817040455200,3.422455078125,-10.709381103515625,-0.796173095703125,-3.2121124267578125
1663861817050343000,3.432343017578125,-10.774017333984375,-0.84405517578125,-3.056488037109375
1663861817060230400,3.44223046875,-10.77880859375,-0.9374237060546875,-2.97509765625
1663861817070118100,3.4521181640625,-10.594451904296875,-0.9637603759765625,-2.886505126953125
1663861817080006000,3.462005859375,-10.189834594726562,-0.987701416015625,-2.7787628173828125
1663861817089893600,3.4718935546875,-9.959991455078125,-1.0427703857421875,-2.690185546875
1663861817099750700,3.481750732421875,-9.861831665039062,-1.1313629150390625,-2.5991973876953125
1663861817109638400,3.491638427734375,-9.739730834960938,-1.32049560546875,-2.4914703369140625
1663861817119526100,3.501526123046875,-9.493118286132812,-1.53118896484375,-2.3813323974609375
1663861817129414000,3.511413818359375,-9.399749755859375,-1.614990234375,-2.326263427734375
1663861817139271000,3.52127099609375,-9.471572875976562,-1.715545654296875,-2.343017578125
1663861817149158700,3.53115869140625,-9.5218505859375,-1.6652679443359375,-2.295135498046875
1663861817159046400,3.54104638671875,-9.495513916015625,-1.552734375,-2.32147216796875
1663861817168934100,3.55093408203125,-9.50030517578125,-1.404296875,-2.3932952880859375
1663861817178822000,3.56082177734375,-9.6583251953125,-1.2582550048828125,-2.5824432373046875
1663861817188709400,3.57070947265625,-9.81634521484375,-1.1576995849609375,-2.738067626953125
1663861817198597000,3.58059716796875,-9.993515014648438,-1.0762939453125,-2.92242431640625
1663861817208454400,3.590454345703125,-10.0916748046875,-1.0427703857421875,-3.0325469970703125
1663861817218342100,3.600342041015625,-10.220962524414062,-1.119384765625,-3.128326416015625
1663861817228229600,3.610229736328125,-10.273635864257812,-1.3109283447265625,-3.1905670166015625
1663861817238117400,3.620117431640625,-10.340667724609375,-1.547943115234375,-3.0948028564453125
1663861817248005000,3.630005126953125,-10.400527954101562,-1.746673583984375,-2.9104461669921875
1663861817257892900,3.639892822265625,-10.295181274414062,-1.758636474609375,-2.8194732666015625
1663861817267750000,3.64975,-10.010269165039062,-1.495269775390625,-2.802703857421875
1663861817277668400,3.65966845703125,-9.552978515625,-1.1313629150390625,-2.8314361572265625
1663861817287525400,3.669525390625,-9.378204345703125,-1.0260162353515625,-3.0038299560546875
1663861817297413000,3.6794130859375,-9.519454956054688,-1.2917633056640625,-3.2121124267578125
1663861817307300900,3.68930078125,-9.75408935546875,-1.5647125244140625,-3.2839508056640625
1663861817317188600,3.699188720703125,-10.010269165039062,-1.600616455078125,-3.1474761962890625
1663861817327076000,3.709076171875,-10.2401123046875,-1.5599212646484375,-3.0804443359375
1663861817336963800,3.7189638671875,-10.350250244140625,-1.5647125244140625,-3.0588836669921875
1663861817346851600,3.7288515625,-10.41009521484375,-1.53118896484375,-3.02777099609375
1663861817356739300,3.7387392578125,-10.2401123046875,-1.48809814453125,-2.982269287109375
1663861817366627000,3.748626953125,-9.962387084960938,-1.4904937744140625,-3.0110015869140625
1663861817376514600,3.7585146484375,-9.746902465820312,-1.5503387451171875,-3.0373382568359375
1663861817386371800,3.768371826171875,-9.593673706054688,-1.5766754150390625,-2.9559326171875
1663861817396259600,3.778259521484375,-9.545791625976562,-1.4378204345703125,-2.7931365966796875
1663861817406147300,3.788147216796875,-9.57452392578125,-1.272613525390625,-2.7189178466796875
1663861817416034800,3.798034912109375,-9.706207275390625,-1.219940185546875,-2.690185546875
1663861817425922600,3.807922607421875,-9.87139892578125,-1.2007904052734375,-2.675811767578125
1663861817435810300,3.817810302734375,-10.086883544921875,-1.1505126953125,-2.6710357666015625
1663861817445698000,3.827697998046875,-10.194625854492188,-1.124176025390625,-2.64947509765625
1663861817455585800,3.837585693359375,-10.211380004882812,-1.081085205078125,-2.5537109375
1663861817465473300,3.847473388671875,-10.163497924804688,-1.045166015625,-2.4076690673828125
1663861817475361000,3.857361083984375,-10.072525024414062,-1.0738983154296875,-2.3310546875
1663861817485248800,3.867248779296875,-9.99591064453125,-1.107421875,-2.335845947265625
1663861817495106000,3.87710595703125,-9.916900634765625,-1.114593505859375,-2.3645782470703125
1663861817504993800,3.886993896484375,-9.866622924804688,-1.1217803955078125,-2.41485595703125
1663861817514881300,3.89688134765625,-9.818740844726562,-1.133758544921875,-2.4794921875
1663861817524769000,3.90676904296875,-9.837890625,-1.1959991455078125,-2.5345611572265625
1663861817534656800,3.91665673828125,-9.909713745117188,-1.181640625,-2.5345611572265625
1663861817544544500,3.92654443359375,-9.986328125,-1.1313629150390625,-2.548919677734375
1663861817554401500,3.936401611328125,-10.019851684570312,-1.0571441650390625,-2.56329345703125
1663861817564289300,3.946289306640625,-10.053359985351562,-0.98052978515625,-2.5728607177734375
1663861817574177000,3.956177001953125,-10.122802734375,-0.9422149658203125,-2.601593017578125
1663861817584064800,3.966064697265625,-10.134765625,-0.987701416015625,-2.56329345703125
1663861817593921800,3.975921875,-10.1036376953125,-1.0427703857421875,-2.6039886474609375
1663861817603809500,3.9858095703125,-10.046188354492188,-0.9781341552734375,-2.615966796875
1663861817613697300,3.995697265625,-9.998291015625,-0.860809326171875,-2.6518707275390625
1663861817623585000,4.0055849609375,-10.027023315429688,-0.8632049560546875,-2.675811767578125
1663861817633472800,4.01547265625,-10.027023315429688,-0.8201141357421875,-2.6782073974609375
1663861817643360300,4.0253603515625,-10.05096435546875,-0.796173095703125,-2.6614532470703125
1663861817653217500,4.035217529296875,-10.055755615234375,-0.8775787353515625,-2.663848876953125
1663861817663105300,4.045105224609375,-10.03900146484375,-0.913482666015625,-2.7308807373046875
1663861817672942000,4.054942138671875,-10.048583984375,-0.8320770263671875,-2.7452545166015625
1663861817682829600,4.06482958984375,-10.012664794921875,-0.7889862060546875,-2.77398681640625
1663861817692686800,4.074686767578125,-10.031814575195312,-0.83447265625,-2.7667999267578125
1663861817702605000,4.08460498046875,-10.015060424804688,-0.8464508056640625,-2.750030517578125
1663861817712462300,4.09446240234375,-9.993515014648438,-0.913482666015625,-2.7572174072265625
1663861817722380500,4.104380615234375,-10.022247314453125,-0.9853057861328125,-2.728485107421875
1663861817732268000,4.11426806640625,-9.986328125,-1.0116424560546875,-2.6662445068359375
1663861817742125300,4.124125244140625,-9.96478271484375,-0.9733428955078125,-2.6039886474609375
1663861817752013000,4.134012939453125,-9.974349975585938,-0.9374237060546875,-2.5537109375
1663861817761900800,4.14390087890625,-10.005477905273438,-0.944610595703125,-2.5297698974609375
1663861817771788300,4.153788330078125,-10.048583984375,-0.970947265625,-2.50103759765625
1663861817781645600,4.1636455078125,-10.058151245117188,-0.9254608154296875,-2.4914703369140625
1663861817791563800,4.173563720703125,-10.041397094726562,-0.987701416015625,-2.46990966796875
1663861817801421000,4.183421142578125,-10.027023315429688,-1.0858612060546875,-2.4292144775390625
1663861817811308800,4.193308837890625,-9.959991455078125,-1.167266845703125,-2.38372802734375
1663861817821196300,4.2031962890625,-10.000686645507812,-1.193603515625,-2.3597869873046875
1663861817831084000,4.213083984375,-10.019851684570312,-1.1313629150390625,-2.3980865478515625
1663861817840971800,4.2229716796875,-10.043792724609375,-1.107421875,-2.4196319580078125
1663861817850859500,4.232859619140625,-10.089279174804688,-1.114593505859375,-2.453155517578125
1663861817860747300,4.242747314453125,-10.062942504882812,-1.21514892578125,-2.4507598876953125
1663861817870634800,4.252634765625,-10.046188354492188,-1.28936767578125,-2.4364013671875
1663861817880522500,4.2625224609375,-10.012664794921875,-1.2965545654296875,-2.4124603271484375
1663861817890410200,4.27241015625,-10.012664794921875,-1.2582550048828125,-2.4459686279296875
1663861817900298000,4.282298095703125,-9.988723754882812,-1.260650634765625,-2.541748046875
1663861817910185700,4.292185791015625,-10.00787353515625,-1.294158935546875,-2.6255340576171875
1663861817920073200,4.3020732421875,-10.027023315429688,-1.3109283447265625,-2.68060302734375
1663861817929930500,4.311930419921875,-10.019851684570312,-1.356414794921875,-2.66864013671875
1663861817939818200,4.321818359375,-10.024627685546875,-1.4186553955078125,-2.64947509765625
1663861817949706000,4.3317060546875,-10.012664794921875,-1.452178955078125,-2.6279296875
1663861817959563000,4.34156298828125,-9.945632934570312,-1.42584228515625,-2.6399078369140625
1663861817969420300,4.351420166015625,-9.919296264648438,-1.368377685546875,-2.663848876953125
1663861817979338500,4.36133837890625,-9.919296264648438,-1.313323974609375,-2.716522216796875
1663861817989226200,4.371226318359375,-9.950408935546875,-1.2654266357421875,-2.75482177734375
1663861817999113700,4.38111376953125,-9.967178344726562,-1.229522705078125,-2.7715911865234375
1663861818009001500,4.39100146484375,-9.974349975585938,-1.267822265625,-2.7931365966796875
1663861818018889200,4.40088916015625,-9.979141235351562,-1.2486724853515625,-2.7979278564453125
1663861818028777000,4.41077685546875,-9.936050415039062,-1.2534637451171875,-2.790740966796875
1663861818038664700,4.420664794921875,-9.950408935546875,-1.24627685546875,-2.8362274169921875
1663861818048521700,4.430521728515625,-9.99591064453125,-1.2390899658203125,-2.8529815673828125
1663861818058409500,4.440409423828125,-10.000686645507812,-1.2534637451171875,-2.8889007568359375
1663861818068297200,4.450297119140625,-9.988723754882812,-1.294158935546875,-2.8266448974609375
1663861818078185000,4.46018505859375,-9.991119384765625,-1.315704345703125,-2.7715911865234375
1663861818088072700,4.47007275390625,-9.962387084960938,-1.325286865234375,-2.7260894775390625
1663861818097960200,4.479960205078125,-9.926467895507812,-1.3372650146484375,-2.6877899169921875
1663861818107848000,4.489847900390625,-9.948013305664062,-1.315704345703125,-2.66864013671875
1663861818117705200,4.499705322265625,-9.938446044921875,-1.325286865234375,-2.654266357421875
1663861818127593000,4.509593017578125,-10.003082275390625,-1.330078125,-2.6446990966796875
1663861818137480400,4.51948046875,-10.012664794921875,-1.3540191650390625,-2.6255340576171875
1663861818147368200,4.5293681640625,-9.991119384765625,-1.356414794921875,-2.5968017578125
1663861818157225500,4.5392255859375,-9.981536865234375,-1.334869384765625,-2.6351165771484375
1663861818167113200,4.54911328125,-9.971969604492188,-1.2965545654296875,-2.685394287109375
1663861818177000700,4.559000732421875,-9.962387084960938,-1.2917633056640625,-2.716522216796875
1663861818186888400,4.568888427734375,-9.96478271484375,-1.24627685546875,-2.759613037109375
1663861818196776200,4.578776123046875,-10.019851684570312,-1.229522705078125,-2.8266448974609375
1663861818206664000,4.588663818359375,-10.031814575195312,-1.16009521484375,-2.896087646484375
1663861818216551700,4.5985517578125,-10.003082275390625,-1.102630615234375,-2.9774932861328125
1663861818226439200,4.608439208984375,-10.00787353515625,-1.0906524658203125,-3.04931640625
1663861818236296400,4.61829638671875,-10.067733764648438,-1.1385345458984375,-3.1570587158203125
1663861818246184200,4.62818408203125,-10.094070434570312,-1.17205810546875,-3.1905670166015625
1663861818256072000,4.638072021484375,-10.058151245117188,-1.23431396484375,-3.1043853759765625
1663861818265959700,4.647959716796875,-9.97674560546875,-1.255859375,-2.96551513671875
1663861818275847200,4.65784716796875,-9.878585815429688,-1.2534637451171875,-2.8577728271484375
1663861818285735000,4.66773486328125,-9.811553955078125,-1.2582550048828125,-2.7452545166015625
1663861818295592200,4.67759228515625,-9.849853515625,-1.260650634765625,-2.7213134765625
1663861818305480000,4.68747998046875,-9.888168334960938,-1.2869873046875,-2.642303466796875
1663861818315337000,4.6973369140625,-9.921676635742188,-1.334869384765625,-2.4986419677734375
1663861818325224700,4.707224609375,-9.969573974609375,-1.368377685546875,-2.3861236572265625
1663861818335112400,4.717112548828125,-9.945632934570312,-1.387542724609375,-2.2807769775390625
1663861818345000200,4.727000244140625,-9.945632934570312,-1.42584228515625,-2.1850128173828125
1663861818354887700,4.7368876953125,-9.998291015625,-1.473724365234375,-2.17303466796875
1663861818364775400,4.746775390625,-10.003082275390625,-1.4234466552734375,-2.1490936279296875
1663861818374663200,4.7566630859375,-10.010269165039062,-1.3971099853515625,-2.120361328125
1663861818384551000,4.766551025390625,-10.027023315429688,-1.3659820556640625,-2.146697998046875
1663861818394408000,4.776407958984375,-10.060546875,-1.282196044921875,-2.156280517578125
1663861818404295700,4.786295654296875,-10.0294189453125,-1.24627685546875,-2.2448577880859375
1663861818414183400,4.796183349609375,-10.012664794921875,-1.2103729248046875,-2.3454132080078125
1663861818424071200,4.8060712890625,-9.998291015625,-1.198394775390625,-2.4244232177734375
1663861818433959000,4.815958984375,-9.97674560546875,-1.188812255859375,-2.496246337890625
1663861818443816000,4.82581591796875,-9.983932495117188,-1.193603515625,-2.5393524169921875
1663861818453703700,4.83570361328125,-10.0174560546875,-1.181640625,-2.5824432373046875
1663861818463561000,4.84556103515625,-10.000686645507812,-1.133758544921875,-2.654266357421875
1663861818473448400,4.855448486328125,-9.988723754882812,-1.0834808349609375,-2.7452545166015625
1663861818483305700,4.8653056640625,-10.019851684570312,-1.03558349609375,-2.8242645263671875
1663861818493224000,4.875223876953125,-10.065338134765625,-1.028411865234375,-2.86016845703125
1663861818503111700,4.885111572265625,-10.07012939453125,-1.0762939453125,-2.896087646484375
1663861818512999400,4.89499951171875,-10.055755615234375,-1.1576995849609375,-2.86016845703125
1663861818522856400,4.9048564453125,-9.99591064453125,-1.219940185546875,-2.781158447265625
1663861818532774700,4.914774658203125,-9.93365478515625,-1.2390899658203125,-2.750030517578125
1663861818542662400,4.924662353515625,-9.888168334960938,-1.2319183349609375,-2.7332763671875
1663861818552550100,4.934550048828125,-9.931259155273438,-1.2367095947265625,-2.7715911865234375
1663861818562438000,4.94443798828125,-9.971969604492188,-1.229522705078125,-2.7620086669921875
1663861818572325600,4.95432568359375,-10.015060424804688,-1.255859375,-2.6829986572265625
1663861818582213000,4.964213134765625,-10.03900146484375,-1.272613525390625,-2.615966796875
1663861818592070400,4.9740703125,-10.05096435546875,-1.315704345703125,-2.56329345703125
1663861818601927700,4.983927734375,-10.015060424804688,-1.32049560546875,-2.4723052978515625
1663861818611815200,4.993815185546875,-9.993515014648438,-1.32049560546875,-2.4723052978515625
1663861818621703000,5.003702880859375,-9.967178344726562,-1.3180999755859375,-2.4938507080078125
1663861818631590700,5.013590576171875,-9.962387084960938,-1.303741455078125,-2.53216552734375
1663861818641448000,5.023447998046875,-9.991119384765625,-1.2798004150390625,-2.548919677734375
1663861818651335400,5.03333544921875,-10.034210205078125,-1.2630462646484375,-2.5297698974609375
1663861818661223200,5.04322314453125,-10.062942504882812,-1.23431396484375,-2.515411376953125
1663861818671111000,5.05311083984375,-10.036605834960938,-1.2271270751953125,-2.5034332275390625
1663861818680998700,5.06299853515625,-10.022247314453125,-1.2271270751953125,-2.474700927734375
1663861818690886400,5.072886474609375,-10.003082275390625,-1.251068115234375,-2.5034332275390625
1663861818700743400,5.082743408203125,-9.998291015625,-1.229522705078125,-2.53216552734375
1663861818710661600,5.09266162109375,-10.003082275390625,-1.2367095947265625,-2.589630126953125
1663861818720519000,5.102518798828125,-9.983932495117188,-1.198394775390625,-2.6590576171875
1663861818730406700,5.11240673828125,-9.993515014648438,-1.20318603515625,-2.6925811767578125
1663861818740263700,5.122263671875,-10.015060424804688,-1.2319183349609375,-2.728485107421875
1663861818750151400,5.1321513671875,-10.003082275390625,-1.241485595703125,-2.7572174072265625
1663861818760039200,5.1420390625,-9.983932495117188,-1.2630462646484375,-2.747650146484375
1663861818769957400,5.151957275390625,-9.983932495117188,-1.2845916748046875,-2.764404296875
1663861818779845000,5.16184521484375,-9.952804565429688,-1.2917633056640625,-2.7835540771484375
1663861818789732900,5.17173291015625,-9.967178344726562,-1.282196044921875,-2.812286376953125
1663861818799590000,5.18158984375,-9.971969604492188,-1.27740478515625,-2.843414306640625
1663861818809477600,5.1914775390625,-9.979141235351562,-1.27740478515625,-2.833831787109375
1663861818819365400,5.201365478515625,-9.962387084960938,-1.2798004150390625,-2.781158447265625
1663861818829253000,5.211253173828125,-9.967178344726562,-1.3061370849609375,-2.7452545166015625
1663861818839140600,5.221140625,-9.97674560546875,-1.32049560546875,-2.7141265869140625
1663861818849028400,5.2310283203125,-9.981536865234375,-1.294158935546875,-2.7045440673828125
1663861818858916000,5.240916015625,-9.974349975585938,-1.303741455078125,-2.6734161376953125
1663861818868803800,5.250803955078125,-9.97674560546875,-1.2989501953125,-2.6303253173828125
1663861818878691600,5.260691650390625,-10.00787353515625,-1.255859375,-2.6135711669921875
1663861818888579000,5.2705791015625,-10.000686645507812,-1.2534637451171875,-2.589630126953125
1663861818898466800,5.280466796875,-10.010269165039062,-1.267822265625,-2.5728607177734375
1663861818908354600,5.2903544921875,-10.024627685546875,-1.282196044921875,-2.541748046875
1663861818918211800,5.3002119140625,-10.010269165039062,-1.255859375,-2.541748046875
1663861818928099300,5.310099365234375,-9.998291015625,-1.2390899658203125,-2.548919677734375
1663861818937956600,5.31995654296875,-10.000686645507812,-1.229522705078125,-2.570465087890625
1663861818947844400,5.32984423828125,-9.988723754882812,-1.20318603515625,-2.60638427734375
1663861818957701400,5.339701416015625,-9.974349975585938,-1.176849365234375,-2.6590576171875
1663861818967619600,5.34961962890625,-10.00787353515625,-1.186431884765625,-2.6877899169921875
1663861818977507300,5.35950732421875,-10.005477905273438,-1.2055816650390625,-2.7045440673828125
1663861818987395000,5.36939501953125,-10.003082275390625,-1.2223358154296875,-2.716522216796875
1663861818997282800,5.37928271484375,-10.024627685546875,-1.2654266357421875,-2.738067626953125
1663861819007170600,5.389170654296875,-10.012664794921875,-1.2845916748046875,-2.71173095703125
1663861819017058300,5.399058349609375,-10.00787353515625,-1.2869873046875,-2.6973724365234375
1663861819026945800,5.40894580078125,-9.967178344726562,-1.2965545654296875,-2.7093353271484375
1663861819036803000,5.418802978515625,-9.945632934570312,-1.2869873046875,-2.7141265869140625
1663861819046690800,5.42869091796875,-9.940841674804688,-1.2582550048828125,-2.7213134765625
1663861819056578600,5.43857861328125,-9.921676635742188,-1.2103729248046875,-2.7356719970703125
1663861819066466000,5.448466064453125,-9.969573974609375,-1.2127532958984375,-2.7308807373046875
1663861819076353800,5.458353759765625,-10.027023315429688,-1.2223358154296875,-2.7524261474609375
1663861819086241500,5.468241455078125,-10.065338134765625,-1.2750091552734375,-2.769195556640625
1663861819096129300,5.47812939453125,-10.055755615234375,-1.315704345703125,-2.7524261474609375
1663861819105986300,5.487986328125,-9.99591064453125,-1.356414794921875,-2.7021484375
1663861819115874000,5.4978740234375,-9.948013305664062,-1.346832275390625,-2.654266357421875
1663861819125761800,5.50776171875,-9.9432373046875,-1.2869873046875,-2.6590576171875
1663861819135649500,5.5176494140625,-9.945632934570312,-1.24627685546875,-2.6997528076171875
1663861819145537300,5.527537353515625,-9.983932495117188,-1.260650634765625,-2.7620086669921875
1663861819155424800,5.5374248046875,-10.031814575195312,-1.2486724853515625,-2.7931365966796875
1663861819165282000,5.547281982421875,-10.060546875,-1.260650634765625,-2.7955322265625
1663861819175169800,5.557169677734375,-10.027023315429688,-1.30853271484375,-2.716522216796875
1663861819185057500,5.5670576171875,-9.971969604492188,-1.33966064453125,-2.642303466796875
1663861819194914600,5.57691455078125,-9.895355224609375,-1.35162353515625,-2.5537109375
1663861819204802300,5.58680224609375,-9.8809814453125,-1.3588104248046875,-2.474700927734375
1663861819214690000,5.59668994140625,-9.912109375,-1.3013458251953125,-2.4196319580078125
1663861819224577800,5.606577880859375,-9.936050415039062,-1.2750091552734375,-2.3645782470703125
1663861819234465500,5.616465576171875,-9.948013305664062,-1.260650634765625,-2.3549957275390625
1663861819244353000,5.62635302734375,-9.969573974609375,-1.2630462646484375,-2.3645782470703125
1663861819254240800,5.63624072265625,-10.0174560546875,-1.241485595703125,-2.3597869873046875
1663861819264128500,5.64612841796875,-10.034210205078125,-1.2630462646484375,-2.38372802734375
1663861819274016300,5.656016357421875,-10.034210205078125,-1.27740478515625,-2.388519287109375
1663861819283904000,5.665904052734375,-10.046188354492188,-1.2869873046875,-2.4076690673828125
1663861819293761000,5.675760986328125,-10.015060424804688,-1.272613525390625,-2.462738037109375
1663861819303648800,5.685648681640625,-10.005477905273438,-1.2271270751953125,-2.5345611572265625
1663861819313536500,5.69553662109375,-10.036605834960938,-1.2055816650390625,-2.5608978271484375
1663861819323424300,5.70542431640625,-10.060546875,-1.1912078857421875,-2.6087799072265625
1663861819333281300,5.71528125,-10.03900146484375,-1.1696624755859375,-2.615966796875
1663861819343169000,5.7251689453125,-10.034210205078125,-1.1744537353515625,-2.6590576171875
1663861819353026300,5.7350263671875,-10.019851684570312,-1.167266845703125,-2.7045440673828125
1663861819362913800,5.744913818359375,-9.993515014648438,-1.1792449951171875,-2.690185546875
1663861819372771000,5.75477099609375,-9.971969604492188,-1.2127532958984375,-2.675811767578125
1663861819382689300,5.764689208984375,-9.967178344726562,-1.2247314453125,-2.6662445068359375
1663861819392546600,5.774546630859375,-9.962387084960938,-1.2486724853515625,-2.64947509765625
1663861819402464800,5.78446484375,-10.00787353515625,-1.207977294921875,-2.654266357421875
1663861819412352300,5.794352294921875,-10.062942504882812,-1.198394775390625,-2.6446990966796875
1663861819422209500,5.80420947265625,-10.067733764648438,-1.193603515625,-2.611175537109375
1663861819432066800,5.81406689453125,-10.05096435546875,-1.198394775390625,-2.580047607421875
1663861819441985000,5.823985107421875,-10.024627685546875,-1.2175445556640625,-2.5345611572265625
1663861819451872800,5.833872802734375,-10.003082275390625,-1.20318603515625,-2.548919677734375
1663861819461760300,5.84376025390625,-9.988723754882812,-1.1959991455078125,-2.536956787109375
1663861819471648000,5.85364794921875,-9.993515014648438,-1.193603515625,-2.541748046875
1663861819481505300,5.86350537109375,-10.034210205078125,-1.1959991455078125,-2.5130157470703125
1663861819491393000,5.87339306640625,-10.024627685546875,-1.188812255859375,-2.5082244873046875
1663861819501280500,5.883280517578125,-10.003082275390625,-1.2103729248046875,-2.5297698974609375
1663861819511168300,5.893168212890625,-9.962387084960938,-1.1912078857421875,-2.5656890869140625
1663861819521056000,5.903055908203125,-9.9552001953125,-1.176849365234375,-2.59442138671875
1663861819530943700,5.91294384765625,-9.993515014648438,-1.176849365234375,-2.6279296875
1663861819540800800,5.92280078125,-10.015060424804688,-1.2007904052734375,-2.6566619873046875
1663861819550688500,5.9326884765625,-9.983932495117188,-1.2438812255859375,-2.6662445068359375
1663861819560576300,5.942576171875,-9.974349975585938,-1.2390899658203125,-2.6279296875
1663861819570464000,5.952464111328125,-9.940841674804688,-1.1959991455078125,-2.6087799072265625
1663861819580321000,5.962321044921875,-9.950408935546875,-1.1648712158203125,-2.64947509765625
1663861819590239200,5.9722392578125,-9.93365478515625,-1.1313629150390625,-2.7332763671875
1663861819600127000,5.982126953125,-9.9552001953125,-1.0834808349609375,-2.7763671875
1663861819610014700,5.9920146484375,-9.97674560546875,-1.107421875,-2.764404296875
1663861819619902500,6.00190234375,-10.000686645507812,-1.198394775390625,-2.750030517578125
1663861819629759500,6.011759521484375,-10.0294189453125,-1.2223358154296875,-2.764404296875
1663861819639616800,6.02161669921875,-10.043792724609375,-1.2103729248046875,-2.790740966796875
1663861819649504500,6.03150439453125,-9.9552001953125,-1.2127532958984375,-2.812286376953125
1663861819659422700,6.041422607421875,-9.9552001953125,-1.181640625,-2.8266448974609375
1663861819669310500,6.051310546875,-9.959991455078125,-1.1529083251953125,-2.812286376953125
1663861819679198000,6.061197998046875,-9.988723754882812,-1.1624755859375,-2.7955322265625
1663861819689085700,6.071085693359375,-10.024627685546875,-1.1696624755859375,-2.769195556640625
1663861819698973400,6.080973388671875,-10.022247314453125,-1.17205810546875,-2.769195556640625
1663861819708861200,6.090861083984375,-10.031814575195312,-1.1481170654296875,-2.759613037109375
1663861819718749000,6.1007490234375,-10.024627685546875,-1.1121978759765625,-2.7979278564453125
1663861819728606000,6.11060595703125,-10.031814575195312,-1.093048095703125,-2.8458099365234375
1663861819738463200,6.120463134765625,-10.034210205078125,-1.133758544921875,-2.908050537109375
1663861819748351000,6.13035107421875,-10.005477905273438,-1.1792449951171875,-2.929595947265625
1663861819758238700,6.14023876953125,-9.969573974609375,-1.241485595703125,-2.90325927734375
1663861819768126200,6.150126220703125,-9.981536865234375,-1.272613525390625,-2.8194732666015625
1663861819777983500,6.1599833984375,-9.967178344726562,-1.282196044921875,-2.74285888671875
1663861819787871200,6.169871337890625,-9.936050415039062,-1.2486724853515625,-2.663848876953125
1663861819797759000,6.179759033203125,-9.950408935546875,-1.2175445556640625,-2.56329345703125
1663861819807646500,6.189646484375,-9.97674560546875,-1.186431884765625,-2.4507598876953125
1663861819817503700,6.199503662109375,-9.959991455078125,-1.1505126953125,-2.3597869873046875
1663861819827422000,6.209421875,-9.957595825195312,-1.107421875,-2.316680908203125
1663861819837309700,6.219309814453125,-9.952804565429688,-1.0858612060546875,-2.2664031982421875
1663861819847197400,6.229197509765625,-9.983932495117188,-1.107421875,-2.1921844482421875
1663861819857085000,6.2390849609375,-9.991119384765625,-1.14093017578125,-2.1921844482421875
1663861819866972700,6.24897265625,-10.022247314453125,-1.188812255859375,-2.194580078125
1663861819876860400,6.2588603515625,-10.031814575195312,-1.186431884765625,-2.242462158203125
1663861819886748200,6.268748046875,-10.055755615234375,-1.1576995849609375,-2.314300537109375
1663861819896636000,6.278635986328125,-10.129974365234375,-1.1050262451171875,-2.3909149169921875
1663861819906523400,6.2885234375,-10.158706665039062,-1.0427703857421875,-2.4603424072265625
1663861819916380700,6.298380615234375,-10.146743774414062,-1.0116424560546875,-2.56329345703125
1663861819926268400,6.308268310546875,-10.127578735351562,-1.040374755859375,-2.623138427734375
1663861819936156200,6.31815625,-10.05096435546875,-1.081085205078125,-2.66864013671875
1663861819946044000,6.3280439453125,-10.019851684570312,-1.145721435546875,-2.690185546875
1663861819955931400,6.337931396484375,-10.024627685546875,-1.167266845703125,-2.7213134765625
1663861819965819100,6.347819091796875,-10.003082275390625,-1.136138916015625,-2.7931365966796875
1663861819975676400,6.357676513671875,-10.012664794921875,-1.0858612060546875,-2.8506011962890625
1663861819985564200,6.367564208984375,-9.998291015625,-1.033203125,-2.89129638671875
1663861819995451600,6.37745166015625,-10.015060424804688,-1.045166015625,-2.8889007568359375
1663861820005339400,6.38733935546875,-10.046188354492188,-1.0954437255859375,-2.802703857421875
1663861820015227100,6.39722705078125,-10.034210205078125,-1.1505126953125,-2.7715911865234375
1663861820025115000,6.407114990234375,-10.125198364257812,-1.181640625,-2.77398681640625
1663861820034972000,6.416971923828125,-10.297576904296875,-1.267822265625,-2.7356719970703125
1663861820044859600,6.426859619140625,-10.2401123046875,-1.315704345703125,-2.615966796875
1663861820054747400,6.436747314453125,-10.118011474609375,-1.09783935546875,-2.5776519775390625
1663861820064635100,6.44663525390625,-9.983932495117188,-0.8895416259765625,-2.6351165771484375
1663861820074523000,6.45652294921875,-9.825912475585938,-1.0571441650390625,-2.7260894775390625
1663861820084410400,6.466410400390625,-9.840286254882812,-1.346832275390625,-2.728485107421875
1663861820094298000,6.476298095703125,-9.801971435546875,-1.4162750244140625,-2.8410186767578125
1663861820104155400,6.4861552734375,-9.703811645507812,-1.356414794921875,-3.0469207763671875
1663861820114043100,6.496043212890625,-9.3853759765625,-1.38275146484375,-3.29351806640625
1663861820123930600,6.5059306640625,-9.303985595703125,-1.368377685546875,-3.298309326171875
1663861820133818400,6.515818359375,-9.186660766601562,-1.41387939453125,-2.9583282470703125
1663861820143706000,6.5257060546875,-9.00469970703125,-1.5120391845703125,-2.8266448974609375
1663861820153593900,6.53559375,-9.3111572265625,-1.5120391845703125,-2.7452545166015625
1663861820163451100,6.545451171875,-9.653533935546875,-1.478515625,-2.8266448974609375
1663861820173338600,6.555338623046875,-10.319122314453125,-1.478515625,-3.135498046875
1663861820183226400,6.565226318359375,-10.841064453125,-1.39471435546875,-3.46112060546875
1663861820193114000,6.575114013671875,-10.783599853515625,-1.23431396484375,-3.583221435546875
1663861820203001900,6.585001953125,-10.592056274414062,-1.1696624755859375,-3.6813812255859375
1663861820212859000,6.59485888671875,-10.489105224609375,-1.107421875,-3.805877685546875
1663861820222746600,6.60474658203125,-10.247299194335938,-0.954193115234375,-3.7867279052734375
1663861820232634400,6.61463427734375,-10.060546875,-0.8320770263671875,-3.667022705078125
1663861820242522000,6.624522216796875,-9.959991455078125,-0.712371826171875,-3.477874755859375
1663861820252379100,6.634379150390625,-9.883377075195312,-0.6309661865234375,-3.3270416259765625
1663861820262236400,6.644236328125,-9.916900634765625,-0.61181640625,-3.128326416015625
1663861820272124200,6.654124267578125,-10.060546875,-0.659698486328125,-2.9774932861328125
1663861820282042400,6.66404248046875,-10.0916748046875,-0.702789306640625,-2.912841796875
1663861820291930000,6.67393017578125,-9.998291015625,-0.6573028564453125,-2.84820556640625
1663861820301817600,6.683817626953125,-9.852249145507812,-0.5687255859375,-2.800323486328125
1663861820311705300,6.693705322265625,-9.940841674804688,-0.4322509765625,-2.6470794677734375
1663861820321593000,6.703593017578125,-10.170684814453125,-0.343658447265625,-2.548919677734375
1663861820331480800,6.713480712890625,-10.237716674804688,-0.3340911865234375,-2.4914703369140625
1663861820341368600,6.72336865234375,-10.163497924804688,-0.331695556640625,-2.4818878173828125
1663861820351225600,6.7332255859375,-10.019851684570312,-0.322113037109375,-2.42681884765625
1663861820361113300,6.74311328125,-9.75408935546875,-0.3077545166015625,-2.2927398681640625
1663861820371001000,6.7530009765625,-9.541000366210938,-0.3292999267578125,-2.11077880859375
1663861820380888800,6.762888916015625,-9.39495849609375,-0.42266845703125,-2.046142578125
1663861820390776300,6.7727763671875,-9.189056396484375,-0.5447845458984375,-1.924041748046875
1663861820400633600,6.782633544921875,-9.0765380859375,-0.7530670166015625,-1.902496337890625
1663861820410491000,6.792490966796875,-9.177093505859375,-0.954193115234375,-1.98388671875
1663861820420378600,6.802378662109375,-9.485946655273438,-1.2103729248046875,-2.2233123779296875
1663861820430266000,6.81226611328125,-9.924072265625,-1.552734375,-2.5608978271484375
1663861820440153900,6.82215380859375,-10.340667724609375,-1.7035675048828125,-2.9727020263671875
1663861820450041600,6.83204150390625,-10.596847534179688,-1.39471435546875,-3.3270416259765625
1663861820459899000,6.84189892578125,-10.635162353515625,-0.997283935546875,-3.4898529052734375
1663861820469786400,6.851786376953125,-10.33587646484375,-0.808135986328125,-3.4012603759765625
1663861820479643600,6.8616435546875,-9.991119384765625,-0.98052978515625,-3.1953582763671875
1663861820489561900,6.871561767578125,-9.971969604492188,-1.694000244140625,-3.118743896484375
1663861820499419100,6.881419189453125,-10.259262084960938,-2.5008392333984375,-3.2049407958984375
1663861820509337300,6.89133740234375,-10.66387939453125,-2.3428192138671875,-3.2911224365234375
1663861820519194400,6.9011943359375,-10.888946533203125,-1.5551300048828125,-3.3749237060546875
1663861820529112600,6.911112548828125,-10.5250244140625,-0.9517974853515625,-3.149871826171875
1663861820539000300,6.921000244140625,-9.849853515625,-0.7506866455078125,-2.72369384765625
1663861820548888000,6.93088818359375,-9.390167236328125,-0.80096435546875,-2.496246337890625
1663861820558745000,6.9407451171875,-9.2249755859375,-0.870391845703125,-2.3932952880859375
1663861820568602400,6.950602294921875,-9.239334106445312,-0.8799591064453125,-2.316680908203125
1663861820578490000,6.960489990234375,-9.435653686523438,-0.94940185546875,-2.2807769775390625
1663861820588408300,6.970408203125,-9.672683715820312,-1.018829345703125,-2.3286590576171875
1663861820598296000,6.980296142578125,-9.87139892578125,-1.1050262451171875,-2.4459686279296875
1663861820608183600,6.99018359375,-10.065338134765625,-1.1433258056640625,-2.57525634765625
1663861820618071300,7.0000712890625,-10.18743896484375,-1.1529083251953125,-2.72369384765625
1663861820627959000,7.009958984375,-10.2401123046875,-1.20318603515625,-2.8506011962890625
1663861820637846800,7.0198466796875,-10.247299194335938,-1.251068115234375,-2.9152374267578125
1663861820647734500,7.029734619140625,-10.283203125,-1.2390899658203125,-2.912841796875
1663861820657591600,7.039591552734375,-10.283203125,-1.1576995849609375,-2.8721466064453125
1663861820667448800,7.04944873046875,-10.220962524414062,-1.0571441650390625,-2.802703857421875
1663861820677336600,7.059336669921875,-10.132369995117188,-0.94940185546875,-2.7524261474609375
1663861820687224300,7.069224365234375,-10.010269165039062,-0.8943328857421875,-2.7021484375
1663861820697111800,7.07911181640625,-9.866622924804688,-0.9206695556640625,-2.6877899169921875
1663861820706999600,7.08899951171875,-9.809158325195312,-0.970947265625,-2.6351165771484375
1663861820716856800,7.09885693359375,-9.845062255859375,-0.99249267578125,-2.589630126953125
1663861820726744600,7.10874462890625,-9.967178344726562,-1.0308074951171875,-2.5561065673828125
1663861820736632000,7.118632080078125,-10.058151245117188,-1.009246826171875,-2.56329345703125
1663861820746489300,7.1284892578125,-10.141952514648438,-1.0116424560546875,-2.5561065673828125
1663861820756377000,7.138377197265625,-10.158706665039062,-1.009246826171875,-2.5872344970703125
1663861820766295300,7.14829541015625,-10.106033325195312,-0.98052978515625,-2.6303253173828125
1663861820776183000,7.15818310546875,-10.074905395507812,-0.98291015625,-2.6973724365234375
1663861820786070500,7.168070556640625,-10.062942504882812,-0.966156005859375,-2.7213134765625
1663861820795958300,7.177958251953125,-10.015060424804688,-0.970947265625,-2.7213134765625
1663861820805815600,7.187815673828125,-9.993515014648438,-1.0044708251953125,-2.7308807373046875
1663861820815672600,7.197672607421875,-9.971969604492188,-1.0044708251953125,-2.7260894775390625
1663861820825590800,7.2075908203125,-9.931259155273438,-1.0212249755859375,-2.7332763671875
1663861820835478500,7.217478515625,-9.904922485351562,-1.040374755859375,-2.7572174072265625
1663861820845366300,7.2273662109375,-9.926467895507812,-1.045166015625,-2.802703857421875
1663861820855254000,7.23725390625,-9.959991455078125,-1.0691070556640625,-2.84820556640625
1663861820865141800,7.247141845703125,-9.969573974609375,-1.0738983154296875,-2.8841094970703125
1663861820875029500,7.257029541015625,-9.9552001953125,-1.0882568359375,-2.92242431640625
1663861820884917000,7.2669169921875,-9.940841674804688,-1.1169891357421875,-2.9152374267578125
1663861820894804700,7.2768046875,-9.962387084960938,-1.1481170654296875,-2.9463653564453125
1663861820904692500,7.2866923828125,-9.988723754882812,-1.207977294921875,-2.9152374267578125
1663861820914549800,7.2965498046875,-9.986328125,-1.2534637451171875,-2.8458099365234375
1663861820924437200,7.306437255859375,-9.96478271484375,-1.2534637451171875,-2.7835540771484375
1663861820934325000,7.316324951171875,-9.919296264648438,-1.1912078857421875,-2.764404296875
1663861820944212700,7.326212646484375,-9.883377075195312,-1.114593505859375,-2.78594970703125
1663861820954100500,7.3361005859375,-9.888168334960938,-1.040374755859375,-2.864959716796875
1663861820963988200,7.34598828125,-9.969573974609375,-0.9948883056640625,-2.991851806640625
1663861820973845200,7.35584521484375,-10.072525024414062,-1.0379791259765625,-3.075653076171875
1663861820983733000,7.36573291015625,-10.125198364257812,-1.102630615234375,-3.0181884765625
1663861820993620700,7.375620849609375,-10.141952514648438,-1.1744537353515625,-2.9415740966796875
1663861821003508500,7.385508544921875,-10.132369995117188,-1.23431396484375,-2.790740966796875
1663861821013396000,7.39539599609375,-10.072525024414062,-1.2750091552734375,-2.654266357421875
1663861821023283700,7.40528369140625,-9.96478271484375,-1.2390899658203125,-2.5034332275390625
1663861821033141000,7.41514111328125,-9.938446044921875,-1.1792449951171875,-2.35260009765625
1663861821043028700,7.42502880859375,-9.90252685546875,-1.1505126953125,-2.242462158203125
1663861821052916200,7.434916259765625,-9.919296264648438,-1.0834808349609375,-2.084442138671875
1663861821062804000,7.444803955078125,-9.971969604492188,-1.0834808349609375,-1.8785552978515625
1663861821072691700,7.454691650390625,-10.019851684570312,-1.16009521484375,-1.73968505859375
1663861821082579500,7.464579345703125,-10.084487915039062,-1.20318603515625,-1.713348388671875
1663861821092436500,7.4744365234375,-10.079696655273438,-1.1481170654296875,-1.80194091796875
1663861821102324200,7.48432421875,-10.094070434570312,-1.0954437255859375,-1.9288330078125
1663861821112181500,7.494181396484375,-10.1036376953125,-1.03558349609375,-2.0605010986328125
1663861821122038500,7.50403857421875,-10.149139404296875,-1.0116424560546875,-2.2664031982421875
1663861821131926300,7.51392626953125,-10.11322021484375,-0.9900970458984375,-2.4340057373046875
1663861821141844500,7.523844482421875,-10.036605834960938,-1.0212249755859375,-2.580047607421875
1663861821151701800,7.53370166015625,-9.974349975585938,-1.0308074951171875,-2.642303466796875
1663861821161589500,7.543589599609375,-9.936050415039062,-1.0858612060546875,-2.716522216796875
1663861821171446500,7.553446533203125,-9.9552001953125,-1.1169891357421875,-2.7955322265625
1663861821181364700,7.56336474609375,-10.019851684570312,-1.1265716552734375,-2.8362274169921875
1663861821191252500,7.57325244140625,-10.067733764648438,-1.1098175048828125,-2.84820556640625
1663861821201140200,7.58314013671875,-10.086883544921875,-1.06671142578125,-2.8506011962890625
1663861821210997500,7.59299755859375,-10.034210205078125,-1.0906524658203125,-2.8506011962890625
1663861821220885000,7.602885009765625,-10.022247314453125,-1.124176025390625,-2.7835540771484375
1663861821230772700,7.612772705078125,-10.015060424804688,-1.155303955078125,-2.685394287109375
1663861821240660500,7.622660400390625,-10.010269165039062,-1.176849365234375,-2.589630126953125
1663861821250548200,7.63254833984375,-9.967178344726562,-1.17205810546875,-2.5130157470703125
1663861821260405200,7.6424052734375,-9.986328125,-1.114593505859375,-2.4483642578125
1663861821270323500,7.652323486328125,-9.991119384765625,-1.0691070556640625,-2.4387969970703125
1663861821280180700,7.6621806640625,-9.983932495117188,-1.006866455078125,-2.4603424072265625
1663861821290068500,7.672068359375,-10.024627685546875,-0.9948883056640625,-2.5201873779296875
1663861821299956200,7.681956298828125,-10.05096435546875,-0.9948883056640625,-2.589630126953125
1663861821309813200,7.691813232421875,-10.055755615234375,-0.9853057861328125,-2.6255340576171875
1663861821319701000,7.701700927734375,-10.041397094726562,-1.040374755859375,-2.64947509765625
1663861821329619200,7.711619140625,-10.015060424804688,-1.093048095703125,-2.6829986572265625
1663861821339476500,7.7214765625,-9.988723754882812,-1.1433258056640625,-2.7021484375
1663861821349364000,7.731364013671875,-9.991119384765625,-1.1385345458984375,-2.72369384765625
1663861821359221200,7.74122119140625,-10.010269165039062,-1.1265716552734375,-2.7404632568359375
1663861821369139500,7.751139404296875,-10.005477905273438,-1.09783935546875,-2.7620086669921875
1663861821379027200,7.761027099609375,-10.015060424804688,-1.0834808349609375,-2.769195556640625
1663861821388915000,7.7709150390625,-10.0294189453125,-1.0738983154296875,-2.7572174072265625
1663861821398772000,7.78077197265625,-10.000686645507812,-1.0738983154296875,-2.7189178466796875
1663861821408629200,7.790629150390625,-9.983932495117188,-1.0786895751953125,-2.6782073974609375
1663861821418547500,7.80054736328125,-10.034210205078125,-1.0882568359375,-2.6470794677734375
1663861821428435200,7.810435302734375,-10.036605834960938,-1.1050262451171875,-2.6183624267578125
1663861821438323000,7.820322998046875,-10.015060424804688,-1.102630615234375,-2.5848388671875
1663861821448210400,7.83021044921875,-10.010269165039062,-1.0858612060546875,-2.589630126953125
1663861821458067700,7.840067626953125,-10.022247314453125,-1.0834808349609375,-2.57525634765625
1663861821467955500,7.84995556640625,-9.99591064453125,-1.1098175048828125,-2.5465240478515625
1663861821477843200,7.85984326171875,-10.03900146484375,-1.114593505859375,-2.53216552734375
1663861821487730700,7.869730712890625,-10.019851684570312,-1.1050262451171875,-2.4986419677734375
1663861821497618400,7.879618408203125,-10.027023315429688,-1.1313629150390625,-2.496246337890625
1663861821507475700,7.889475830078125,-10.027023315429688,-1.119384765625,-2.4986419677734375
1663861821517394000,7.899393798828125,-10.034210205078125,-1.1002349853515625,-2.5082244873046875
1663861821527281700,7.90928173828125,-10.0294189453125,-1.1313629150390625,-2.4914703369140625
1663861821537169200,7.919169189453125,-10.027023315429688,-1.1313629150390625,-2.50103759765625
1663861821547057000,7.929056884765625,-10.043792724609375,-1.1121978759765625,-2.5249786376953125
1663861821556944600,7.938944580078125,-10.03900146484375,-1.1121978759765625,-2.548919677734375
1663861821566832400,7.948832275390625,-10.022247314453125,-1.102630615234375,-2.5441436767578125
1663861821576720100,7.95872021484375,-10.015060424804688,-1.09783935546875,-2.558502197265625
1663861821586607900,7.96860791015625,-10.005477905273438,-1.1169891357421875,-2.589630126953125
1663861821596465000,7.97846484375,-9.988723754882812,-1.1098175048828125,-2.6303253173828125
1663861821606352600,7.9883525390625,-9.983932495117188,-1.0882568359375,-2.642303466796875
1663861821616240400,7.998240478515625,-9.979141235351562,-1.119384765625,-2.6734161376953125
1663861821626128100,8.008128173828124,-9.991119384765625,-1.1121978759765625,-2.685394287109375
1663861821636015600,8.018015625,-10.022247314453125,-1.107421875,-2.66864013671875
1663861821645903400,8.0279033203125,-9.998291015625,-1.1050262451171875,-2.6997528076171875
1663861821655760600,8.0377607421875,-10.000686645507812,-1.102630615234375,-2.694976806640625
1663861821665648400,8.0476484375,-10.005477905273438,-1.0954437255859375,-2.7021484375
1663861821675536000,8.057535888671875,-10.034210205078125,-1.102630615234375,-2.68060302734375
1663861821685393200,8.06739306640625,-10.027023315429688,-1.1002349853515625,-2.68060302734375
1663861821695281000,8.077281005859374,-10.00787353515625,-1.0858612060546875,-2.6782073974609375
1663861821705138000,8.087137939453125,-10.015060424804688,-1.0834808349609375,-2.690185546875
1663861821715056000,8.09705615234375,-9.991119384765625,-1.0834808349609375,-2.6877899169921875
1663861821724944000,8.10694384765625,-9.97674560546875,-1.0906524658203125,-2.685394287109375
1663861821734831600,8.11683154296875,-9.986328125,-1.093048095703125,-2.6590576171875
1663861821744719400,8.12671923828125,-10.005477905273438,-1.093048095703125,-2.6782073974609375
1663861821754576400,8.136576416015625,-10.031814575195312,-1.1169891357421875,-2.6614532470703125
1663861821764433700,8.14643359375,-10.048583984375,-1.136138916015625,-2.6710357666015625
1663861821774321400,8.1563212890625,-10.055755615234375,-1.1169891357421875,-2.6614532470703125
1663861821784209200,8.166209228515624,-10.03900146484375,-1.119384765625,-2.6590576171875
1663861821794096600,8.1760966796875,-10.010269165039062,-1.12896728515625,-2.6470794677734375
1663861821803954000,8.185953857421875,-9.979141235351562,-1.1529083251953125,-2.6614532470703125
1663861821813872000,8.1958720703125,-9.967178344726562,-1.1313629150390625,-2.6518707275390625
1663861821823729400,8.2057294921875,-9.974349975585938,-1.1098175048828125,-2.6135711669921875
1663861821833617000,8.215616943359375,-9.969573974609375,-1.1050262451171875,-2.589630126953125
1663861821843504600,8.225504638671875,-9.99591064453125,-1.107421875,-2.611175537109375
1663861821853362000,8.23536181640625,-10.012664794921875,-1.09783935546875,-2.6279296875
1663861821863249700,8.245249755859374,-9.979141235351562,-1.1265716552734375,-2.6303253173828125
1663861821873168000,8.25516796875,-9.979141235351562,-1.133758544921875,-2.6614532470703125
1663861821883055600,8.2650556640625,-9.983932495117188,-1.119384765625,-2.6566619873046875
1663861821892943000,8.274943115234375,-9.991119384765625,-1.136138916015625,-2.6614532470703125
1663861821902830800,8.284830810546875,-9.983932495117188,-1.1433258056640625,-2.6470794677734375
1663861821912718600,8.294718505859375,-9.962387084960938,-1.136138916015625,-2.6566619873046875
1663861821922606300,8.3046064453125,-10.003082275390625,-1.1576995849609375,-2.690185546875
1663861821932494000,8.314494140625,-10.010269165039062,-1.1313629150390625,-2.675811767578125
1663861821942381600,8.324381591796875,-9.998291015625,-1.119384765625,-2.6829986572265625
1663861821952238800,8.33423876953125,-9.981536865234375,-1.1385345458984375,-2.6662445068359375
1663861821962126600,8.344126708984374,-9.993515014648438,-1.119384765625,-2.6470794677734375
1663861821972014300,8.354014404296874,-9.993515014648438,-1.1121978759765625,-2.663848876953125
1663861821981901800,8.36390185546875,-9.983932495117188,-1.1098175048828125,-2.6710357666015625
1663861821991789600,8.37378955078125,-10.000686645507812,-1.1433258056640625,-2.685394287109375
1663861822001677300,8.38367724609375,-10.027023315429688,-1.114593505859375,-2.6782073974609375
1663861822011565000,8.39356494140625,-10.005477905273438,-1.1098175048828125,-2.6782073974609375
1663861822021452800,8.403452880859374,-10.019851684570312,-1.1433258056640625,-2.685394287109375
1663861822031309800,8.413309814453125,-10.0174560546875,-1.12896728515625,-2.6782073974609375
1663861822041197600,8.423197509765625,-9.993515014648438,-1.1050262451171875,-2.6662445068359375
1663861822051054800,8.433054931640624,-9.979141235351562,-1.119384765625,-2.6518707275390625
1663861822060942300,8.4429423828125,-9.969573974609375,-1.12896728515625,-2.6662445068359375
1663861822070830000,8.452830078125,-9.983932495117188,-1.119384765625,-2.675811767578125
1663861822080687400,8.462687255859375,-10.022247314453125,-1.1217803955078125,-2.6782073974609375
1663861822090575000,8.4725751953125,-9.986328125,-1.133758544921875,-2.642303466796875
1663861822100432100,8.48243212890625,-10.019851684570312,-1.12896728515625,-2.66864013671875
1663861822110319900,8.49231982421875,-9.986328125,-1.1169891357421875,-2.64947509765625
1663861822120207600,8.50220751953125,-9.988723754882812,-1.1265716552734375,-2.620758056640625
1663861822130125800,8.512125732421875,-10.00787353515625,-1.12896728515625,-2.632720947265625
1663861822139983000,8.521983154296874,-9.998291015625,-1.1169891357421875,-2.6399078369140625
1663861822149870600,8.53187060546875,-10.012664794921875,-1.1313629150390625,-2.642303466796875
1663861822159758300,8.54175830078125,-10.012664794921875,-1.1217803955078125,-2.6183624267578125
1663861822169615600,8.55161572265625,-9.991119384765625,-1.1217803955078125,-2.6446990966796875
1663861822179503400,8.56150341796875,-9.988723754882812,-1.1576995849609375,-2.6446990966796875
1663861822189421600,8.571421630859374,-9.981536865234375,-1.1433258056640625,-2.663848876953125
1663861822199278600,8.581278564453125,-10.019851684570312,-1.133758544921875,-2.675811767578125
1663861822209166300,8.591166259765625,-9.998291015625,-1.124176025390625,-2.675811767578125
1663861822219054000,8.60105419921875,-9.993515014648438,-1.1433258056640625,-2.685394287109375
1663861822228941800,8.61094189453125,-10.00787353515625,-1.12896728515625,-2.654266357421875
1663861822238829300,8.620829345703125,-9.99591064453125,-1.133758544921875,-2.6614532470703125
1663861822248686600,8.6306865234375,-10.003082275390625,-1.1217803955078125,-2.6590576171875
1663861822258574300,8.64057421875,-10.015060424804688,-1.1265716552734375,-2.6662445068359375
1663861822268492500,8.650492431640625,-9.998291015625,-1.1265716552734375,-2.6782073974609375
1663861822278380300,8.66038037109375,-10.012664794921875,-1.124176025390625,-2.675811767578125
1663861822288267800,8.670267822265625,-10.031814575195312,-1.114593505859375,-2.6614532470703125
1663861822298125000,8.680125,-10.003082275390625,-1.124176025390625,-2.66864013671875
1663861822308012800,8.6900126953125,-9.979141235351562,-1.1217803955078125,-2.6518707275390625
1663861822317900500,8.699900634765624,-9.986328125,-1.1265716552734375,-2.632720947265625
1663861822327788300,8.709788330078124,-9.99591064453125,-1.107421875,-2.6351165771484375
1663861822337675800,8.71967578125,-9.993515014648438,-1.0954437255859375,-2.6446990966796875
1663861822347563500,8.7295634765625,-9.986328125,-1.102630615234375,-2.6351165771484375
1663861822357420800,8.7394208984375,-9.979141235351562,-1.1098175048828125,-2.632720947265625
1663861822367308500,8.74930859375,-10.00787353515625,-1.114593505859375,-2.620758056640625
1663861822377196000,8.759196044921875,-9.99591064453125,-1.093048095703125,-2.6303253173828125
1663861822387083800,8.769083740234375,-10.003082275390625,-1.107421875,-2.64947509765625
1663861822396941000,8.778941162109374,-10.00787353515625,-1.1169891357421875,-2.6566619873046875
1663861822406828800,8.788828857421874,-10.060546875,-1.12896728515625,-2.64947509765625
1663861822416716300,8.79871630859375,-10.046188354492188,-1.1265716552734375,-2.6518707275390625
1663861822426604000,8.80860400390625,-10.043792724609375,-1.119384765625,-2.6351165771484375
1663861822436491800,8.81849169921875,-10.034210205078125,-1.1433258056640625,-2.63751220703125
1663861822446379500,8.828379638671874,-10.0294189453125,-1.16009521484375,-2.620758056640625
1663861822456267300,8.838267333984374,-9.9552001953125,-1.1481170654296875,-2.6446990966796875
1663861822466154800,8.84815478515625,-9.96478271484375,-1.1217803955078125,-2.6255340576171875
1663861822476042500,8.85804248046875,-9.96478271484375,-1.0954437255859375,-2.623138427734375
1663861822485930200,8.86793017578125,-10.022247314453125,-1.0882568359375,-2.6135711669921875
1663861822495787500,8.87778759765625,-10.0294189453125,-1.0834808349609375,-2.6303253173828125
1663861822505675000,8.887675048828125,-10.034210205078125,-1.0882568359375,-2.6255340576171875
1663861822515562800,8.897562744140625,-10.043792724609375,-1.0906524658203125,-2.6470794677734375
1663861822525450500,8.907450439453125,-10.010269165039062,-1.093048095703125,-2.654266357421875
1663861822535338200,8.917338134765625,-9.981536865234375,-1.102630615234375,-2.642303466796875
1663861822545226000,8.92722607421875,-9.974349975585938,-1.1098175048828125,-2.6399078369140625
1663861822555113700,8.93711376953125,-9.998291015625,-1.124176025390625,-2.6734161376953125
1663861822565001200,8.947001220703125,-9.979141235351562,-1.1121978759765625,-2.663848876953125
1663861822574858500,8.9568583984375,-9.983932495117188,-1.1121978759765625,-2.6614532470703125
1663861822584746200,8.966746337890624,-9.986328125,-1.1121978759765625,-2.6829986572265625
1663861822594603300,8.976603271484375,-10.010269165039062,-1.1265716552734375,-2.6518707275390625
1663861822604491000,8.986490966796875,-10.019851684570312,-1.09783935546875,-2.642303466796875
1663861822614378800,8.996378662109375,-9.981536865234375,-1.102630615234375,-2.6446990966796875
1663861822624266500,9.0062666015625,-9.993515014648438,-1.119384765625,-2.6399078369140625
1663861822634154200,9.016154296875,-10.000686645507812,-1.107421875,-2.6470794677734375
1663861822644041700,9.026041748046875,-9.99591064453125,-1.124176025390625,-2.6351165771484375
1663861822653929500,9.035929443359375,-10.024627685546875,-1.1169891357421875,-2.6183624267578125
1663861822663817200,9.045817138671875,-10.019851684570312,-1.107421875,-2.620758056640625
1663861822673705000,9.055705078125,-9.991119384765625,-1.0906524658203125,-2.6351165771484375
1663861822683592700,9.0655927734375,-10.000686645507812,-1.0906524658203125,-2.623138427734375
1663861822693480200,9.075480224609375,-10.012664794921875,-1.1050262451171875,-2.620758056640625
1663861822703368000,9.085367919921875,-9.993515014648438,-1.119384765625,-2.623138427734375
1663861822713225200,9.09522509765625,-10.012664794921875,-1.102630615234375,-2.6135711669921875
1663861822723113000,9.105113037109374,-10.027023315429688,-1.102630615234375,-2.6183624267578125
1663861822733000400,9.11500048828125,-10.024627685546875,-1.1098175048828125,-2.5920257568359375
1663861822742857700,9.124857666015625,-10.0174560546875,-1.093048095703125,-2.6255340576171875
1663861822752715000,9.134715087890624,-10.0294189453125,-1.1098175048828125,-2.63751220703125
1663861822762633200,9.14463330078125,-10.031814575195312,-1.093048095703125,-2.59442138671875
1663861822772521000,9.15452099609375,-9.988723754882812,-1.1050262451171875,-2.615966796875
1663861822782408400,9.164408447265625,-9.99591064453125,-1.0906524658203125,-2.611175537109375
1663861822792265700,9.174265625,-10.003082275390625,-1.107421875,-2.60638427734375
1663861822802153500,9.184153564453124,-10.019851684570312,-1.1217803955078125,-2.642303466796875
1663861822812041200,9.194041259765624,-10.022247314453125,-1.1002349853515625,-2.6351165771484375
1663861822821898200,9.203898193359375,-10.000686645507812,-1.107421875,-2.6351165771484375
1663861822831786000,9.213785888671875,-10.010269165039062,-1.1098175048828125,-2.6399078369140625
1663861822841643300,9.223643310546874,-10.012664794921875,-1.102630615234375,-2.6303253173828125
1663861822851530800,9.23353076171875,-10.000686645507812,-1.107421875,-2.6303253173828125
1663861822861449000,9.243448974609375,-10.0174560546875,-1.107421875,-2.63751220703125
1663861822871306200,9.25330615234375,-10.005477905273438,-1.1098175048828125,-2.6399078369140625
1663861822881224400,9.263224365234375,-10.005477905273438,-1.124176025390625,-2.6303253173828125
1663861822891081700,9.273081787109374,-10.003082275390625,-1.09783935546875,-2.642303466796875
1663861822900969200,9.28296923828125,-9.998291015625,-1.1098175048828125,-2.6662445068359375
1663861822910857000,9.29285693359375,-10.000686645507812,-1.107421875,-2.654266357421875
1663861822920714200,9.30271435546875,-9.988723754882812,-1.102630615234375,-2.642303466796875
1663861822930602000,9.31260205078125,-10.005477905273438,-1.1098175048828125,-2.632720947265625
1663861822940489500,9.322489501953125,-10.022247314453125,-1.1265716552734375,-2.642303466796875
1663861822950377200,9.332377197265625,-10.015060424804688,-1.119384765625,-2.64947509765625
1663861822960295400,9.34229541015625,-9.99591064453125,-1.1121978759765625,-2.64947509765625
1663861822970152700,9.352152587890625,-9.993515014648438,-1.1313629150390625,-2.6518707275390625
1663861822980040400,9.36204052734375,-10.012664794921875,-1.119384765625,-2.6446990966796875
1663861822989928000,9.371927978515625,-9.99591064453125,-1.1313629150390625,-2.6351165771484375
1663861822999785200,9.38178515625,-9.986328125,-1.119384765625,-2.6255340576171875
1663861823009673000,9.3916728515625,-10.0174560546875,-1.102630615234375,-2.63751220703125
1663861823019560700,9.401560791015624,-10.015060424804688,-1.107421875,-2.611175537109375
1663861823029448400,9.411448486328124,-9.988723754882812,-1.102630615234375,-2.6446990966796875
1663861823039336000,9.4213359375,-9.986328125,-1.0954437255859375,-2.620758056640625
1663861823049223700,9.4312236328125,-10.012664794921875,-1.1098175048828125,-2.611175537109375
1663861823059111400,9.441111328125,-10.005477905273438,-1.1265716552734375,-2.63751220703125
1663861823068999200,9.450999267578124,-10.077301025390625,-1.133758544921875,-2.6279296875
1663861823078856200,9.460856201171875,-10.08209228515625,-1.1265716552734375,-2.620758056640625
1663861823088713500,9.47071337890625,-10.015060424804688,-1.102630615234375,-2.5920257568359375
1663861823098601200,9.480601318359374,-10.003082275390625,-1.124176025390625,-2.6183624267578125
1663861823108489000,9.490489013671874,-9.974349975585938,-1.119384765625,-2.6351165771484375
1663861823118376400,9.50037646484375,-9.967178344726562,-1.1121978759765625,-2.620758056640625
1663861823128294700,9.510294677734375,-9.99591064453125,-1.107421875,-2.620758056640625
1663861823138182400,9.520182373046875,-10.0294189453125,-1.1098175048828125,-2.6279296875
1663861823148070100,9.530070068359375,-10.046188354492188,-1.1098175048828125,-2.611175537109375
1663861823157958000,9.5399580078125,-10.03900146484375,-1.1121978759765625,-2.6183624267578125
1663861823167845600,9.549845703125,-10.058151245117188,-1.1313629150390625,-2.632720947265625
1663861823177733000,9.559733154296875,-9.99591064453125,-1.124176025390625,-2.642303466796875
1663861823187620900,9.569620849609375,-9.950408935546875,-1.12896728515625,-2.623138427734375
1663861823197508600,9.579508544921875,-9.952804565429688,-1.12896728515625,-2.623138427734375
1663861823207366000,9.589365966796874,-9.948013305664062,-1.1050262451171875,-2.615966796875
1663861823217253400,9.59925341796875,-9.974349975585938,-1.12896728515625,-2.6183624267578125
1663861823227141000,9.60914111328125,-9.993515014648438,-1.1385345458984375,-2.6303253173828125
1663861823237028900,9.61902880859375,-9.974349975585938,-1.1385345458984375,-2.6590576171875
1663861823246916600,9.62891650390625,-10.015060424804688,-1.1098175048828125,-2.663848876953125
1663861823256804400,9.638804443359374,-10.015060424804688,-1.1265716552734375,-2.6590576171875
1663861823266692000,9.648692138671874,-9.97674560546875,-1.124176025390625,-2.6566619873046875
1663861823276549000,9.658549072265625,-9.99591064453125,-1.114593505859375,-2.6470794677734375
1663861823286406400,9.668406494140624,-10.027023315429688,-1.107421875,-2.623138427734375
1663861823296294100,9.678294189453124,-10.0294189453125,-1.1121978759765625,-2.6446990966796875
1663861823306181600,9.688181640625,-9.998291015625,-1.114593505859375,-2.64947509765625
1663861823316069400,9.6980693359375,-10.0174560546875,-1.1050262451171875,-2.6399078369140625
1663861823325957000,9.70795703125,-10.005477905273438,-1.114593505859375,-2.632720947265625
1663861823335844900,9.717844970703124,-9.998291015625,-1.1217803955078125,-2.6446990966796875
1663861823345732600,9.727732666015624,-10.022247314453125,-1.107421875,-2.6446990966796875
1663861823355589600,9.737589599609375,-10.00787353515625,-1.119384765625,-2.6135711669921875
1663861823365477400,9.747477294921875,-10.019851684570312,-1.1265716552734375,-2.620758056640625
1663861823375365000,9.757365234375,-10.012664794921875,-1.1265716552734375,-2.6135711669921875
1663861823385252900,9.7672529296875,-9.99591064453125,-1.124176025390625,-2.6135711669921875
1663861823395110000,9.77710986328125,-9.998291015625,-1.119384765625,-2.623138427734375
1663861823404997600,9.78699755859375,-10.015060424804688,-1.107421875,-2.6255340576171875
1663861823414885400,9.796885498046874,-10.012664794921875,-1.1217803955078125,-2.5920257568359375
1663861823424773000,9.806773193359374,-9.993515014648438,-1.124176025390625,-2.620758056640625
1663861823434660600,9.81666064453125,-10.003082275390625,-1.1217803955078125,-2.6135711669921875
1663861823444548400,9.82654833984375,-9.998291015625,-1.133758544921875,-2.6279296875
1663861823454436000,9.83643603515625,-10.0174560546875,-1.124176025390625,-2.5991973876953125
1663861823464323800,9.84632373046875,-9.998291015625,-1.1313629150390625,-2.6039886474609375
1663861823474211600,9.856211669921874,-9.993515014648438,-1.1385345458984375,-2.6303253173828125
1663861823484099300,9.866099365234374,-10.00787353515625,-1.136138916015625,-2.6279296875
1663861823493986800,9.87598681640625,-10.00787353515625,-1.119384765625,-2.6039886474609375
1663861823503874600,9.88587451171875,-10.005477905273438,-1.12896728515625,-2.6279296875
1663861823513731800,9.89573193359375,-10.012664794921875,-1.136138916015625,-2.6399078369140625
1663861823523619600,9.90561962890625,-10.024627685546875,-1.1121978759765625,-2.6183624267578125
1663861823533507000,9.915507080078125,-10.019851684570312,-1.102630615234375,-2.6255340576171875
1663861823543394800,9.925394775390625,-10.031814575195312,-1.1169891357421875,-2.6590576171875
1663861823553282600,9.935282470703125,-10.015060424804688,-1.1169891357421875,-2.6446990966796875
1663861823563170300,9.94517041015625,-9.993515014648438,-1.1265716552734375,-2.6303253173828125
1663861823573058000,9.95505810546875,-9.99591064453125,-1.114593505859375,-2.6279296875
1663861823582945500,9.964945556640625,-9.991119384765625,-1.107421875,-2.623138427734375
1663861823592802800,9.974802734375,-10.010269165039062,-1.12896728515625,-2.6279296875
1663861823602690600,9.984690673828124,-10.012664794921875,-1.124176025390625,-2.620758056640625
1663861823612578300,9.994578369140624,-10.003082275390625,-1.1169891357421875,-2.642303466796875
1663861823622465800,10.0044658203125,-10.005477905273438,-1.119384765625,-2.642303466796875
1663861823632353500,10.014353515625,-9.99591064453125,-1.12896728515625,-2.6183624267578125
1663861823642241300,10.0242412109375,-9.998291015625,-1.155303955078125,-2.611175537109375
1663861823652098600,10.0340986328125,-10.010269165039062,-1.136138916015625,-2.6183624267578125
1663861823661986000,10.043986083984375,-9.983932495117188,-1.1313629150390625,-2.6183624267578125
1663861823671873800,10.053873779296875,-9.988723754882812,-1.12896728515625,-2.6135711669921875
1663861823681761500,10.063761474609375,-9.986328125,-1.124176025390625,-2.6255340576171875
1663861823691649300,10.073649169921875,-9.971969604492188,-1.12896728515625,-2.6183624267578125
1663861823701537000,10.083537109375,-10.00787353515625,-1.107421875,-2.620758056640625
1663861823711394000,10.09339404296875,-9.986328125,-1.1217803955078125,-2.611175537109375
1663861823721281800,10.10328173828125,-10.027023315429688,-1.114593505859375,-2.615966796875
1663861823731139000,10.11313916015625,-10.0294189453125,-1.1385345458984375,-2.6279296875
1663861823741026800,10.12302685546875,-10.046188354492188,-1.1433258056640625,-2.6183624267578125
1663861823750914300,10.132914306640625,-10.031814575195312,-1.133758544921875,-2.5991973876953125
1663861823760802000,10.142802001953125,-10.00787353515625,-1.12896728515625,-2.5968017578125
1663861823770689800,10.152689697265625,-9.97674560546875,-1.1313629150390625,-2.6399078369140625
1663861823780577500,10.16257763671875,-9.962387084960938,-1.119384765625,-2.6518707275390625
1663861823790465300,10.17246533203125,-9.971969604492188,-1.0954437255859375,-2.6135711669921875
1663861823800352800,10.182352783203125,-10.022247314453125,-1.1265716552734375,-2.6279296875
1663861823810240500,10.192240478515625,-10.036605834960938,-1.1121978759765625,-2.620758056640625
1663861823820128300,10.202128173828125,-10.0174560546875,-1.1098175048828125,-2.6255340576171875
1663861823829985500,10.211985595703124,-10.015060424804688,-1.1217803955078125,-2.63751220703125
1663861823839873000,10.221873046875,-10.000686645507812,-1.14093017578125,-2.6399078369140625
1663861823849730300,10.231730224609375,-9.974349975585938,-1.1385345458984375,-2.611175537109375
1663861823859618000,10.2416181640625,-9.957595825195312,-1.1505126953125,-2.60638427734375
1663861823869475000,10.25147509765625,-9.96478271484375,-1.1385345458984375,-2.6087799072265625
1663861823879393300,10.261393310546875,-9.991119384765625,-1.145721435546875,-2.6399078369140625
1663861823889281000,10.271281005859375,-10.000686645507812,-1.136138916015625,-2.620758056640625
1663861823899168800,10.281168701171875,-10.00787353515625,-1.1313629150390625,-2.632720947265625
1663861823909056500,10.291056396484375,-10.00787353515625,-1.1265716552734375,-2.6399078369140625
1663861823918944300,10.3009443359375,-10.012664794921875,-1.1265716552734375,-2.6518707275390625
1663861823928831700,10.310831787109375,-10.027023315429688,-1.1169891357421875,-2.6446990966796875
1663861823938689000,10.32068896484375,-10.027023315429688,-1.1002349853515625,-2.654266357421875
1663861823948576800,10.33057666015625,-10.015060424804688,-1.1121978759765625,-2.6566619873046875
1663861823958433800,10.340433837890625,-10.0174560546875,-1.1265716552734375,-2.6470794677734375
1663861823968321500,10.350321533203125,-10.0174560546875,-1.1098175048828125,-2.63751220703125
1663861823978209300,10.360209228515625,-9.988723754882812,-1.1002349853515625,-2.620758056640625
1663861823988097000,10.370096923828125,-10.000686645507812,-1.1098175048828125,-2.6279296875
1663861823997954300,10.379954345703124,-10.000686645507812,-1.124176025390625,-2.6087799072265625
1663861824007841800,10.389841796875,-9.981536865234375,-1.119384765625,-2.6255340576171875
1663861824017729500,10.3997294921875,-9.998291015625,-1.1169891357421875,-2.615966796875
1663861824027617300,10.4096171875,-10.00787353515625,-1.1433258056640625,-2.6087799072265625
1663861824037505000,10.419505126953124,-10.010269165039062,-1.114593505859375,-2.6087799072265625
1663861824047362000,10.429362060546875,-10.019851684570312,-1.1265716552734375,-2.6279296875
1663861824057280300,10.4392802734375,-10.00787353515625,-1.136138916015625,-2.6183624267578125
1663861824067168000,10.44916796875,-10.024627685546875,-1.1098175048828125,-2.6255340576171875
1663861824077055700,10.4590556640625,-10.027023315429688,-1.102630615234375,-2.6303253173828125
1663861824086943500,10.468943603515624,-9.983932495117188,-1.1098175048828125,-2.5991973876953125
1663861824096831200,10.478831298828124,-9.97674560546875,-1.1265716552734375,-2.6087799072265625
1663861824106718700,10.48871875,-9.979141235351562,-1.119384765625,-2.6135711669921875
1663861824116606500,10.4986064453125,-9.979141235351562,-1.1098175048828125,-2.60638427734375
1663861824126494200,10.508494140625,-9.969573974609375,-1.1217803955078125,-2.6255340576171875
1663861824136382000,10.5183818359375,-9.983932495117188,-1.114593505859375,-2.6399078369140625
1663861824146239000,10.528239013671875,-9.998291015625,-1.1121978759765625,-2.6183624267578125
1663861824156126700,10.538126708984375,-10.024627685546875,-1.119384765625,-2.63751220703125
1663861824165984000,10.54798388671875,-10.000686645507812,-1.1385345458984375,-2.6303253173828125
1663861824175871700,10.557871826171874,-10.0174560546875,-1.1265716552734375,-2.6470794677734375
1663861824185759200,10.56775927734375,-10.0294189453125,-1.102630615234375,-2.6279296875
1663861824195647000,10.57764697265625,-10.027023315429688,-1.1121978759765625,-2.6470794677734375
1663861824205534700,10.58753466796875,-10.000686645507812,-1.1313629150390625,-2.642303466796875
1663861824215422500,10.59742236328125,-9.979141235351562,-1.107421875,-2.6446990966796875
1663861824225310200,10.607310302734374,-10.005477905273438,-1.1098175048828125,-2.6590576171875
1663861824235198000,10.617197998046874,-9.981536865234375,-1.09783935546875,-2.6566619873046875
1663861824245085400,10.62708544921875,-9.998291015625,-1.1098175048828125,-2.6470794677734375
1663861824254973200,10.63697314453125,-10.010269165039062,-1.1121978759765625,-2.6303253173828125
1663861824264861000,10.64686083984375,-10.034210205078125,-1.107421875,-2.6279296875
1663861824274718200,10.65671826171875,-10.003082275390625,-1.102630615234375,-2.623138427734375
1663861824284605700,10.666605712890625,-9.99591064453125,-1.119384765625,-2.63751220703125
1663861824294493400,10.676493408203125,-9.99591064453125,-1.1098175048828125,-2.632720947265625
1663861824304381200,10.686381103515625,-9.988723754882812,-1.1098175048828125,-2.6303253173828125
1663861824314269000,10.69626904296875,-9.988723754882812,-1.1121978759765625,-2.6351165771484375
1663861824324156700,10.70615673828125,-10.015060424804688,-1.1313629150390625,-2.623138427734375
1663861824334013700,10.716013671875,-10.0174560546875,-1.124176025390625,-2.6351165771484375
1663861824343901400,10.7259013671875,-10.041397094726562,-1.119384765625,-2.6566619873046875
1663861824353789200,10.7357890625,-10.0174560546875,-1.1169891357421875,-2.6518707275390625
1663861824363646200,10.745646240234375,-9.981536865234375,-1.107421875,-2.663848876953125
1663861824373503500,10.75550341796875,-9.991119384765625,-1.107421875,-2.6518707275390625
1663861824383421700,10.765421630859375,-10.005477905273438,-1.1169891357421875,-2.6446990966796875
1663861824393309400,10.775309326171875,-10.010269165039062,-1.0954437255859375,-2.6518707275390625
1663861824403197200,10.785197265625,-10.027023315429688,-1.09783935546875,-2.6614532470703125
1663861824413084700,10.795084716796875,-10.046188354492188,-1.093048095703125,-2.6710357666015625
1663861824422972400,10.804972412109375,-10.074905395507812,-1.093048095703125,-2.654266357421875
1663861824432860200,10.814860107421875,-10.058151245117188,-1.114593505859375,-2.6470794677734375
1663861824442748000,10.824747802734375,-10.012664794921875,-1.119384765625,-2.6590576171875
1663861824452635600,10.8346357421875,-10.015060424804688,-1.1265716552734375,-2.6614532470703125
1663861824462492700,10.84449267578125,-9.983932495117188,-1.136138916015625,-2.663848876953125
1663861824472380400,10.85438037109375,-9.967178344726562,-1.12896728515625,-2.6734161376953125
1663861824482237700,10.86423779296875,-9.969573974609375,-1.1169891357421875,-2.663848876953125
1663861824492125400,10.87412548828125,-9.99591064453125,-1.093048095703125,-2.6399078369140625
1663861824502013000,10.884012939453125,-10.005477905273438,-1.0882568359375,-2.6518707275390625
1663861824511900700,10.893900634765625,-10.000686645507812,-1.107421875,-2.654266357421875
1663861824521788400,10.903788330078125,-10.010269165039062,-1.1121978759765625,-2.675811767578125
1663861824531676200,10.91367626953125,-9.998291015625,-1.12896728515625,-2.6662445068359375
1663861824541564000,10.92356396484375,-10.005477905273438,-1.136138916015625,-2.6566619873046875
1663861824551451400,10.933451416015625,-9.979141235351562,-1.1385345458984375,-2.6566619873046875
1663861824561308700,10.94330859375,-9.979141235351562,-1.124176025390625,-2.6566619873046875
1663861824571166000,10.953166015625,-10.00787353515625,-1.1121978759765625,-2.6470794677734375
1663861824581084200,10.963084228515624,-10.012664794921875,-1.107421875,-2.6446990966796875
1663861824590941200,10.972941162109375,-9.986328125,-1.1169891357421875,-2.6518707275390625
1663861824600829000,10.982828857421875,-10.019851684570312,-1.114593505859375,-2.64947509765625
1663861824610716700,10.992716552734375,-10.012664794921875,-1.1098175048828125,-2.6446990966796875
1663861824620604400,11.0026044921875,-10.00787353515625,-1.1002349853515625,-2.6303253173828125
1663861824630461400,11.01246142578125,-10.012664794921875,-1.1002349853515625,-2.6470794677734375
1663861824640379600,11.022379638671875,-10.005477905273438,-1.119384765625,-2.6518707275390625
1663861824650267400,11.032267333984375,-10.031814575195312,-1.107421875,-2.6351165771484375
1663861824660155100,11.042155029296875,-10.041397094726562,-1.102630615234375,-2.6446990966796875
1663861824670012400,11.052012451171874,-10.027023315429688,-1.1217803955078125,-2.6351165771484375
1663861824679900000,11.06189990234375,-9.983932495117188,-1.09783935546875,-2.6303253173828125
1663861824689757200,11.071757080078125,-10.0174560546875,-1.0882568359375,-2.6255340576171875
1663861824699675400,11.08167529296875,-9.991119384765625,-1.0858612060546875,-2.5968017578125
1663861824709532700,11.09153271484375,-10.005477905273438,-1.0954437255859375,-2.6039886474609375
1663861824719420200,11.101420166015625,-9.986328125,-1.119384765625,-2.632720947265625
1663861824729308000,11.111307861328125,-10.0294189453125,-1.107421875,-2.6087799072265625
1663861824739195600,11.121195556640625,-10.0174560546875,-1.1098175048828125,-2.6135711669921875
1663861824749083400,11.13108349609375,-10.024627685546875,-1.1050262451171875,-2.620758056640625
1663861824758940400,11.1409404296875,-10.00787353515625,-1.114593505859375,-2.63751220703125
1663861824768858600,11.150858642578125,-9.99591064453125,-1.1169891357421875,-2.6351165771484375
1663861824778746400,11.160746337890625,-9.988723754882812,-1.114593505859375,-2.6255340576171875
1663861824788634000,11.170634033203125,-9.998291015625,-1.102630615234375,-2.6399078369140625
1663861824798521900,11.18052197265625,-9.991119384765625,-1.114593505859375,-2.6303253173828125
1663861824808409600,11.19040966796875,-9.998291015625,-1.145721435546875,-2.63751220703125
1663861824818266600,11.2002666015625,-10.005477905273438,-1.1121978759765625,-2.6590576171875
1663861824828154400,11.210154296875,-10.015060424804688,-1.1313629150390625,-2.654266357421875
1663861824838011600,11.22001171875,-10.003082275390625,-1.124176025390625,-2.642303466796875
1663861824847899100,11.229899169921875,-10.034210205078125,-1.107421875,-2.654266357421875
1663861824857787000,11.239786865234375,-10.022247314453125,-1.107421875,-2.6590576171875
1663861824867644200,11.24964404296875,-10.005477905273438,-1.12896728515625,-2.6566619873046875
1663861824877532000,11.259531982421874,-10.012664794921875,-1.119384765625,-2.6518707275390625
1663861824887419400,11.26941943359375,-9.979141235351562,-1.1098175048828125,-2.64947509765625
1663861824897307100,11.27930712890625,-9.983932495117188,-1.1002349853515625,-2.654266357421875
1663861824907195000,11.28919482421875,-9.969573974609375,-1.1050262451171875,-2.68060302734375
1663861824917052200,11.29905224609375,-9.97674560546875,-1.1098175048828125,-2.6710357666015625
1663861824926970400,11.308970458984374,-9.986328125,-1.09783935546875,-2.6734161376953125
1663861824936858000,11.318858154296874,-10.010269165039062,-1.0882568359375,-2.6518707275390625
1663861824946745600,11.32874560546875,-10.003082275390625,-1.1050262451171875,-2.63751220703125
1663861824956633300,11.33863330078125,-10.010269165039062,-1.0906524658203125,-2.6399078369140625
1663861824966490600,11.34849072265625,-10.00787353515625,-1.107421875,-2.6518707275390625
1663861824976378400,11.35837841796875,-9.998291015625,-1.1169891357421875,-2.632720947265625
1663861824986265900,11.368265869140625,-10.00787353515625,-1.119384765625,-2.6446990966796875
1663861824996153600,11.378153564453125,-10.019851684570312,-1.119384765625,-2.6279296875
1663861825006041300,11.388041259765625,-10.012664794921875,-1.119384765625,-2.632720947265625
1663861825015929000,11.39792919921875,-10.019851684570312,-1.119384765625,-2.6351165771484375
1663861825025816800,11.40781689453125,-10.0174560546875,-1.124176025390625,-2.632720947265625
1663861825035704300,11.417704345703125,-10.010269165039062,-1.12896728515625,-2.6255340576171875
1663861825045592000,11.427592041015625,-10.031814575195312,-1.114593505859375,-2.6039886474609375
1663861825055479800,11.437479736328125,-9.998291015625,-1.102630615234375,-2.6279296875
1663861825065367600,11.447367431640625,-9.991119384765625,-1.09783935546875,-2.63751220703125
1663861825075224600,11.457224609375,-10.012664794921875,-1.09783935546875,-2.632720947265625
1663861825085112300,11.4671123046875,-10.0294189453125,-1.0882568359375,-2.620758056640625
1663861825095000000,11.477,-10.041397094726562,-1.102630615234375,-2.642303466796875
1663861825104857300,11.486857421875,-10.05096435546875,-1.1265716552734375,-2.6470794677734375
1663861825114714400,11.49671435546875,-10.046188354492188,-1.133758544921875,-2.632720947265625
1663861825124602000,11.50660205078125,-10.024627685546875,-1.107421875,-2.6279296875
1663861825134520300,11.516520263671875,-10.005477905273438,-1.133758544921875,-2.620758056640625
1663861825144408000,11.526407958984375,-9.998291015625,-1.1265716552734375,-2.6255340576171875
1663861825154295800,11.5362958984375,-9.971969604492188,-1.1169891357421875,-2.6351165771484375
1663861825164152800,11.54615283203125,-9.967178344726562,-1.102630615234375,-2.654266357421875
1663861825174010000,11.556010009765625,-10.015060424804688,-1.093048095703125,-2.6470794677734375
1663861825183928300,11.56592822265625,-10.015060424804688,-1.107421875,-2.632720947265625
1663861825193816000,11.575816162109374,-10.031814575195312,-1.1121978759765625,-2.6351165771484375
1663861825203703800,11.585703857421874,-10.024627685546875,-1.114593505859375,-2.6446990966796875
1663861825213560800,11.595560791015625,-9.998291015625,-1.107421875,-2.6351165771484375
1663861825223448600,11.605448486328125,-9.96478271484375,-1.1169891357421875,-2.64947509765625
1663861825233336300,11.61533642578125,-9.948013305664062,-1.1313629150390625,-2.6399078369140625
1663861825243224000,11.62522412109375,-9.940841674804688,-1.14093017578125,-2.64947509765625
1663861825253111600,11.635111572265625,-9.988723754882812,-1.1217803955078125,-2.632720947265625
1663861825262999300,11.644999267578125,-9.97674560546875,-1.1121978759765625,-2.63751220703125
1663861825272887000,11.654886962890625,-10.000686645507812,-1.1121978759765625,-2.6590576171875
1663861825282774800,11.66477490234375,-10.031814575195312,-1.133758544921875,-2.6782073974609375
1663861825292662500,11.67466259765625,-10.034210205078125,-1.119384765625,-2.6518707275390625
1663861825302550000,11.684550048828125,-10.0174560546875,-1.093048095703125,-2.64947509765625
1663861825312407300,11.6944072265625,-10.0294189453125,-1.0906524658203125,-2.654266357421875
1663861825322295000,11.704294921875,-10.010269165039062,-1.1002349853515625,-2.6518707275390625
1663861825332152000,11.714152099609375,-10.000686645507812,-1.107421875,-2.63751220703125
1663861825342039800,11.724039794921875,-9.986328125,-1.12896728515625,-2.64947509765625
1663861825351897000,11.73389697265625,-10.003082275390625,-1.124176025390625,-2.63751220703125
1663861825361815300,11.743815185546875,-10.034210205078125,-1.102630615234375,-2.623138427734375
1663861825371703000,11.753703125,-10.015060424804688,-1.1121978759765625,-2.620758056640625
1663861825381590800,11.7635908203125,-10.003082275390625,-1.114593505859375,-2.6255340576171875
1663861825391478300,11.773478271484375,-9.991119384765625,-1.1169891357421875,-2.6255340576171875
1663861825401366000,11.783365966796875,-9.962387084960938,-1.102630615234375,-2.623138427734375
1663861825411223300,11.793223388671874,-10.005477905273438,-1.12896728515625,-2.611175537109375
1663861825421111000,11.803111083984374,-10.019851684570312,-1.124176025390625,-2.6303253173828125
1663861825430968000,11.812968017578125,-10.036605834960938,-1.1121978759765625,-2.632720947265625
1663861825440886300,11.82288623046875,-10.022247314453125,-1.102630615234375,-2.6303253173828125
1663861825450774000,11.83277392578125,-9.998291015625,-1.102630615234375,-2.623138427734375
1663861825460661800,11.842661865234374,-9.991119384765625,-1.1385345458984375,-2.6279296875
1663861825470518800,11.852518798828125,-10.003082275390625,-1.136138916015625,-2.6183624267578125
1663861825480406500,11.862406494140625,-10.000686645507812,-1.114593505859375,-2.6135711669921875
1663861825490263800,11.872263916015624,-10.005477905273438,-1.1169891357421875,-2.6351165771484375
1663861825500182000,11.88218212890625,-9.998291015625,-1.124176025390625,-2.615966796875
1663861825510069800,11.89206982421875,-10.003082275390625,-1.1265716552734375,-2.623138427734375
1663861825519957200,11.901957275390625,-9.993515014648438,-1.14093017578125,-2.6279296875
1663861825529845000,11.911844970703125,-10.00787353515625,-1.1265716552734375,-2.642303466796875
1663861825539732700,11.921732666015625,-10.000686645507812,-1.107421875,-2.6255340576171875
1663861825549620500,11.931620361328125,-10.003082275390625,-1.12896728515625,-2.654266357421875
1663861825559508200,11.94150830078125,-10.031814575195312,-1.114593505859375,-2.64947509765625
1663861825569395700,11.951395751953125,-10.00787353515625,-1.102630615234375,-2.6590576171875
1663861825579253000,11.9612529296875,-10.012664794921875,-1.1169891357421875,-2.6518707275390625
1663861825589140700,11.971140625,-10.000686645507812,-1.124176025390625,-2.663848876953125
1663861825599028500,11.981028564453124,-10.043792724609375,-1.119384765625,-2.654266357421875
1663861825608916200,11.990916259765624,-10.012664794921875,-1.1121978759765625,-2.64947509765625
1663861825618803700,12.0008037109375,-9.983932495117188,-1.114593505859375,-2.63751220703125
1663861825628691500,12.01069140625,-10.0174560546875,-1.12896728515625,-2.620758056640625
1663861825638579200,12.0205791015625,-10.005477905273438,-1.1121978759765625,-2.642303466796875
1663861825648436500,12.0304365234375,-10.000686645507812,-1.1217803955078125,-2.6303253173828125
1663861825658293500,12.04029345703125,-10.010269165039062,-1.12896728515625,-2.632720947265625
1663861825668181200,12.05018115234375,-10.027023315429688,-1.12896728515625,-2.6566619873046875
1663861825678069000,12.060069091796874,-10.010269165039062,-1.1217803955078125,-2.6446990966796875
1663861825687956700,12.069956787109374,-10.00787353515625,-1.1313629150390625,-2.6255340576171875
1663861825697844200,12.07984423828125,-9.988723754882812,-1.136138916015625,-2.632720947265625
1663861825707701500,12.089701416015625,-9.979141235351562,-1.1169891357421875,-2.64947509765625
1663861825717589200,12.09958935546875,-10.003082275390625,-1.1169891357421875,-2.6446990966796875
1663861825727477000,12.10947705078125,-10.00787353515625,-1.114593505859375,-2.6518707275390625
1663861825737334000,12.119333984375,-10.015060424804688,-1.1169891357421875,-2.6351165771484375
1663861825747252200,12.129252197265625,-10.0174560546875,-1.1217803955078125,-2.642303466796875
1663861825757109500,12.139109619140624,-10.00787353515625,-1.1217803955078125,-2.63751220703125
1663861825767027700,12.14902783203125,-10.00787353515625,-1.124176025390625,-2.63751220703125
1663861825776915500,12.15891552734375,-10.036605834960938,-1.107421875,-2.6351165771484375
1663861825786803000,12.168802978515625,-10.003082275390625,-1.093048095703125,-2.6183624267578125
1663861825796690700,12.178690673828125,-10.019851684570312,-1.124176025390625,-2.642303466796875
1663861825806548000,12.1885478515625,-10.0174560546875,-1.1313629150390625,-2.642303466796875
1663861825816435700,12.198435791015624,-10.03900146484375,-1.133758544921875,-2.6255340576171875
1663861825826323200,12.2083232421875,-10.07012939453125,-1.1098175048828125,-2.6135711669921875
1663861825836211000,12.2182109375,-10.03900146484375,-1.119384765625,-2.6255340576171875
1663861825846098700,12.2280986328125,-10.022247314453125,-1.1313629150390625,-2.6183624267578125
1663861825855956000,12.2379560546875,-9.991119384765625,-1.133758544921875,-2.6470794677734375
1663861825865843700,12.24784375,-9.983932495117188,-1.136138916015625,-2.6614532470703125
1663861825875731200,12.257731201171875,-9.988723754882812,-1.1098175048828125,-2.6135711669921875
1663861825885619000,12.267618896484375,-10.0294189453125,-1.1265716552734375,-2.601593017578125
1663861825895506700,12.277506591796875,-10.043792724609375,-1.124176025390625,-2.63751220703125
1663861825905364000,12.287364013671874,-10.03900146484375,-1.1265716552734375,-2.6399078369140625
1663861825915251500,12.29725146484375,-10.012664794921875,-1.1169891357421875,-2.6303253173828125
1663861825925139200,12.30713916015625,-9.981536865234375,-1.119384765625,-2.6279296875
1663861825935027000,12.31702685546875,-9.9432373046875,-1.1433258056640625,-2.6087799072265625
1663861825944914700,12.326914794921874,-9.962387084960938,-1.1433258056640625,-2.623138427734375
1663861825954802400,12.336802490234374,-9.971969604492188,-1.1313629150390625,-2.6255340576171875
1663861825964659500,12.346659423828125,-9.988723754882812,-1.1385345458984375,-2.632720947265625
1663861825974547200,12.356547119140625,-10.005477905273438,-1.124176025390625,-2.6351165771484375
1663861825984435000,12.36643505859375,-9.991119384765625,-1.124176025390625,-2.6446990966796875
1663861825994322700,12.37632275390625,-9.99591064453125,-1.1217803955078125,-2.6518707275390625
1663861826004210200,12.386210205078125,-10.00787353515625,-1.114593505859375,-2.6518707275390625
1663861826014098000,12.396097900390625,-10.022247314453125,-1.1217803955078125,-2.642303466796875
1663861826023985700,12.405985595703125,-9.998291015625,-1.124176025390625,-2.642303466796875
1663861826033873400,12.415873291015625,-9.998291015625,-1.1169891357421875,-2.654266357421875
1663861826043761200,12.42576123046875,-10.010269165039062,-1.119384765625,-2.6446990966796875
1663861826053618200,12.4356181640625,-9.998291015625,-1.14093017578125,-2.6614532470703125
1663861826063506000,12.445505859375,-9.988723754882812,-1.124176025390625,-2.642303466796875
1663861826073393700,12.4553935546875,-9.99591064453125,-1.114593505859375,-2.6303253173828125
1663861826083281400,12.465281494140624,-10.003082275390625,-1.119384765625,-2.6303253173828125
1663861826093169200,12.475169189453124,-10.003082275390625,-1.1313629150390625,-2.6351165771484375
1663861826103056600,12.485056640625,-9.986328125,-1.1121978759765625,-2.6399078369140625
1663861826112914000,12.494913818359375,-9.99591064453125,-1.1098175048828125,-2.642303466796875
1663861826122801700,12.5048017578125,-10.000686645507812,-1.1505126953125,-2.6279296875
1663861826132689400,12.514689453125,-10.012664794921875,-1.1481170654296875,-2.63751220703125
1663861826142577000,12.524576904296875,-10.031814575195312,-1.107421875,-2.63751220703125
1663861826152434200,12.53443408203125,-10.005477905273438,-1.1217803955078125,-2.6303253173828125
1663861826162322000,12.544322021484374,-9.979141235351562,-1.124176025390625,-2.6183624267578125
1663861826172179000,12.554178955078125,-9.983932495117188,-1.1169891357421875,-2.6255340576171875
1663861826182066700,12.564066650390625,-10.000686645507812,-1.119384765625,-2.6135711669921875
1663861826191985000,12.57398486328125,-10.022247314453125,-1.136138916015625,-2.623138427734375
1663861826201842200,12.58384228515625,-10.027023315429688,-1.12896728515625,-2.632720947265625
1663861826211730000,12.59372998046875,-10.022247314453125,-1.136138916015625,-2.6351165771484375
1663861826221617400,12.603617431640625,-10.027023315429688,-1.133758544921875,-2.623138427734375
1663861826231505200,12.613505126953125,-10.0174560546875,-1.1313629150390625,-2.6183624267578125
1663861826241393000,12.623392822265625,-10.012664794921875,-1.114593505859375,-2.6183624267578125
1663861826251250200,12.633250244140624,-10.000686645507812,-1.1313629150390625,-2.63751220703125
1663861826261168400,12.64316845703125,-10.012664794921875,-1.1385345458984375,-2.6303253173828125
1663861826271056000,12.653055908203125,-9.988723754882812,-1.124176025390625,-2.642303466796875
1663861826280943600,12.662943603515625,-10.003082275390625,-1.1385345458984375,-2.642303466796875
1663861826290831400,12.672831298828125,-10.0174560546875,-1.124176025390625,-2.63751220703125
1663861826300719000,12.682718994140625,-10.010269165039062,-1.1217803955078125,-2.632720947265625
1663861826310606800,12.69260693359375,-10.00787353515625,-1.136138916015625,-2.6279296875
1663861826320494600,12.70249462890625,-10.024627685546875,-1.136138916015625,-2.642303466796875
1663861826330351600,12.7123515625,-10.031814575195312,-1.1433258056640625,-2.611175537109375
1663861826340209000,12.722208984375,-10.019851684570312,-1.136138916015625,-2.6135711669921875
1663861826350066000,12.73206591796875,-9.991119384765625,-1.1217803955078125,-2.6446990966796875
1663861826359984000,12.741984130859375,-9.962387084960938,-1.1169891357421875,-2.6183624267578125
1663861826369841400,12.75184130859375,-10.012664794921875,-1.114593505859375,-2.6255340576171875
1663861826379729200,12.761729248046874,-10.022247314453125,-1.114593505859375,-2.632720947265625
1663861826389647400,12.7716474609375,-10.005477905273438,-1.1385345458984375,-2.6135711669921875
1663861826399504400,12.78150439453125,-10.000686645507812,-1.133758544921875,-2.5991973876953125
1663861826409392000,12.79139208984375,-10.010269165039062,-1.1217803955078125,-2.6303253173828125
1663861826419280000,12.80127978515625,-10.00787353515625,-1.107421875,-2.611175537109375
1663861826429167600,12.811167724609374,-9.998291015625,-1.1121978759765625,-2.642303466796875
1663861826439055400,12.821055419921874,-9.998291015625,-1.119384765625,-2.6399078369140625
1663861826448912400,12.830912353515625,-10.000686645507812,-1.124176025390625,-2.6518707275390625
1663861826458800000,12.840800048828125,-10.003082275390625,-1.114593505859375,-2.6566619873046875
