time,seconds_elapsed,z,y,x
1663861813871202800,0.253202880859375,9.50351619720459,2.3174068927764893,-0.6951084136962891
1663861813881029600,0.263029541015625,9.554134368896484,2.006190061569214,-0.9295757412910461
1663861813890917000,0.272917236328125,9.561867713928223,1.856013536453247,-1.1385537385940552
1663861813900774400,0.2827744140625,9.535018920898438,1.849457859992981,-1.3540008068084717
1663861813910631700,0.292631591796875,9.505627632141113,1.9157042503356934,-1.4640684127807617
1663861813920488700,0.30248876953125,9.508641242980957,1.9808229207992554,-1.3536815643310547
1663861813930407000,0.312406982421875,9.522078514099121,2.054905414581299,-1.1303856372833252
1663861813940264200,0.32226416015625,9.534608840942383,2.1072988510131836,-0.9060426354408264
1663861813950182400,0.332182373046875,9.554728507995605,2.091981887817383,-0.7079277634620667
1663861813960070100,0.342070068359375,9.577245712280273,2.0345141887664795,-0.5545338988304138
1663861813969957600,0.35195751953125,9.594722747802734,1.9832427501678467,-0.42240825295448303
1663861813979845400,0.361845458984375,9.597315788269043,1.995430588722229,-0.2831401824951172
1663861813989702700,0.37170263671875,9.584210395812988,2.069025754928589,-0.18009530007839203
1663861813999559700,0.3815595703125,9.568365097045898,2.1390693187713623,-0.2029152661561966
1663861814009478000,0.391477783203125,9.561741828918457,2.1472442150115967,-0.3644242286682129
1663861814019365600,0.40136572265625,9.571357727050781,2.0823349952697754,-0.4726181924343109
1663861814029253400,0.41125341796875,9.58926773071289,2.003563642501831,-0.4495164752006531
1663861814039141000,0.42114111328125,9.597612380981445,1.9819445610046387,-0.3579438626766205
1663861814049028900,0.43102880859375,9.585503578186035,2.0579583644866943,-0.23088395595550537
1663861814058916600,0.44091650390625,9.551905632019043,2.2198545932769775,-0.060963843017816544
1663861814068804000,0.45080419921875,9.51013469696045,2.389953851699829,0.12586523592472076
1663861814078691800,0.46069189453125,9.480080604553223,2.495914936065674,0.2624186873435974
1663861814088549000,0.470549072265625,9.472466468811035,2.5160982608795166,0.3347134292125702
1663861814098436900,0.480436767578125,9.48128604888916,2.4797887802124023,0.35532134771347046
1663861814108324400,0.490324462890625,9.489974975585938,2.4381744861602783,0.4075266420841217
1663861814118212000,0.500212158203125,9.483487129211426,2.4416396617889404,0.5217775106430054
1663861814128099800,0.510099853515625,9.461751937866211,2.490903615951538,0.6640947461128235
1663861814137987600,0.519987548828125,9.434186935424805,2.560499668121338,0.781248152256012
1663861814147844600,0.5298447265625,9.415221214294434,2.6035399436950684,0.8634716868400574
1663861814157732400,0.539732421875,9.414066314697266,2.5984208583831787,0.8910446763038635
1663861814167620000,0.5496201171875,9.428285598754883,2.5584256649017334,0.8557334542274475
1663861814177507800,0.5595078125,9.446710586547852,2.5026187896728516,0.8166635036468506
1663861814187395600,0.5693955078125,9.45702075958252,2.4641332626342773,0.814371645450592
1663861814197283000,0.579282958984375,9.45881462097168,2.4510915279388428,0.8326863050460815
1663861814207140400,0.589140380859375,9.457934379577637,2.446030616760254,0.8572127819061279
1663861814217028000,0.599028076171875,9.461555480957031,2.432445764541626,0.8559050559997559
1663861814226885000,0.608885009765625,9.469901084899902,2.41329026222229,0.8169278502464294
1663861814236772900,0.61877294921875,9.482158660888672,2.382129669189453,0.7645310163497925
1663861814246630100,0.628630126953125,9.49693775177002,2.338163137435913,0.7152289152145386
1663861814256548400,0.63854833984375,9.50843620300293,2.302640438079834,0.6766743063926697
1663861814266405400,0.6484052734375,9.514287948608398,2.283345937728882,0.6595606207847595
1663861814276293000,0.658293212890625,9.517221450805664,2.266263484954834,0.6759724020957947
1663861814286180900,0.668180908203125,9.513252258300781,2.2657687664031982,0.7312378287315369
1663861814296068600,0.678068603515625,9.500866889953613,2.2888269424438477,0.8155837655067444
1663861814305956400,0.687956298828125,9.486689567565918,2.3134658336639404,0.9060773253440857
1663861814315844000,0.697843994140625,9.476192474365234,2.3240175247192383,0.9854389429092407
1663861814325731600,0.707731689453125,9.47037124633789,2.322415590286255,1.0434763431549072
1663861814335619300,0.717619384765625,9.467994689941406,2.311190605163574,1.08896803855896
1663861814345507000,0.727507080078125,9.467752456665039,2.2897579669952393,1.135373592376709
1663861814355394800,0.737394775390625,9.46202278137207,2.277658700942993,1.205315351486206
1663861814365282600,0.747282470703125,9.442720413208008,2.2919423580169678,1.3237890005111694
1663861814375170000,0.757170166015625,9.411687850952148,2.3282148838043213,1.4730744361877441
1663861814385057800,0.767057861328125,9.374710083007812,2.378870725631714,1.6205476522445679
1663861814394915000,0.7769150390625,9.335240364074707,2.4337732791900635,1.7607990503311157
1663861814404802800,0.786802734375,9.2949857711792,2.4820992946624756,1.9007402658462524
1663861814414690300,0.796690185546875,9.251921653747559,2.5062203407287598,2.0715177059173584
1663861814424578000,0.806578125,9.200515747070312,2.5046634674072266,2.290756940841675
1663861814434465800,0.8164658203125,9.134044647216797,2.494121789932251,2.553230047225952
1663861814444324600,0.82632470703125,9.047351837158203,2.488976001739502,2.849702835083008
1663861814454212400,0.83621240234375,8.932268142700195,2.4975876808166504,3.1854403018951416
1663861814464100000,0.84610009765625,8.784944534301758,2.5195209980010986,3.556286334991455
1663861814473987800,0.85598779296875,8.597505569458008,2.5543923377990723,3.965900421142578
1663861814483875600,0.86587548828125,8.35359001159668,2.6040751934051514,4.427947044372559
1663861814493763000,0.87576318359375,8.046405792236328,2.6651878356933594,4.931787490844727
1663861814503650800,0.88565087890625,7.702543258666992,2.7161078453063965,5.428073406219482
1663861814513538600,0.89553857421875,7.378176689147949,2.7202649116516113,5.859441757202148
1663861814523395800,0.905395751953125,7.117544174194336,2.6505162715911865,6.2036848068237305
1663861814533283600,0.91528369140625,6.9121599197387695,2.5071768760681152,6.488951683044434
1663861814543171000,0.925171142578125,6.725769519805908,2.283734083175659,6.7615814208984375
1663861814553058800,0.935058837890625,6.52781867980957,1.9642866849899292,7.04979133605957
1663861814562946600,0.944946533203125,6.292141437530518,1.5504745244979858,7.360392093658447
1663861814572834300,0.954834228515625,6.0085344314575195,1.0728063583374023,7.675741195678711
1663861814582691300,0.96469140625,5.698222637176514,0.5604016780853271,7.9615702629089355
1663861814592579000,0.9745791015625,5.3756232261657715,0.028688710182905197,8.20196533203125
1663861814602466800,0.984466796875,5.056035995483398,-0.5174881815910339,8.386839866638184
1663861814612354600,0.9943544921875,4.73635721206665,-1.0957775115966797,8.516840934753418
1663861814622242300,1.0042421875,4.398596286773682,-1.695439100265503,8.599315643310547
1663861814632129800,1.0141298828125,4.064220905303955,-2.254195213317871,8.635456085205078
1663861814641987000,1.023987060546875,3.779381036758423,-2.721273183822632,8.630256652832031
1663861814651874800,1.033874755859375,3.563554048538208,-3.107665777206421,8.591501235961914
1663861814661762600,1.043762451171875,3.399801731109619,-3.4457197189331055,8.528701782226562
1663861814671650000,1.053650146484375,3.2544896602630615,-3.7659053802490234,8.449652671813965
1663861814681537800,1.063537841796875,3.1072845458984375,-4.077800750732422,8.359827041625977
1663861814691425500,1.073425537109375,2.9715847969055176,-4.357914924621582,8.267324447631836
1663861814701313300,1.083313232421875,2.867743968963623,-4.58444881439209,8.181031227111816
1663861814711170300,1.09317041015625,2.7848739624023438,-4.752551555633545,8.113451957702637
1663861814721058000,1.10305810546875,2.711667060852051,-4.86528205871582,8.071325302124023
1663861814730915300,1.112915283203125,2.660916328430176,-4.928698539733887,8.049710273742676
1663861814740803000,1.122802978515625,2.644134998321533,-4.9592604637146,8.036458969116211
1663861814750690600,1.132690673828125,2.6495413780212402,-4.9707350730896,8.02758502960205
1663861814760578300,1.142578369140625,2.656677007675171,-4.960305690765381,8.031676292419434
1663861814770466000,1.152466064453125,2.657334089279175,-4.911154270172119,8.06160831451416
1663861814780353800,1.162353759765625,2.644322633743286,-4.825237274169922,8.117575645446777
1663861814790211000,1.172211181640625,2.616990566253662,-4.714808464050293,8.190990447998047
1663861814800098600,1.1820986328125,2.586944580078125,-4.590853214263916,8.270561218261719
1663861814809986300,1.191986328125,2.553422212600708,-4.467270851135254,8.348287582397461
1663861814819874000,1.2018740234375,2.5037033557891846,-4.358473777770996,8.420544624328613
1663861814829761800,1.21176171875,2.4341471195220947,-4.271394729614258,8.485309600830078
1663861814839649500,1.2216494140625,2.329089403152466,-4.194623947143555,8.552827835083008
1663861814849537000,1.231537109375,2.11089825630188,-4.123808860778809,8.643420219421387
1663861814859424800,1.2414248046875,1.873894214630127,-4.092474460601807,8.712666511535645
1663861814869312500,1.2513125,1.7011277675628662,-4.107546329498291,8.740972518920898
1663861814879200300,1.2612001953125,1.5865223407745361,-4.142270088195801,8.746138572692871
1663861814889057300,1.271057373046875,1.5067304372787476,-4.181384086608887,8.741634368896484
1663861814898945000,1.280945068359375,1.4471222162246704,-4.216606140136719,8.734785079956055
1663861814908832800,1.290832763671875,1.3384631872177124,-4.239489555358887,8.7410306930542
1663861814918720500,1.300720458984375,1.128551721572876,-4.279932498931885,8.750938415527344
1663861814928608300,1.310608154296875,0.958299994468689,-4.405872821807861,8.708635330200195
1663861814938495700,1.320495849609375,0.9265034794807434,-4.627862453460693,8.596212387084961
1663861814948353000,1.33035302734375,1.0519022941589355,-4.804010391235352,8.484418869018555
1663861814958240800,1.34024072265625,1.1733494997024536,-4.892056941986084,8.417922973632812
1663861814968128500,1.35012841796875,1.1967284679412842,-4.883874893188477,8.419382095336914
1663861814978016000,1.36001611328125,1.0597323179244995,-4.828854084014893,8.469326972961426
1663861814987903700,1.36990380859375,0.8433871269226074,-4.790482044219971,8.515301704406738
1663861814997791500,1.37979150390625,0.7186049818992615,-4.762864589691162,8.542196273803711
1663861815007679200,1.38967919921875,0.6746175289154053,-4.727578639984131,8.565352439880371
1663861815017536500,1.39953662109375,0.6530129909515381,-4.696715354919434,8.583986282348633
1663861815027424000,1.409424072265625,0.657618522644043,-4.701338291168213,8.581103324890137
1663861815037311700,1.419311767578125,0.6881620287895203,-4.771315574645996,8.539986610412598
1663861815047199500,1.429199462890625,0.7573937177658081,-4.912802696228027,8.45346736907959
1663861815057056800,1.439056884765625,0.8363016843795776,-5.083395957946777,8.344463348388672
1663861815066913800,1.448913818359375,0.811833381652832,-5.263201713562012,8.234684944152832
1663861815076801500,1.458801513671875,0.6477667093276978,-5.476034164428711,8.109490394592285
1663861815086689300,1.468689208984375,0.41896769404411316,-5.707419395446777,7.963680744171143
1663861815096546300,1.47854638671875,0.1438966989517212,-5.927841663360596,7.810913562774658
1663861815106434000,1.48843408203125,-0.17272566258907318,-6.152113437652588,7.634923458099365
1663861815116352300,1.498352294921875,-0.43257737159729004,-6.3871941566467285,7.42879581451416
1663861815126209500,1.50820947265625,-0.4667196273803711,-6.6008405685424805,7.237503528594971
1663861815136097300,1.51809716796875,-0.3294346034526825,-6.7779622077941895,7.079624176025391
1663861815145984800,1.52798486328125,-0.22406738996505737,-6.952617168426514,6.912402153015137
1663861815155872500,1.53787255859375,-0.22169987857341766,-7.15578031539917,6.701942443847656
1663861815165760300,1.54776025390625,-0.3134988844394684,-7.330085754394531,6.507069110870361
1663861815175648000,1.55764794921875,-0.3951230049133301,-7.46814489364624,6.343585968017578
1663861815185535700,1.56753564453125,-0.38082993030548096,-7.5788044929504395,6.211849689483643
1663861815195423200,1.57742333984375,-0.36469945311546326,-7.661036491394043,6.1111297607421875
1663861815205311000,1.58731103515625,-0.4032951295375824,-7.730122089385986,6.021042346954346
1663861815215198700,1.59719873046875,-0.40321722626686096,-7.800387859344482,5.92973518371582
1663861815225086500,1.60708642578125,-0.3752113878726959,-7.859827518463135,5.852581977844238
1663861815234974200,1.61697412109375,-0.3605521023273468,-7.895883560180664,5.804775714874268
1663861815244862000,1.626862060546875,-0.363386869430542,-7.909506797790527,5.786020755767822
1663861815254749400,1.63674951171875,-0.3759837746620178,-7.890874862670898,5.810603618621826
1663861815264606700,1.646606689453125,-0.4216269254684448,-7.862167835235596,5.84627628326416
1663861815274494500,1.656494384765625,-0.47497254610061646,-7.854227542877197,5.852853775024414
1663861815284382200,1.66638232421875,-0.5020550489425659,-7.86511754989624,5.835944652557373
1663861815294269700,1.676269775390625,-0.5114040374755859,-7.882030963897705,5.8122663497924805
1663861815304157400,1.686157470703125,-0.5140256285667419,-7.905038356781006,5.780704021453857
1663861815314045200,1.696045166015625,-0.5234403014183044,-7.9394917488098145,5.732439994812012
1663861815323902500,1.70590234375,-0.5469735264778137,-7.980349540710449,5.673201560974121
1663861815333790000,1.7157900390625,-0.5628261566162109,-8.02380657196045,5.610004425048828
1663861815343677700,1.725677734375,-0.5651057362556458,-8.063779830932617,5.552161693572998
1663861815353565400,1.7355654296875,-0.5666357278823853,-8.096161842346191,5.504678249359131
1663861815363453200,1.745453125,-0.5739086270332336,-8.13016128540039,5.453577518463135
1663861815373341000,1.7553408203125,-0.616936981678009,-8.185806274414062,5.364917755126953
1663861815383198000,1.765197998046875,-0.6963152885437012,-8.270995140075684,5.222658634185791
1663861815393085700,1.775085693359375,-0.8230951428413391,-8.378313064575195,5.029590129852295
1663861815402973400,1.784973388671875,-1.0350910425186157,-8.497626304626465,4.784278392791748
1663861815412861200,1.794861083984375,-1.2383102178573608,-8.611138343811035,4.526064872741699
1663861815422748700,1.804748779296875,-1.3589328527450562,-8.715845108032227,4.284592628479004
1663861815432606000,1.81460595703125,-1.427156925201416,-8.80356502532959,4.078094482421875
1663861815442493700,1.82449365234375,-1.4503058195114136,-8.887932777404785,3.882223606109619
1663861815452381400,1.83438134765625,-1.4305630922317505,-8.975740432739258,3.682384729385376
1663861815462269000,1.84426904296875,-1.3826043605804443,-9.067544937133789,3.4696431159973145
1663861815472156700,1.85415673828125,-1.3072863817214966,-9.173428535461426,3.21085786819458
1663861815482014000,1.864013916015625,-1.2034939527511597,-9.288919448852539,2.9048168659210205
1663861815491901700,1.873901611328125,-1.0536830425262451,-9.402068138122559,2.580939769744873
1663861815501789400,1.88378955078125,-0.8636818528175354,-9.505416870117188,2.252000093460083
1663861815511677000,1.893677001953125,-0.6930468678474426,-9.589553833007812,1.9314550161361694
1663861815521564700,1.903564697265625,-0.6158719062805176,-9.651371002197266,1.625458002090454
1663861815531452400,1.913452392578125,-0.5847950577735901,-9.703879356384277,1.289625883102417
1663861815541340200,1.923340087890625,-0.5250349640846252,-9.74757194519043,0.9378451108932495
1663861815551228000,1.933227783203125,-0.4280252158641815,-9.776856422424316,0.6326610445976257
1663861815561115400,1.943115478515625,-0.29910361766815186,-9.794737815856934,0.3795132339000702
1663861815570972700,1.95297265625,-0.1774206906557083,-9.8032865524292,0.1856931895017624
1663861815580860400,1.9628603515625,-0.0344977006316185,-9.806324005126953,0.07223396748304367
1663861815590748200,1.972748046875,0.13818682730197906,-9.805643081665039,0.02574465237557888
1663861815600635600,1.9826357421875,0.28575190901756287,-9.802484512329102,-0.0047599198296666145
1663861815610523400,1.9925234375,0.3872072994709015,-9.798896789550781,-0.04572150856256485
1663861815620411100,2.0024111328125,0.4486534893512726,-9.79590129852295,-0.09689371287822723
1663861815630268400,2.012268310546875,0.48185649514198303,-9.793680191040039,-0.14841389656066895
1663861815640156000,2.022156005859375,0.4959004819393158,-9.792259216308594,-0.1900634765625
1663861815650043600,2.032043701171875,0.4923971891403198,-9.791801452636719,-0.2203676998615265
1663861815659931400,2.041931396484375,0.4674111306667328,-9.792309761047363,-0.2501400411128998
1663861815669819100,2.051819091796875,0.4172622263431549,-9.793534278869629,-0.2880057692527771
1663861815679707000,2.061706787109375,0.34770840406417847,-9.794737815856934,-0.33554503321647644
1663861815689594400,2.071594482421875,0.2608788013458252,-9.795372009277344,-0.39118191599845886
1663861815699451600,2.08145166015625,0.15939779579639435,-9.795005798339844,-0.45037543773651123
1663861815709339400,2.09133935546875,0.04376785084605217,-9.79333782196045,-0.5089306235313416
1663861815719227100,2.10122705078125,-0.0872630774974823,-9.789876937866211,-0.5666264891624451
1663861815729115000,2.111114990234375,-0.2348053902387619,-9.784056663513184,-0.622480034828186
1663861815739002400,2.12100244140625,-0.4014556109905243,-9.774887084960938,-0.6788293123245239
1663861815748890000,2.13089013671875,-0.5927071571350098,-9.761691093444824,-0.7269648313522339
1663861815758747400,2.140747314453125,-0.8035942316055298,-9.745644569396973,-0.739611029624939
1663861815768635100,2.15063525390625,-1.0155962705612183,-9.727431297302246,-0.7183576226234436
1663861815778522600,2.160522705078125,-1.2084481716156006,-9.708654403686523,-0.6723607778549194
1663861815788380000,2.1703798828125,-1.3677197694778442,-9.691362380981445,-0.6141802668571472
1663861815798237200,2.1802373046875,-1.492582082748413,-9.674104690551758,-0.5952218174934387
1663861815808155400,2.1901552734375,-1.5707132816314697,-9.656558990478516,-0.6738716959953308
1663861815818043000,2.20004296875,-1.6373640298843384,-9.636838912963867,-0.7878883481025696
1663861815827930600,2.2099306640625,-1.7251490354537964,-9.614322662353516,-0.8712281584739685
1663861815837788000,2.219787841796875,-1.8255833387374878,-9.590343475341797,-0.9289523363113403
1663861815847675600,2.229675537109375,-1.9264143705368042,-9.564338684082031,-0.9913391470909119
1663861815857563100,2.239563232421875,-2.0321462154388428,-9.533312797546387,-1.0755054950714111
1663861815867451000,2.249450927734375,-2.1415464878082275,-9.496957778930664,-1.1798118352890015
1663861815877338600,2.259338623046875,-2.2461860179901123,-9.458468437194824,-1.2893447875976562
1663861815887226400,2.269226318359375,-2.3384110927581787,-9.421745300292969,-1.3903039693832397
1663861815897114000,2.279114013671875,-2.4139809608459473,-9.388594627380371,-1.48235285282135
1663861815907001600,2.289001708984375,-2.485304594039917,-9.356627464294434,-1.5643486976623535
1663861815916889300,2.298889404296875,-2.56299090385437,-9.324100494384766,-1.6317498683929443
1663861815926777000,2.308777099609375,-2.6485536098480225,-9.289403915405273,-1.6919054985046387
1663861815936664800,2.318664794921875,-2.7441461086273193,-9.251358985900879,-1.7471163272857666
1663861815946522000,2.328522216796875,-2.8487234115600586,-9.209207534790039,-1.8015704154968262
1663861815956409600,2.33840966796875,-2.959456205368042,-9.163222312927246,-1.8567066192626953
1663861815966297300,2.34829736328125,-3.0713107585906982,-9.115155220031738,-1.910863995552063
1663861815976185000,2.35818505859375,-3.178490161895752,-9.06634521484375,-1.966967225074768
1663861815986042400,2.36804248046875,-3.286123037338257,-9.016501426696777,-2.018537998199463
1663861815995929900,2.377929931640625,-3.3883607387542725,-8.96924114227295,-2.059643030166626
1663861816005787100,2.387787109375,-3.481553554534912,-8.928689956665039,-2.0803041458129883
1663861816015675000,2.3976748046875,-3.565446615219116,-8.898784637451172,-2.0662994384765625
1663861816025562600,2.407562744140625,-3.63919734954834,-8.880949020385742,-2.013798236846924
1663861816035450000,2.4174501953125,-3.7030489444732666,-8.87346076965332,-1.928601861000061
1663861816045307400,2.427307373046875,-3.765693426132202,-8.870580673217773,-1.8173437118530273
1663861816055225600,2.4372255859375,-3.8354437351226807,-8.865559577941895,-1.691626787185669
1663861816065113300,2.44711328125,-3.9167404174804688,-8.85108757019043,-1.5772712230682373
1663861816074970400,2.456970458984375,-4.004003524780273,-8.825712203979492,-1.4983803033828735
1663861816084858000,2.466858154296875,-4.094400405883789,-8.79016399383545,-1.4626342058181763
1663861816094745900,2.476745849609375,-4.200534820556641,-8.741046905517578,-1.4560209512710571
1663861816104633600,2.486633544921875,-4.32196569442749,-8.67854118347168,-1.4744247198104858
1663861816114521300,2.496521240234375,-4.4603376388549805,-8.602669715881348,-1.5066040754318237
1663861816124408800,2.506408935546875,-4.608249664306641,-8.519103050231934,-1.5360039472579956
1663861816134296600,2.516296630859375,-4.750552177429199,-8.432334899902344,-1.580629587173462
1663861816144184300,2.526184326171875,-4.886801242828369,-8.339510917663574,-1.6559350490570068
1663861816154072000,2.536072021484375,-5.018299102783203,-8.240645408630371,-1.7546610832214355
1663861816163959800,2.545959716796875,-5.153621196746826,-8.13408088684082,-1.8566900491714478
1663861816173816800,2.55581689453125,-5.298189163208008,-8.020489692687988,-1.9419894218444824
1663861816183674000,2.565674072265625,-5.453742980957031,-7.899563312530518,-2.0059831142425537
1663861816193561900,2.575561767578125,-5.618679046630859,-7.76991081237793,-2.0565292835235596
1663861816203449600,2.58544970703125,-5.786999702453613,-7.632196426391602,-2.1048994064331055
1663861816213337000,2.595337158203125,-5.9527153968811035,-7.487144947052002,-2.162921905517578
1663861816223224800,2.605224853515625,-6.110206127166748,-7.336295127868652,-2.239316463470459
1663861816233112600,2.615112548828125,-6.2635345458984375,-7.179150581359863,-2.32342791557312
1663861816243000300,2.625000244140625,-6.417369842529297,-7.015533447265625,-2.402092695236206
1663861816252888000,2.63488818359375,-6.572328090667725,-6.845426559448242,-2.472856283187866
1663861816262775600,2.644775634765625,-6.728230953216553,-6.67017936706543,-2.5317976474761963
1663861816272663300,2.654663330078125,-6.87939453125,-6.493747711181641,-2.5837082862854004
1663861816282551000,2.664551025390625,-7.024246692657471,-6.315506458282471,-2.635284423828125
1663861816292438800,2.674438720703125,-7.165135383605957,-6.133642196655273,-2.6850802898406982
1663861816302326500,2.684326416015625,-7.299435138702393,-5.949410438537598,-2.7373626232147217
1663861816312183600,2.69418359375,-7.427216529846191,-5.763373851776123,-2.7911226749420166
1663861816322071300,2.7040712890625,-7.5518798828125,-5.576228618621826,-2.8364028930664062
1663861816331959000,2.713958984375,-7.673238754272461,-5.388727188110352,-2.8728785514831543
1663861816341846800,2.7238466796875,-7.789701461791992,-5.199322700500488,-2.9082605838775635
1663861816351734300,2.733734375,-7.898334980010986,-5.008084297180176,-2.950554609298706
1663861816361622000,2.7436220703125,-7.998857498168945,-4.816320419311523,-2.9986202716827393
1663861816371509800,2.753509765625,-8.093318939208984,-4.6231842041015625,-3.0487289428710938
1663861816381367000,2.763366943359375,-8.184625625610352,-4.4285078048706055,-3.093640089035034
1663861816391254500,2.773254638671875,-8.276637077331543,-4.229367256164551,-3.1273193359375
1663861816401142300,2.783142333984375,-8.365598678588867,-4.029656887054443,-3.154203176498413
1663861816411030000,2.793030029296875,-8.448116302490234,-3.833077907562256,-3.179189443588257
1663861816420917800,2.802917724609375,-8.525273323059082,-3.6395092010498047,-3.200636386871338
1663861816430805500,2.812805419921875,-8.597405433654785,-3.4504928588867188,-3.2170023918151855
1663861816440662500,2.82266259765625,-8.664721488952637,-3.2664153575897217,-3.228548765182495
1663861816450550300,2.83255029296875,-8.725486755371094,-3.08538818359375,-3.2429394721984863
1663861816460438000,2.84243798828125,-8.783536911010742,-2.905170202255249,-3.252669334411621
1663861816470325800,2.85232568359375,-8.841316223144531,-2.722579002380371,-3.254086971282959
1663861816480213500,2.862213623046875,-8.89825439453125,-2.535250186920166,-3.250227928161621
1663861816490101000,2.87210107421875,-8.952322006225586,-2.3467202186584473,-3.243335247039795
1663861816499958300,2.881958251953125,-9.002079963684082,-2.159766674041748,-3.2354838848114014
1663861816509846000,2.891845947265625,-9.04794979095459,-1.9751636981964111,-3.2254817485809326
1663861816519733800,2.901733642578125,-9.087181091308594,-1.7986748218536377,-3.218430995941162
1663861816529621200,2.911621337890625,-9.120591163635254,-1.6316097974777222,-3.2129504680633545
1663861816539509000,2.921509033203125,-9.14834213256836,-1.4744136333465576,-3.210036516189575
1663861816549396700,2.931396728515625,-9.170675277709961,-1.3275617361068726,-3.2104012966156006
1663861816559254000,2.94125390625,-9.193033218383789,-1.1789602041244507,-3.204463005065918
1663861816569141500,2.9511416015625,-9.214007377624512,-1.0272337198257446,-3.196442127227783
1663861816579029200,2.961029296875,-9.224297523498535,-0.8984242677688599,-3.2055537700653076
1663861816588917000,2.9709169921875,-9.229620933532715,-0.7937685251235962,-3.2178285121917725
1663861816598804700,2.9808046875,-9.232916831970215,-0.706703245639801,-3.2286548614501953
1663861816608692500,2.9906923828125,-9.23531723022461,-0.6349788308143616,-3.236682176589966
1663861816618549500,3.000549560546875,-9.236920356750488,-0.5780420303344727,-3.2427713871002197
1663861816628437200,3.010437255859375,-9.237263679504395,-0.5317390561103821,-3.249706506729126
1663861816638325000,3.020324951171875,-9.235610961914062,-0.4902120530605316,-3.260913610458374
1663861816648212700,3.030212646484375,-9.231754302978516,-0.44870492815971375,-3.277768611907959
1663861816658100500,3.0401005859375,-9.225099563598633,-0.4162164330482483,-3.3007094860076904
1663861816667988000,3.049988037109375,-9.214837074279785,-0.39947745203971863,-3.331305980682373
1663861816677875700,3.059875732421875,-9.200721740722656,-0.3987026512622833,-3.3701837062835693
1663861816687733000,3.06973291015625,-9.180684089660645,-0.4200421869754791,-3.421839952468872
1663861816697620700,3.079620849609375,-9.155280113220215,-0.46744170784950256,-3.483208179473877
1663861816707508200,3.08950830078125,-9.130772590637207,-0.5320190787315369,-3.5378425121307373
1663861816717396000,3.09939599609375,-9.11186408996582,-0.6067146062850952,-3.5743842124938965
1663861816727283700,3.10928369140625,-9.100874900817871,-0.6859020590782166,-3.5880348682403564
1663861816737171500,3.11917138671875,-9.098572731018066,-0.7615637183189392,-3.5786020755767822
1663861816747028500,3.129028564453125,-9.100778579711914,-0.8298377990722656,-3.557751417160034
1663861816756916200,3.138916259765625,-9.10361099243164,-0.8952878713607788,-3.5345592498779297
1663861816766804000,3.148803955078125,-9.1062650680542,-0.9596099257469177,-3.5107648372650146
1663861816776691700,3.158691650390625,-9.109807968139648,-1.018323540687561,-3.484940528869629
1663861816786579500,3.168579345703125,-9.114354133605957,-1.0688107013702393,-3.457826852798462
1663861816796436500,3.1784365234375,-9.119295120239258,-1.1095530986785889,-3.431870460510254
1663861816806324200,3.18832421875,-9.12364387512207,-1.1415700912475586,-3.409740924835205
1663861816816212000,3.1982119140625,-9.126168251037598,-1.1665538549423218,-3.3944950103759766
1663861816826099700,3.208099609375,-9.125971794128418,-1.1857054233551025,-3.3883800506591797
1663861816835987200,3.2179873046875,-9.123893737792969,-1.1978281736373901,-3.3897151947021484
1663861816845875000,3.227875,-9.122721672058105,-1.2008816003799438,-3.3917887210845947
1663861816855762700,3.2377626953125,-9.124598503112793,-1.195135474205017,-3.3887667655944824
1663861816865620000,3.247619873046875,-9.129871368408203,-1.1831440925598145,-3.3787567615509033
1663861816875507500,3.257507568359375,-9.137808799743652,-1.1674920320510864,-3.3627071380615234
1663861816885364700,3.26736474609375,-9.146982192993164,-1.1503106355667114,-3.3436357975006104
1663861816895252500,3.27725244140625,-9.156079292297363,-1.133804440498352,-3.324317693710327
1663861816905140200,3.28714013671875,-9.164264678955078,-1.1187986135482788,-3.3068010807037354
1663861816915028000,3.297028076171875,-9.171359062194824,-1.1043018102645874,-3.2919697761535645
1663861816924885000,3.306885009765625,-9.17812442779541,-1.0884439945220947,-3.2783703804016113
1663861816934772700,3.316772705078125,-9.18549633026123,-1.0706713199615479,-3.263542652130127
1663861816944660500,3.326660400390625,-9.193763732910156,-1.0520387887954712,-3.2462775707244873
1663861816954548200,3.33654833984375,-9.202702522277832,-1.035065770149231,-3.226344108581543
1663861816964435700,3.346435791015625,-9.212278366088867,-1.0219025611877441,-3.20312762260437
1663861816974323500,3.356323486328125,-9.222318649291992,-1.0140366554260254,-3.1766271591186523
1663861816984211200,3.366211181640625,-9.232830047607422,-1.0114601850509644,-3.1467738151550293
1663861817003956000,3.3859560546875,-9.254372596740723,-1.0230826139450073,-3.0790038108825684
1663861817013843700,3.39584375,-9.264540672302246,-1.0304360389709473,-3.045795440673828
1663861817023731500,3.4057314453125,-9.275347709655762,-1.0375257730484009,-3.010289192199707
1663861817033588700,3.415588623046875,-9.287088394165039,-1.0436996221542358,-2.9717111587524414
1663861817043476200,3.425476318359375,-9.300027847290039,-1.0492358207702637,-2.928988456726074
1663861817053364000,3.435364013671875,-9.31363582611084,-1.054198145866394,-2.8836164474487305
1663861817063251700,3.445251708984375,-9.327198028564453,-1.0584874153137207,-2.8378467559814453
1663861817073139500,3.455139404296875,-9.339637756347656,-1.061927080154419,-2.79532790184021
1663861817083027200,3.465027099609375,-9.350546836853027,-1.065387487411499,-2.7572824954986572
1663861817092914700,3.474914794921875,-9.360184669494629,-1.0701918601989746,-2.7225024700164795
1663861817102772000,3.48477197265625,-9.368327140808105,-1.0768462419509888,-2.691697597503662
1663861817112659700,3.49465966796875,-9.37468147277832,-1.0853325128555298,-2.6660428047180176
1663861817122547500,3.50454736328125,-9.379616737365723,-1.0936330556869507,-2.6452128887176514
1663861817132435000,3.51443505859375,-9.384265899658203,-1.099987506866455,-2.6260159015655518
1663861817142292200,3.524292236328125,-9.38890266418457,-1.1046757698059082,-2.607410192489624
1663861817152180000,3.534179931640625,-9.39345932006836,-1.1064412593841553,-2.5901947021484375
1663861817162067700,3.544067626953125,-9.39783763885498,-1.1046669483184814,-2.575021982192993
1663861817171955500,3.55395556640625,-9.40224552154541,-1.1004583835601807,-2.560697078704834
1663861817181843000,3.563843017578125,-9.406641960144043,-1.0950829982757568,-2.5468175411224365
1663861817191730700,3.573730712890625,-9.410789489746094,-1.0889233350753784,-2.5341012477874756
1663861817201618400,3.583618408203125,-9.414791107177734,-1.0830756425857544,-2.521714210510254
1663861817211475700,3.593475830078125,-9.418477058410645,-1.077610731124878,-2.510263442993164
1663861817221363200,3.60336328125,-9.421670913696289,-1.0727165937423706,-2.5003559589385986
1663861817231251000,3.6132509765625,-9.42428207397461,-1.067880392074585,-2.4925756454467773
1663861817241138700,3.623138671875,-9.426490783691406,-1.0623167753219604,-2.486590623855591
1663861817251026400,3.6330263671875,-9.42828369140625,-1.0571693181991577,-2.481983184814453
1663861817260914200,3.6429140625,-9.42969036102295,-1.0508923530578613,-2.4793050289154053
1663861817270771200,3.652771240234375,-9.430752754211426,-1.0431625843048096,-2.4785263538360596
1663861817280689400,3.662689453125,-9.432184219360352,-1.0350208282470703,-2.476494789123535
1663861817290546700,3.672546630859375,-9.434659004211426,-1.0283451080322266,-2.469836473464966
1663861817300434400,3.682434326171875,-9.437771797180176,-1.024128794670105,-2.45967698097229
1663861817310322000,3.692322021484375,-9.44071102142334,-1.021612286567688,-2.44942045211792
1663861817320209700,3.702209716796875,-9.443584442138672,-1.019317865371704,-2.439283847808838
1663861817330097400,3.712097412109375,-9.446515083312988,-1.0173064470291138,-2.428751230239868
1663861817339985200,3.721985107421875,-9.449542999267578,-1.016395092010498,-2.4173245429992676
1663861817349873000,3.731872802734375,-9.452750205993652,-1.0167756080627441,-2.4045934677124023
1663861817359760400,3.741760498046875,-9.456048965454102,-1.0181288719177246,-2.3910069465637207
1663861817369648000,3.751648193359375,-9.459349632263184,-1.0205600261688232,-2.3768765926361084
1663861817379536000,3.761535888671875,-9.462440490722656,-1.0237979888916016,-2.363142490386963
1663861817389393200,3.77139306640625,-9.46546745300293,-1.026408076286316,-2.3498523235321045
1663861817399281000,3.781281005859375,-9.468611717224121,-1.0277891159057617,-2.3365399837493896
1663861817409168400,3.79116845703125,-9.471351623535156,-1.0281964540481567,-2.3252322673797607
1663861817419056000,3.80105615234375,-9.473214149475098,-1.0280063152313232,-2.3177168369293213
1663861817428944000,3.81094384765625,-9.474102973937988,-1.0273687839508057,-2.314363956451416
1663861817438831600,3.82083154296875,-9.474358558654785,-1.0257318019866943,-2.3140437602996826
1663861817448719400,3.83071923828125,-9.474235534667969,-1.0223636627197266,-2.3160340785980225
1663861817458606800,3.84060693359375,-9.474103927612305,-1.0170714855194092,-2.318903684616089
1663861817468494600,3.85049462890625,-9.474004745483398,-1.0111159086227417,-2.3219072818756104
1663861817478382300,3.86038232421875,-9.473856925964355,-1.0054214000701904,-2.3249828815460205
1663861817488270000,3.87027001953125,-9.473690032958984,-1.0004384517669678,-2.327810049057007
1663861817498127000,3.880127197265625,-9.473679542541504,-0.9960330724716187,-2.329742431640625
1663861817508014800,3.890014892578125,-9.473688125610352,-0.9926391243934631,-2.3311588764190674
1663861817517902600,3.899902587890625,-9.473677635192871,-0.9902276992797852,-2.3322274684906006
1663861817527790300,3.909790283203125,-9.4736909866333,-0.9891100525856018,-2.3326423168182373
1663861817537678000,3.919677978515625,-9.473621368408203,-0.9890962839126587,-2.3329312801361084
1663861817547565600,3.929565673828125,-9.473387718200684,-0.9896908402442932,-2.3336286544799805
1663861817557422800,3.9394228515625,-9.473123550415039,-0.9906653761863708,-2.3342912197113037
1663861817567310600,3.949310546875,-9.472923278808594,-0.9916492700576782,-2.3346850872039795
1663861817577198300,3.9591982421875,-9.472793579101562,-0.9924576282501221,-2.3348655700683594
1663861817587085800,3.9690859375,-9.472726821899414,-0.9929308295249939,-2.334935188293457
1663861817596943000,3.978943115234375,-9.472525596618652,-0.9933475255966187,-2.335573196411133
1663861817606830800,3.988830810546875,-9.472468376159668,-0.9934131503105164,-2.335780382156372
1663861817616718600,3.998718505859375,-9.472673416137695,-0.9935126900672913,-2.3349056243896484
1663861817626606300,4.0086064453125,-9.472829818725586,-0.9942578077316284,-2.3339531421661377
1663861817636493800,4.018493896484375,-9.472813606262207,-0.9958106875419617,-2.33335542678833
1663861817646381600,4.028381591796875,-9.472708702087402,-0.9981655478477478,-2.3327744007110596
1663861817656238800,4.03823876953125,-9.472411155700684,-1.0014046430587769,-2.332592725753784
1663861817666126600,4.048126708984375,-9.471467018127441,-1.0028576850891113,-2.3358066082000732
1663861817675983600,4.057983642578125,-9.470854759216309,-1.0028945207595825,-2.3382656574249268
1663861817685851000,4.067850830078125,-9.470953941345215,-1.0063189268112183,-2.336395263671875
1663861817695708200,4.077708251953125,-9.471024513244629,-1.0099592208862305,-2.334538459777832
1663861817705626400,4.08762646484375,-9.471108436584473,-1.0134303569793701,-2.332692861557007
1663861817715483400,4.0974833984375,-9.471063613891602,-1.0167694091796875,-2.331421136856079
1663861817725401600,4.107401611328125,-9.47017765045166,-1.0183063745498657,-2.3343446254730225
1663861817735289300,4.117289306640625,-9.469341278076172,-1.019653558731079,-2.3371481895446777
1663861817745146600,4.127146728515625,-9.468926429748535,-1.0197303295135498,-2.3387951850891113
1663861817755034400,4.137034423828125,-9.46884536743164,-1.0189945697784424,-2.339444637298584
1663861817764921900,4.146921875,-9.468778610229492,-1.018198013305664,-2.340064287185669
1663861817774809600,4.1568095703125,-9.468782424926758,-1.0175105333328247,-2.3403446674346924
1663861817784667000,4.1666669921875,-9.468925476074219,-1.0157471895217896,-2.3405332565307617
1663861817794585000,4.176585205078125,-9.46906566619873,-1.014586091041565,-2.3404693603515625
1663861817804442000,4.186442138671875,-9.469161033630371,-1.0146872997283936,-2.3400399684906006
1663861817814329900,4.196329833984375,-9.46919059753418,-1.01609468460083,-2.339306116104126
1663861817824217600,4.206217529296875,-9.469381332397461,-1.0177192687988281,-2.3378312587738037
1663861817834105300,4.216105224609375,-9.469573974609375,-1.0185669660568237,-2.336682081222534
1663861817843993000,4.2259931640625,-9.469715118408203,-1.0193846225738525,-2.335749864578247
1663861817853880600,4.235880615234375,-9.46955680847168,-1.0208265781402588,-2.335766077041626
1663861817863768300,4.245768310546875,-9.468941688537598,-1.0243321657180786,-2.3367202281951904
1663861817873656000,4.255656005859375,-9.468106269836426,-1.0291152000427246,-2.338007926940918
1663861817883543800,4.265543701171875,-9.467387199401855,-1.0313180685043335,-2.339944362640381
1663861817893431600,4.275431640625,-9.466794967651367,-1.0335179567337036,-2.3413710594177246
1663861817903319300,4.2853193359375,-9.466320991516113,-1.0359910726547241,-2.3421971797943115
1663861817913206800,4.295206787109375,-9.46587085723877,-1.038775086402893,-2.342780590057373
1663861817923094500,4.305094482421875,-9.465343475341797,-1.0417832136154175,-2.343576192855835
1663861817932951800,4.314951904296875,-9.4646635055542,-1.0449113845825195,-2.344926595687866
1663861817942839600,4.324839599609375,-9.463751792907715,-1.04779052734375,-2.3473196029663086
1663861817952727000,4.33472705078125,-9.462715148925781,-1.0504231452941895,-2.3503243923187256
1663861817962584300,4.344584228515625,-9.46076488494873,-1.05680513381958,-2.3553085327148438
1663861817972441600,4.354441650390625,-9.458996772766113,-1.0616819858551025,-2.360214948654175
1663861817982359800,4.36435986328125,-9.457300186157227,-1.0652854442596436,-2.365379571914673
1663861817992247300,4.374247314453125,-9.455660820007324,-1.0676265954971313,-2.370870351791382
1663861818002135000,4.384135009765625,-9.4539794921875,-1.0693427324295044,-2.3767969608306885
1663861818012022800,4.394022705078125,-9.452077865600586,-1.071860909461975,-2.3832178115844727
1663861818021910500,4.40391064453125,-9.450116157531738,-1.0742628574371338,-2.3899049758911133
1663861818031798300,4.41379833984375,-9.44819450378418,-1.0770684480667114,-2.396233081817627
1663861818041685800,4.423685791015625,-9.446306228637695,-1.0796661376953125,-2.402500867843628
1663861818051543000,4.43354296875,-9.444684028625488,-1.081818699836731,-2.4079034328460693
1663861818061430800,4.4434306640625,-9.443052291870117,-1.0838682651519775,-2.4133739471435547
1663861818071318500,4.453318603515625,-9.44152545928955,-1.0864983797073364,-2.4181630611419678
1663861818081206000,4.4632060546875,-9.44015884399414,-1.0893445014953613,-2.4222161769866943
1663861818091093800,4.47309375,-9.438944816589355,-1.092118501663208,-2.425694227218628
1663861818100981500,4.4829814453125,-9.437945365905762,-1.0951145887374878,-2.428231954574585
1663861818110869200,4.492869140625,-9.437247276306152,-1.097764015197754,-2.4297444820404053
1663861818120726300,4.502726318359375,-9.436661720275879,-1.1004480123519897,-2.4308066368103027
1663861818130614000,4.512614013671875,-9.436237335205078,-1.10295832157135,-2.4313127994537354
1663861818140501800,4.522501708984375,-9.435813903808594,-1.1058956384658813,-2.4316248893737793
1663861818150389500,4.532389404296875,-9.435437202453613,-1.1088981628417969,-2.431718349456787
1663861818160246800,4.542246826171875,-9.434919357299805,-1.1113877296447754,-2.4325931072235107
1663861818170134300,4.55213427734375,-9.434311866760254,-1.113396406173706,-2.434030055999756
1663861818180022000,4.56202197265625,-9.433670043945312,-1.115544080734253,-2.4355344772338867
1663861818189909800,4.57190966796875,-9.4329833984375,-1.1170839071273804,-2.4374866485595703
1663861818199797500,4.581797607421875,-9.43213939666748,-1.1186692714691162,-2.4400219917297363
1663861818209685200,4.591685302734375,-9.431173324584961,-1.1194677352905273,-2.443389654159546
1663861818219572700,4.60157275390625,-9.430051803588867,-1.120232105255127,-2.447364568710327
1663861818229460500,4.61146044921875,-9.428903579711914,-1.1217186450958252,-2.4511020183563232
1663861818239317800,4.62131787109375,-9.427814483642578,-1.1243377923965454,-2.4540903568267822
1663861818249205500,4.63120556640625,-9.427214622497559,-1.1269793510437012,-2.4551844596862793
1663861818259093000,4.641093017578125,-9.427340507507324,-1.1294407844543457,-2.4535675048828125
1663861818268980700,4.650980712890625,-9.428078651428223,-1.1309751272201538,-2.450024127960205
1663861818278868500,4.660868408203125,-9.4290132522583,-1.131171464920044,-2.4463372230529785
1663861818288756200,4.670756103515625,-9.429960250854492,-1.1306980848312378,-2.4429006576538086
1663861818298613200,4.68061328125,-9.430713653564453,-1.1297242641448975,-2.4404420852661133
1663861818308501000,4.6905009765625,-9.431414604187012,-1.1286499500274658,-2.4382271766662598
1663861818318358300,4.700358154296875,-9.432211875915527,-1.125684142112732,-2.4365127086639404
1663861818328246000,4.71024609375,-9.432827949523926,-1.1226465702056885,-2.435530185699463
1663861818338133500,4.720133544921875,-9.433425903320312,-1.1196612119674683,-2.43458890914917
1663861818348021200,4.730021240234375,-9.434231758117676,-1.1171423196792603,-2.432624578475952
1663861818357909000,4.739908935546875,-9.435134887695312,-1.1148978471755981,-2.430145263671875
1663861818367796700,4.749796630859375,-9.43606948852539,-1.1124866008758545,-2.427622079849243
1663861818377684500,4.7596845703125,-9.436786651611328,-1.1098912954330444,-2.426022529602051
1663861818387572200,4.769572265625,-9.437214851379395,-1.107661485671997,-2.4253768920898438
1663861818397429200,4.77942919921875,-9.437521934509277,-1.1057491302490234,-2.4250545501708984
1663861818407317000,4.78931689453125,-9.43773078918457,-1.10433828830719,-2.424884796142578
1663861818417204700,4.799204833984375,-9.437875747680664,-1.103401780128479,-2.4247443675994873
1663861818427092500,4.809092529296875,-9.438015937805176,-1.1028681993484497,-2.424443006515503
1663861818436980000,4.81897998046875,-9.438101768493652,-1.1026936769485474,-2.424189329147339
1663861818446837200,4.828837158203125,-9.438128471374512,-1.1029492616653442,-2.423970937728882
1663861818456725000,4.83872509765625,-9.43811321258545,-1.1032159328460693,-2.423905372619629
1663861818466582000,4.84858203125,-9.438070297241211,-1.1035915613174438,-2.4239044189453125
1663861818476469800,4.8584697265625,-9.438028335571289,-1.104066252708435,-2.4238529205322266
1663861818486327000,4.8683271484375,-9.43802547454834,-1.104479193687439,-2.4236745834350586
1663861818496245200,4.878245361328125,-9.438005447387695,-1.1050055027008057,-2.4235098361968994
1663861818506133000,4.888133056640625,-9.437932968139648,-1.1056509017944336,-2.423496961593628
1663861818516020500,4.8980205078125,-9.437719345092773,-1.106210470199585,-2.4240777492523193
1663861818525877800,4.907877685546875,-9.437446594238281,-1.1066045761108398,-2.4249560832977295
1663861818535796000,4.9177958984375,-9.437239646911621,-1.106758713722229,-2.4256930351257324
1663861818545683700,4.92768359375,-9.437211990356445,-1.1065058708190918,-2.4259133338928223
1663861818555571500,4.937571533203125,-9.437323570251465,-1.106047511100769,-2.425693988800049
1663861818565459000,4.947458984375,-9.437423706054688,-1.1056602001190186,-2.4254772663116455
1663861818575346700,4.9573466796875,-9.437467575073242,-1.1052281856536865,-2.4255003929138184
1663861818585234400,4.967234375,-9.43741226196289,-1.1048579216003418,-2.425889253616333
1663861818595091700,4.977091796875,-9.437260627746582,-1.1045185327529907,-2.426630973815918
1663861818604948700,4.98694873046875,-9.437126159667969,-1.1040844917297363,-2.4273502826690674
1663861818614836500,4.99683642578125,-9.437036514282227,-1.1036100387573242,-2.4279143810272217
1663861818624724200,5.00672412109375,-9.43697738647461,-1.102866768836975,-2.4284825325012207
1663861818634612000,5.016612060546875,-9.436973571777344,-1.1020201444625854,-2.428881883621216
1663861818644469000,5.026468994140625,-9.436856269836426,-1.1029689311981201,-2.4289088249206543
1663861818654356700,5.036356689453125,-9.436866760253906,-1.103670358657837,-2.4285473823547363
1663861818664244500,5.046244384765625,-9.436990737915039,-1.1039912700653076,-2.427922010421753
1663861818674132200,5.05613232421875,-9.437065124511719,-1.1045657396316528,-2.4273691177368164
1663861818684020000,5.06602001953125,-9.437203407287598,-1.1051225662231445,-2.4265787601470947
1663861818693907500,5.075907470703125,-9.437128067016602,-1.1060680150985718,-2.4264423847198486
1663861818703764700,5.0857646484375,-9.437028884887695,-1.1069763898849487,-2.4264109134674072
1663861818713683000,5.095682861328125,-9.436782836914062,-1.1079734563827515,-2.4269139766693115
1663861818723540200,5.105540283203125,-9.436348915100098,-1.1085505485534668,-2.428334951400757
1663861818733427700,5.115427734375,-9.435826301574707,-1.109357476234436,-2.4299986362457275
1663861818743285000,5.125284912109375,-9.435104370117188,-1.1106669902801514,-2.432204246520996
1663861818753172700,5.1351728515625,-9.434242248535156,-1.112086534500122,-2.4348981380462646
1663861818763060500,5.145060546875,-9.433344841003418,-1.113782525062561,-2.437598466873169
1663861818772978700,5.154978759765625,-9.432310104370117,-1.1156550645828247,-2.4407458305358887
1663861818782866200,5.1648662109375,-9.431282043457031,-1.1174291372299194,-2.4439046382904053
1663861818792754000,5.17475390625,-9.430220603942871,-1.1190298795700073,-2.447258949279785
1663861818802611200,5.184611083984375,-9.42911434173584,-1.120400071144104,-2.450899600982666
1663861818812499000,5.1944990234375,-9.428030967712402,-1.121659517288208,-2.454486131668091
1663861818822386400,5.204386474609375,-9.427092552185059,-1.1229801177978516,-2.45748233795166
1663861818832274200,5.214274169921875,-9.426279067993164,-1.1244473457336426,-2.4599339962005615
1663861818842162000,5.224161865234375,-9.425620079040527,-1.1259368658065796,-2.4617760181427
1663861818852049700,5.234049560546875,-9.425111770629883,-1.1269339323043823,-2.4632656574249268
1663861818861937400,5.2439375,-9.424744606018066,-1.1281119585037231,-2.464132308959961
1663861818871825200,5.2538251953125,-9.42453384399414,-1.1291592121124268,-2.4644596576690674
1663861818881712600,5.263712646484375,-9.42442798614502,-1.1296641826629639,-2.464627742767334
1663861818891600400,5.273600341796875,-9.4244384765625,-1.1301724910736084,-2.464357376098633
1663861818901488000,5.283488037109375,-9.424549102783203,-1.1309385299682617,-2.4635822772979736
1663861818911376000,5.2933759765625,-9.424757957458496,-1.1321049928665161,-2.4622511863708496
1663861818921233000,5.30323291015625,-9.424964904785156,-1.1329420804977417,-2.4610719680786133
1663861818931120600,5.31312060546875,-9.425153732299805,-1.1333763599395752,-2.4601454734802246
1663861818940978000,5.32297802734375,-9.425328254699707,-1.1336662769317627,-2.459343671798706
1663861818950865700,5.33286572265625,-9.425382614135742,-1.1336166858673096,-2.4591565132141113
1663861818960722700,5.34272265625,-9.425267219543457,-1.1333266496658325,-2.459735155105591
1663861818970641000,5.352640869140625,-9.424992561340332,-1.1332392692565918,-2.460826873779297
1663861818980528600,5.362528564453125,-9.424510955810547,-1.133637547492981,-2.4624876976013184
1663861818990416400,5.37241650390625,-9.423934936523438,-1.1343828439712524,-2.4643466472625732
1663861819000304000,5.38230419921875,-9.423190116882324,-1.1360270977020264,-2.466438055038452
1663861819010191600,5.392191650390625,-9.422599792480469,-1.1379449367523193,-2.4678099155426025
1663861819020079400,5.402079345703125,-9.422127723693848,-1.1398522853851318,-2.468729257583618
1663861819029967000,5.411967041015625,-9.421603202819824,-1.1419426202774048,-2.4697673320770264
1663861819039824400,5.421824462890625,-9.421029090881348,-1.1434162855148315,-2.471273899078369
1663861819049711900,5.4317119140625,-9.42050552368164,-1.1441503763198853,-2.472929000854492
1663861819059599600,5.441599609375,-9.420076370239258,-1.1442204713821411,-2.474533796310425
1663861819069487400,5.4514873046875,-9.419692039489746,-1.144551157951355,-2.475841522216797
1663861819079375000,5.461375,-9.41918659210205,-1.145148754119873,-2.4774882793426514
1663861819089262800,5.471262939453125,-9.418503761291504,-1.146470308303833,-2.4794726371765137
1663861819099150600,5.481150634765625,-9.417798042297363,-1.1481997966766357,-2.481350898742676
1663861819109007600,5.491007568359375,-9.417197227478027,-1.1500768661499023,-2.482762098312378
1663861819118895400,5.500895263671875,-9.416834831237793,-1.1515854597091675,-2.483438014984131
1663861819128783000,5.510783203125,-9.416840553283691,-1.1520004272460938,-2.4832217693328857
1663861819138670800,5.5206708984375,-9.41692066192627,-1.151829481124878,-2.482999324798584
1663861819148558300,5.530558349609375,-9.416837692260742,-1.152398943901062,-2.483046293258667
1663861819158446000,5.540446044921875,-9.416659355163574,-1.1531085968017578,-2.4833984375
1663861819168303400,5.550303466796875,-9.416296005249023,-1.1541779041290283,-2.4842772483825684
1663861819178191000,5.560191162109375,-9.416035652160645,-1.1556308269500732,-2.4845893383026123
1663861819188078600,5.57007861328125,-9.416027069091797,-1.1573584079742432,-2.483816146850586
1663861819197935900,5.579935791015625,-9.416502952575684,-1.158623218536377,-2.4814207553863525
1663861819207823600,5.58982373046875,-9.417329788208008,-1.159682035446167,-2.4777884483337402
1663861819217711400,5.59971142578125,-9.418526649475098,-1.1595362424850464,-2.4732983112335205
1663861819227598800,5.609598876953125,-9.419797897338867,-1.1589739322662354,-2.468721389770508
1663861819237486600,5.619486572265625,-9.420889854431152,-1.1582597494125366,-2.464881658554077
1663861819247374300,5.629374267578125,-9.421759605407715,-1.157727837562561,-2.4618093967437744
1663861819257262000,5.639261962890625,-9.422587394714355,-1.1568852663040161,-2.459033727645874
1663861819267149800,5.64914990234375,-9.423229217529297,-1.1565254926681519,-2.4567418098449707
1663861819277037300,5.659037353515625,-9.423840522766113,-1.1563267707824707,-2.4544925689697266
1663861819286925000,5.668925048828125,-9.424324989318848,-1.1563059091567993,-2.4526379108428955
1663861819296782300,5.6787822265625,-9.424530982971191,-1.1560014486312866,-2.451993227005005
1663861819306670000,5.688670166015625,-9.424503326416016,-1.1550767421722412,-2.452533721923828
1663861819316557800,5.698557861328125,-9.424452781677246,-1.1538156270980835,-2.453322410583496
1663861819326445300,5.7084453125,-9.424277305603027,-1.152431845664978,-2.454646587371826
1663861819336302600,5.718302490234375,-9.424031257629395,-1.151183843612671,-2.4561777114868164
1663861819346190300,5.7281904296875,-9.423661231994629,-1.150112271308899,-2.4580953121185303
1663861819356047400,5.73804736328125,-9.423097610473633,-1.1490432024002075,-2.4607534408569336
1663861819365935000,5.74793505859375,-9.422520637512207,-1.1483492851257324,-2.4632885456085205
1663861819375792400,5.75779248046875,-9.421934127807617,-1.1480324268341064,-2.4656777381896973
1663861819385710600,5.767710693359375,-9.42132568359375,-1.1477932929992676,-2.468113899230957
1663861819395567600,5.777567626953125,-9.420782089233398,-1.1478244066238403,-2.470174551010132
1663861819405485800,5.78748583984375,-9.420377731323242,-1.1469404697418213,-2.472125768661499
1663861819415373600,5.79737353515625,-9.420112609863281,-1.1457587480545044,-2.4736809730529785
1663861819425230800,5.80723095703125,-9.42003345489502,-1.1444591283798218,-2.4745843410491943
1663861819435088000,5.817087890625,-9.420055389404297,-1.1430083513259888,-2.475172281265259
1663861819445006000,5.827006103515625,-9.420218467712402,-1.1417994499206543,-2.4751086235046387
1663861819454893800,5.836893798828125,-9.420350074768066,-1.1404739618301392,-2.475220203399658
1663861819464781600,5.846781494140625,-9.420531272888184,-1.1391457319259644,-2.4751405715942383
1663861819474669300,5.85666943359375,-9.420663833618164,-1.138018012046814,-2.475153923034668
1663861819484526300,5.8665263671875,-9.420863151550293,-1.1370906829833984,-2.474827289581299
1663861819494414000,5.8764140625,-9.420958518981934,-1.1360633373260498,-2.4749321937561035
1663861819504301800,5.8863017578125,-9.4208402633667,-1.1351746320724487,-2.4757914543151855
1663861819514189600,5.896189453125,-9.420516014099121,-1.133913278579712,-2.47760009765625
1663861819524077300,5.906077392578125,-9.42016887664795,-1.1325981616973877,-2.4795191287994385
1663861819533964800,5.91596484375,-9.419839859008789,-1.1315144300460815,-2.4812653064727783
1663861819543822000,5.925822021484375,-9.419313430786133,-1.1307971477508545,-2.4835877418518066
1663861819553709800,5.935709716796875,-9.418577194213867,-1.1305426359176636,-2.4864959716796875
1663861819563597600,5.94559765625,-9.417925834655762,-1.129712700843811,-2.4893407821655273
1663861819573485300,5.9554853515625,-9.417391777038574,-1.1281650066375732,-2.49206280708313
1663861819583342300,5.96534228515625,-9.41672420501709,-1.126050591468811,-2.4955365657806396
1663861819593260500,5.975260498046875,-9.415751457214355,-1.123352289199829,-2.5004191398620605
1663861819603148300,5.985148193359375,-9.41469955444336,-1.119895577430725,-2.505924701690674
1663861819613036000,5.9950361328125,-9.413686752319336,-1.117296814918518,-2.5108835697174072
1663861819622923800,6.004923828125,-9.41257381439209,-1.116678237915039,-2.5153260231018066
1663861819632780800,6.01478076171875,-9.411304473876953,-1.116405963897705,-2.5201945304870605
1663861819642638000,6.02463818359375,-9.410086631774902,-1.11555016040802,-2.5251121520996094
1663861819652525800,6.03452587890625,-9.408903121948242,-1.1143953800201416,-2.5300323963165283
1663861819662444000,6.044444091796875,-9.407931327819824,-1.1121240854263306,-2.534637212753296
1663861819672331500,6.05433154296875,-9.407166481018066,-1.1094480752944946,-2.538647413253784
1663861819682219300,6.06421923828125,-9.406417846679688,-1.1069486141204834,-2.5425076484680176
1663861819692107000,6.07410693359375,-9.405791282653809,-1.1044203042984009,-2.545924663543701
1663861819701994800,6.083994873046875,-9.405094146728516,-1.1022331714630127,-2.5494461059570312
1663861819711882500,6.093882568359375,-9.404610633850098,-1.099875569343567,-2.552246570587158
1663861819721770000,6.10377001953125,-9.40428352355957,-1.097339391708374,-2.554539918899536
1663861819731627300,6.113627197265625,-9.404038429260254,-1.0948634147644043,-2.5565056800842285
1663861819741484500,6.123484619140625,-9.403618812561035,-1.092816710472107,-2.558925151824951
1663861819751372000,6.1333720703125,-9.403068542480469,-1.091037392616272,-2.5617010593414307
1663861819761259800,6.143259765625,-9.402437210083008,-1.089740514755249,-2.5645713806152344
1663861819771147500,6.1531474609375,-9.402037620544434,-1.0884047746658325,-2.5666048526763916
1663861819781004800,6.1630048828125,-9.401785850524902,-1.086829423904419,-2.5681920051574707
1663861819790892300,6.172892333984375,-9.40183162689209,-1.0843660831451416,-2.569063186645508
1663861819800780000,6.182780029296875,-9.402424812316895,-1.0815343856811523,-2.568086624145508
1663861819810667800,6.192667724609375,-9.403594970703125,-1.0787084102630615,-2.5649924278259277
1663861819820525000,6.202525146484375,-9.405229568481445,-1.075648546218872,-2.5602779388427734
1663861819830443300,6.212443359375,-9.407142639160156,-1.0722873210906982,-2.554654598236084
1663861819840331000,6.2223310546875,-9.40916633605957,-1.0689820051193237,-2.548579216003418
1663861819850218500,6.232218505859375,-9.40946102142334,-1.0663257837295532,-2.548602342605591
1663861819860106200,6.242106201171875,-9.409483909606934,-1.0636584758758545,-2.549635171890259
1663861819869994000,6.251993896484375,-9.409403800964355,-1.0610181093215942,-2.5510289669036865
1663861819879881700,6.2618818359375,-9.409409523010254,-1.0579195022583008,-2.552295446395874
1663861819889769500,6.27176953125,-9.409475326538086,-1.0546952486038208,-2.5533828735351562
1663861819899657000,6.281656982421875,-9.409629821777344,-1.0519236326217651,-2.5539581775665283
1663861819909544700,6.291544677734375,-9.409793853759766,-1.0496822595596313,-2.554277181625366
1663861819919402000,6.301402099609375,-9.40973949432373,-1.0482169389724731,-2.555079221725464
1663861819929289700,6.311289794921875,-9.40935230255127,-1.0475391149520874,-2.5567824840545654
1663861819939177200,6.32117724609375,-9.408709526062012,-1.047584891319275,-2.559129238128662
1663861819949065000,6.33106494140625,-9.408086776733398,-1.0479509830474854,-2.5612668991088867
1663861819958952700,6.34095263671875,-9.40770149230957,-1.0481314659118652,-2.5626068115234375
1663861819968840400,6.35084033203125,-9.407495498657227,-1.0478794574737549,-2.5634677410125732
1663861819978697500,6.360697509765625,-9.407307624816895,-1.047597050666809,-2.56427264213562
1663861819988585200,6.370585205078125,-9.407007217407227,-1.047615647315979,-2.565365791320801
1663861819998473000,6.380472900390625,-9.406530380249023,-1.0480550527572632,-2.56693434715271
1663861820008360700,6.390360595703125,-9.406044960021973,-1.0485836267471313,-2.5684947967529297
1663861820018248400,6.40024853515625,-9.405569076538086,-1.049471378326416,-2.5698771476745605
1663861820028136200,6.41013623046875,-9.405182838439941,-1.0503545999526978,-2.5709288120269775
1663861820037993200,6.4199931640625,-9.405111312866211,-1.0494335889816284,-2.5715644359588623
1663861820047881000,6.429880859375,-9.404979705810547,-1.0464720726013184,-2.5732550621032715
1663861820057768700,6.439768798828125,-9.403762817382812,-1.04486083984375,-2.5783498287200928
1663861820067656400,6.449656494140625,-9.400384902954102,-1.0474693775177002,-2.5895869731903076
1663861820077544000,6.4595439453125,-9.395543098449707,-1.052657961845398,-2.605008125305176
1663861820087431700,6.469431640625,-9.391217231750488,-1.056955337524414,-2.6188297271728516
1663861820097319400,6.4793193359375,-9.388166427612305,-1.057357907295227,-2.6295855045318604
1663861820107176700,6.4891767578125,-9.38566780090332,-1.0537211894989014,-2.6399457454681396
1663861820117064200,6.499064208984375,-9.382287979125977,-1.0475465059280396,-2.6543750762939453
1663861820126952000,6.508951904296875,-9.378108978271484,-1.0408990383148193,-2.671699285507202
1663861820136839700,6.518839599609375,-9.374846458435059,-1.0324496030807495,-2.6863887310028076
1663861820146727400,6.5287275390625,-9.372183799743652,-1.0219796895980835,-2.6996512413024902
1663861820156615200,6.538615234375,-9.369669914245605,-1.0102159976959229,-2.7127718925476074
1663861820166472200,6.54847216796875,-9.368045806884766,-0.996787965297699,-2.723328113555908
1663861820176360000,6.55835986328125,-9.367046356201172,-0.982571005821228,-2.731919288635254
1663861820186247700,6.56824755859375,-9.36573600769043,-0.9668970704078674,-2.7419850826263428
1663861820196135400,6.578135498046875,-9.364057540893555,-0.9486040472984314,-2.7540829181671143
1663861820206023000,6.58802294921875,-9.362605094909668,-0.9285570383071899,-2.765825033187866
1663861820215880200,6.597880126953125,-9.361738204956055,-0.907886803150177,-2.775607109069824
1663861820225768000,6.607767822265625,-9.361549377441406,-0.8871945142745972,-2.782926082611084
1663861820235655700,6.61765576171875,-9.362297058105469,-0.8674359321594238,-2.786635160446167
1663861820245543200,6.627543212890625,-9.36396598815918,-0.8483961224555969,-2.786888599395752
1663861820255400400,6.637400390625,-9.366124153137207,-0.8298776149749756,-2.7852134704589844
1663861820265257700,6.6472578125,-9.368386268615723,-0.8123054504394531,-2.782780408859253
1663861820275145500,6.6571455078125,-9.370445251464844,-0.7965777516365051,-2.780398368835449
1663861820285063700,6.667063720703125,-9.372121810913086,-0.7825357913970947,-2.778731107711792
1663861820294951200,6.676951171875,-9.373635292053223,-0.7692336440086365,-2.7773399353027344
1663861820304839000,6.6868388671875,-9.37502384185791,-0.7575380802154541,-2.7758686542510986
1663861820314726700,6.6967265625,-9.376664161682129,-0.7484777569770813,-2.77278470993042
1663861820324614400,6.706614501953125,-9.378310203552246,-0.7428764700889587,-2.7687249183654785
1663861820334502100,6.716502197265625,-9.379622459411621,-0.7408449649810791,-2.7648186683654785
1663861820344389600,6.7263896484375,-9.380569458007812,-0.7421731948852539,-2.761249542236328
1663861820354247000,6.736246826171875,-9.381257057189941,-0.7467889785766602,-2.7576630115509033
1663861820364134700,6.746134765625,-9.381917953491211,-0.7543079257011414,-2.7533628940582275
1663861820374022400,6.7560224609375,-9.382534980773926,-0.7651514410972595,-2.7482657432556152
1663861820383910000,6.765909912109375,-9.382773399353027,-0.7794460654258728,-2.7434329986572266
1663861820393797600,6.775797607421875,-9.382185935974121,-0.7966955900192261,-2.740483045578003
1663861820403655000,6.785655029296875,-9.38081169128418,-0.8163759112358093,-2.739393711090088
1663861820413512000,6.795511962890625,-9.378913879394531,-0.8377621173858643,-2.739439010620117
1663861820423399700,6.805399658203125,-9.3770751953125,-0.8603445291519165,-2.738729476928711
1663861820433287400,6.815287353515625,-9.37564754486084,-0.8826330900192261,-2.7365260124206543
1663861820443175200,6.825175048828125,-9.37490463256836,-0.9020915031433105,-2.73272442817688
1663861820453063000,6.83506298828125,-9.375082015991211,-0.9162393808364868,-2.727403163909912
1663861820462920000,6.844919921875,-9.375569343566895,-0.9258018136024475,-2.7224934101104736
1663861820472807700,6.8548076171875,-9.37618350982666,-0.9329673051834106,-2.7179291248321533
1663861820482665000,6.8646650390625,-9.377212524414062,-0.9414303302764893,-2.7114546298980713
1663861820492583200,6.874583251953125,-9.378662109375,-0.9537559747695923,-2.702115774154663
1663861820502440200,6.884440185546875,-9.380452156066895,-0.9675940871238708,-2.690958023071289
1663861820512358400,6.8943583984375,-9.38308048248291,-0.9763578772544861,-2.678602695465088
1663861820522215700,6.904215576171875,-9.385503768920898,-0.9765713810920715,-2.6700212955474854
1663861820532134000,6.9141337890625,-9.386823654174805,-0.9705394506454468,-2.667579412460327
1663861820542021600,6.924021728515625,-9.38804817199707,-0.9639233946800232,-2.6656692028045654
1663861820551909400,6.933909423828125,-9.390527725219727,-0.9611752033233643,-2.6579155921936035
1663861820561766400,6.943766357421875,-9.39423656463623,-0.963028073310852,-2.6441049575805664
1663861820571623700,6.953623779296875,-9.398346900939941,-0.9681859612464905,-2.6275594234466553
1663861820581511400,6.963511474609375,-9.402137756347656,-0.9758901000022888,-2.611098527908325
1663861820591429600,6.9734296875,-9.405200004577637,-0.984707772731781,-2.5967180728912354
1663861820601317000,6.983317138671875,-9.407462120056152,-0.9927794337272644,-2.585428237915039
1663861820611204900,6.993204833984375,-9.409258842468262,-0.9991047978401184,-2.5764355659484863
1663861820621092600,7.003092529296875,-9.410940170288086,-1.003259301185608,-2.5686700344085693
1663861820630980400,7.01298046875,-9.412737846374512,-1.005082130432129,-2.5613598823547363
1663861820640868000,7.0228681640625,-9.414742469787598,-1.0047872066497803,-2.5540997982025146
1663861820650755600,7.032755615234375,-9.416897773742676,-1.0024536848068237,-2.547056198120117
1663861820660612900,7.04261279296875,-9.4188814163208,-0.9987673759460449,-2.541166305541992
1663861820670470100,7.05247021484375,-9.420513153076172,-0.9944992065429688,-2.5367889404296875
1663861820680357600,7.062357666015625,-9.421631813049316,-0.9904501438140869,-2.534215211868286
1663861820690245400,7.072245361328125,-9.422245979309082,-0.9868708252906799,-2.5333304405212402
1663861820700133000,7.082133056640625,-9.422414779663086,-0.9843534827232361,-2.5336809158325195
1663861820710020900,7.092020751953125,-9.422418594360352,-0.9831341505050659,-2.5341386795043945
1663861820719878000,7.1018779296875,-9.422528266906738,-0.9831000566482544,-2.533745527267456
1663861820729765600,7.111765625,-9.422847747802734,-0.984070360660553,-2.5321781635284424
1663861820739653400,7.1216533203125,-9.423333168029785,-0.9853580594062805,-2.5298705101013184
1663861820749510700,7.1315107421875,-9.4239501953125,-0.986790120601654,-2.5270118713378906
1663861820759398400,7.1413984375,-9.424631118774414,-0.988343358039856,-2.52386212348938
1663861820769316600,7.151316650390625,-9.425193786621094,-0.9900180697441101,-2.521104335784912
1663861820779204000,7.1612041015625,-9.425570487976074,-0.9919598698616028,-2.5189321041107178
1663861820789091800,7.171091796875,-9.425812721252441,-0.9941229820251465,-2.5171751976013184
1663861820798979600,7.1809794921875,-9.42590045928955,-0.996215283870697,-2.516017436981201
1663861820808836900,7.1908369140625,-9.425865173339844,-0.9981929063796997,-2.515364646911621
1663861820818694000,7.20069384765625,-9.425749778747559,-0.9999863505363464,-2.5150856971740723
1663861820828612000,7.210612060546875,-9.425528526306152,-1.0018287897109985,-2.5151822566986084
1663861820838499800,7.220499755859375,-9.425273895263672,-1.0037827491760254,-2.515355110168457
1663861820848387600,7.2303876953125,-9.424602508544922,-1.0055663585662842,-2.5171587467193604
1663861820858275300,7.240275390625,-9.423810005187988,-1.0076156854629517,-2.519306182861328
1663861820868162800,7.250162841796875,-9.422921180725098,-1.0095713138580322,-2.5218489170074463
1663861820878050600,7.260050537109375,-9.42204475402832,-1.011299729347229,-2.524428606033325
1663861820887938300,7.269938232421875,-9.421346664428711,-1.013464331626892,-2.5261638164520264
1663861820897826000,7.279825927734375,-9.420699119567871,-1.0158993005752563,-2.5275988578796387
1663861820907713800,7.2897138671875,-9.42015266418457,-1.0187729597091675,-2.5284781455993652
1663861820917570800,7.29957080078125,-9.419720649719238,-1.021866798400879,-2.528839349746704
1663861820927458600,7.30945849609375,-9.419486999511719,-1.0244300365447998,-2.5286736488342285
1663861820937346300,7.31934619140625,-9.419390678405762,-1.0255942344665527,-2.5285630226135254
1663861820947234000,7.329234130859375,-9.419382095336914,-1.0255365371704102,-2.5286154747009277
1663861820957121500,7.33912158203125,-9.419367790222168,-1.0248031616210938,-2.528970241546631
1663861820967009300,7.34900927734375,-9.419236183166504,-1.0237246751785278,-2.5298941135406494
1663861820976866600,7.358866455078125,-9.418960571289062,-1.0229039192199707,-2.531250238418579
1663861820986754300,7.36875439453125,-9.418681144714355,-1.0223689079284668,-2.532505989074707
1663861820996642000,7.37864208984375,-9.418304443359375,-1.0221459865570068,-2.53399920463562
1663861821006529500,7.388529541015625,-9.418307304382324,-1.0218555927276611,-2.5341079235076904
1663861821016417300,7.398417236328125,-9.41871452331543,-1.0216361284255981,-2.532679319381714
1663861821026305000,7.408304931640625,-9.420001029968262,-1.0203702449798584,-2.5284035205841064
1663861821036162300,7.418162353515625,-9.422167778015137,-1.0181719064712524,-2.521202325820923
1663861821046049800,7.4280498046875,-9.423619270324707,-1.0145782232284546,-2.5172224044799805
1663861821055937500,7.4379375,-9.425138473510742,-1.0110591650009155,-2.5129477977752686
1663861821065825300,7.4478251953125,-9.42647933959961,-1.0084959268569946,-2.508946657180786
1663861821075713000,7.457713134765625,-9.427412033081055,-1.0071706771850586,-2.505974292755127
1663861821085600800,7.467600830078125,-9.4279203414917,-1.0069160461425781,-2.5041608810424805
1663861821095457800,7.477457763671875,-9.42831039428711,-1.0070338249206543,-2.502645254135132
1663861821105345500,7.487345458984375,-9.428725242614746,-1.0076638460159302,-2.500828981399536
1663861821115202800,7.497202880859375,-9.429140090942383,-1.0087478160858154,-2.4988224506378174
1663861821125059800,7.507059814453125,-9.429476737976074,-1.010296106338501,-2.496927261352539
1663861821134947600,7.516947509765625,-9.429779052734375,-1.011979579925537,-2.4951069355010986
1663861821144865800,7.52686572265625,-9.429954528808594,-1.0135225057601929,-2.4938154220581055
1663861821154723000,7.53672314453125,-9.430132865905762,-1.015029788017273,-2.4925270080566406
1663861821164610600,7.546610595703125,-9.430453300476074,-1.0168352127075195,-2.49057936668396
1663861821174467800,7.5564677734375,-9.430903434753418,-1.0189485549926758,-2.488008499145508
1663861821184386000,7.566385986328125,-9.431325912475586,-1.021152138710022,-2.4855034351348877
1663861821194273800,7.576273681640625,-9.431561470031738,-1.0233508348464966,-2.4837019443511963
1663861821204161500,7.58616162109375,-9.431580543518066,-1.0252703428268433,-2.4828412532806396
1663861821214018600,7.5960185546875,-9.431442260742188,-1.0270335674285889,-2.4826364517211914
1663861821223906300,7.60590625,-9.431180953979492,-1.028873324394226,-2.4828662872314453
1663861821233794000,7.6157939453125,-9.430927276611328,-1.0305070877075195,-2.483154296875
1663861821243681800,7.625681884765625,-9.430818557739258,-1.0317184925079346,-2.4830636978149414
1663861821253569500,7.635569580078125,-9.430895805358887,-1.0325871706008911,-2.4824116230010986
1663861821263426600,7.645426513671875,-9.431136131286621,-1.033124327659607,-2.481271982192993
1663861821273344800,7.6553447265625,-9.431485176086426,-1.0335341691970825,-2.4797775745391846
1663861821283202000,7.6652021484375,-9.431783676147461,-1.0340180397033691,-2.4784367084503174
1663861821293089800,7.67508984375,-9.431984901428223,-1.034709095954895,-2.477381706237793
1663861821302977300,7.684977294921875,-9.431946754455566,-1.0355857610702515,-2.4771597385406494
1663861821312834600,7.69483447265625,-9.431666374206543,-1.0367224216461182,-2.477750062942505
1663861821322722300,7.704722412109375,-9.431116104125977,-1.038185715675354,-2.479233741760254
1663861821332640500,7.714640625,-9.43057632446289,-1.0393965244293213,-2.4807796478271484
1663861821342497500,7.72449755859375,-9.430191040039062,-1.0403920412063599,-2.4818272590637207
1663861821352385300,7.73438525390625,-9.429950714111328,-1.0412452220916748,-2.4823803901672363
1663861821362242600,7.74424267578125,-9.429506301879883,-1.0420923233032227,-2.48371958732605
1663861821372160800,7.754160888671875,-9.429068565368652,-1.042673110961914,-2.485131025314331
1663861821382048500,7.764048583984375,-9.428617477416992,-1.0426517724990845,-2.486854314804077
1663861821391936000,7.77393603515625,-9.428126335144043,-1.0425578355789185,-2.4887561798095703
1663861821401793300,7.783793212890625,-9.427630424499512,-1.0426201820373535,-2.490604877471924
1663861821411650600,7.793650634765625,-9.427194595336914,-1.0427242517471313,-2.492210626602173
1663861821421568800,7.80356884765625,-9.426942825317383,-1.0429307222366333,-2.493077516555786
1663861821431456300,7.813456298828125,-9.426839828491211,-1.0430829524993896,-2.4934017658233643
1663861821441344000,7.823343994140625,-9.426971435546875,-1.0430485010147095,-2.492920398712158
1663861821451231700,7.833231689453125,-9.427154541015625,-1.0427082777023315,-2.4923698902130127
1663861821461089000,7.843089111328125,-9.427367210388184,-1.042277216911316,-2.49174427986145
1663861821470976800,7.852976806640625,-9.427597999572754,-1.0422710180282593,-2.4908745288848877
1663861821480864300,7.8628642578125,-9.427907943725586,-1.0422296524047852,-2.489717483520508
1663861821490752000,7.872751953125,-9.428256034851074,-1.0422389507293701,-2.4883933067321777
1663861821500639700,7.8826396484375,-9.428585052490234,-1.0426769256591797,-2.4869635105133057
1663861821510497000,7.8924970703125,-9.428940773010254,-1.0428781509399414,-2.4855306148529053
1663861821520415200,7.902415283203125,-9.429381370544434,-1.0428199768066406,-2.4838876724243164
1663861821530302700,7.912302734375,-9.429920196533203,-1.0432175397872925,-2.481672525405884
1663861821540190500,7.9221904296875,-9.430420875549316,-1.0436882972717285,-2.479567289352417
1663861821550078200,7.932078125,-9.430872917175293,-1.0439687967300415,-2.4777278900146484
1663861821559966000,7.941966064453125,-9.431207656860352,-1.044296145439148,-2.47632098197937
1663861821569853700,7.951853759765625,-9.431501388549805,-1.0448211431503296,-2.474978446960449
1663861821579741200,7.9617412109375,-9.431724548339844,-1.045415997505188,-2.473876714706421
1663861821589629000,7.97162890625,-9.431848526000977,-1.0464483499526978,-2.4729645252227783
1663861821599486200,7.981486328125,-9.431783676147461,-1.0473837852478027,-2.4728193283081055
1663861821609374000,7.9913740234375,-9.431604385375977,-1.0481173992156982,-2.4731922149658203
1663861821619261400,8.001261474609375,-9.431329727172852,-1.0492148399353027,-2.4737722873687744
1663861821629149200,8.011149169921875,-9.43104076385498,-1.0501073598861694,-2.474496603012085
1663861821639037000,8.021036865234375,-9.430817604064941,-1.0509874820709229,-2.4749739170074463
1663861821648924700,8.030924560546875,-9.430439949035645,-1.0515899658203125,-2.4761550426483154
1663861821658781700,8.04078173828125,-9.430017471313477,-1.0520145893096924,-2.4775850772857666
1663861821668669400,8.05066943359375,-9.42957592010498,-1.0521382093429565,-2.479212760925293
1663861821678557200,8.06055712890625,-9.42928695678711,-1.052304744720459,-2.4802424907684326
1663861821688414500,8.07041455078125,-9.428956985473633,-1.0522171258926392,-2.4815316200256348
1663861821698302200,8.08030224609375,-9.428693771362305,-1.0518646240234375,-2.482682228088379
1663861821708159200,8.0901591796875,-9.428349494934082,-1.05136239528656,-2.4842004776000977
1663861821718077400,8.100077392578125,-9.428027153015137,-1.0507079362869263,-2.4856998920440674
1663861821727965200,8.109965087890625,-9.427664756774902,-1.0501759052276611,-2.4872982501983643
1663861821737853000,8.11985302734375,-9.427416801452637,-1.0496611595153809,-2.4884562492370605
1663861821747740700,8.12974072265625,-9.427124977111816,-1.0492606163024902,-2.489727258682251
1663861821757597700,8.13959765625,-9.426894187927246,-1.0496137142181396,-2.490454912185669
1663861821767455000,8.149455078125,-9.4265718460083,-1.0503968000411987,-2.491346836090088
1663861821777342700,8.1593427734375,-9.426396369934082,-1.050910234451294,-2.491793394088745
1663861821787230200,8.169230224609375,-9.426212310791016,-1.0517010688781738,-2.4921531677246094
1663861821797118000,8.179117919921875,-9.425980567932129,-1.052900791168213,-2.492521286010742
1663861821806975200,8.188975341796874,-9.425644874572754,-1.0542984008789062,-2.4932022094726562
1663861821816893400,8.1988935546875,-9.425414085388184,-1.0549501180648804,-2.4937984943389893
1663861821826750500,8.20875048828125,-9.425440788269043,-1.0550845861434937,-2.493640899658203
1663861821836638200,8.21863818359375,-9.425586700439453,-1.0551091432571411,-2.4930787086486816
1663861821846526000,8.22852587890625,-9.425653457641602,-1.0552623271942139,-2.492762327194214
1663861821856383200,8.23838330078125,-9.425664901733398,-1.0551773309707642,-2.492755651473999
1663861821866270700,8.248270751953125,-9.425539016723633,-1.0555219650268555,-2.4930849075317383
1663861821876189000,8.25818896484375,-9.425257682800293,-1.0559598207473755,-2.4939627647399902
1663861821886076700,8.26807666015625,-9.425091743469238,-1.0560636520385742,-2.494546413421631
1663861821895964400,8.27796435546875,-9.42490291595459,-1.056365966796875,-2.4951345920562744
1663861821905852200,8.28785205078125,-9.424776077270508,-1.0568186044692993,-2.4954168796539307
1663861821915740000,8.297739990234374,-9.424565315246582,-1.057281255722046,-2.496019124984741
1663861821925627600,8.307627685546874,-9.424253463745117,-1.0578926801681519,-2.4969377517700195
1663861821935515100,8.31751513671875,-9.424078941345215,-1.0580542087554932,-2.4975266456604004
1663861821945403000,8.32740283203125,-9.423859596252441,-1.0580179691314697,-2.498371124267578
1663861821955260200,8.33726025390625,-9.42369270324707,-1.0581395626068115,-2.4989452362060547
1663861821965148000,8.34714794921875,-9.423639297485352,-1.0580483675003052,-2.4991917610168457
1663861821975035400,8.357035400390625,-9.423568725585938,-1.0576903820037842,-2.499607563018799
1663861821984923100,8.366923095703125,-9.423504829406738,-1.0573601722717285,-2.499986171722412
1663861821994811000,8.376810791015625,-9.423318862915039,-1.0578160285949707,-2.500490427017212
1663861822004698600,8.38669873046875,-9.423259735107422,-1.0578504800796509,-2.5007057189941406
1663861822014586400,8.39658642578125,-9.423221588134766,-1.0579679012298584,-2.500795841217041
1663861822024473900,8.406473876953125,-9.423057556152344,-1.05862295627594,-2.501138210296631
1663861822034331100,8.4163310546875,-9.422933578491211,-1.0590959787368774,-2.50140643119812
1663861822044219000,8.426218994140624,-9.422904014587402,-1.0590596199035645,-2.5015318393707275
1663861822054076000,8.436075927734375,-9.422901153564453,-1.0591264963150024,-2.5015156269073486
1663861822063963600,8.445963623046875,-9.422752380371094,-1.0593969821929932,-2.5019590854644775
1663861822073851400,8.455851318359375,-9.422643661499023,-1.0595066547393799,-2.5023231506347656
1663861822083708700,8.465708740234374,-9.422558784484863,-1.0596078634262085,-2.5026001930236816
1663861822093596200,8.47559619140625,-9.422513008117676,-1.0600141286849976,-2.502598762512207
1663861822103453400,8.485453369140625,-9.422415733337402,-1.060194969177246,-2.502889394760132
1663861822113341200,8.495341064453125,-9.422384262084961,-1.0601266622543335,-2.503039598464966
1663861822123229000,8.50522900390625,-9.422450065612793,-1.0601906776428223,-2.502763032913208
1663861822133147100,8.515147216796874,-9.422499656677246,-1.0601301193237305,-2.502603530883789
1663861822143004200,8.525004150390625,-9.422554016113281,-1.0598723888397217,-2.5025064945220947
1663861822152892000,8.534891845703125,-9.422555923461914,-1.0598890781402588,-2.5024940967559814
1663861822162779600,8.544779541015625,-9.422638893127441,-1.0597929954528809,-2.5022196769714355
1663861822172636700,8.55463671875,-9.42259407043457,-1.0596963167190552,-2.502429485321045
1663861822182524400,8.5645244140625,-9.422435760498047,-1.0601884126663208,-2.502815008163452
1663861822192442600,8.574442626953125,-9.422222137451172,-1.0603747367858887,-2.503544569015503
1663861822202300000,8.5842998046875,-9.422100067138672,-1.0601731538772583,-2.5040838718414307
1663861822212187600,8.594187744140624,-9.42195987701416,-1.0599324703216553,-2.504713773727417
1663861822222075400,8.604075439453124,-9.421799659729004,-1.0599967241287231,-2.5052900314331055
1663861822231963000,8.613962890625,-9.421828269958496,-1.0597751140594482,-2.5052742958068848
1663861822241850600,8.6238505859375,-9.421812057495117,-1.0598180294036865,-2.505321502685547
1663861822251708000,8.6337080078125,-9.421847343444824,-1.0597342252731323,-2.5052237510681152
1663861822261595600,8.643595703125,-9.421797752380371,-1.059827208518982,-2.505369186401367
1663861822271513900,8.653513916015624,-9.421671867370605,-1.0599610805511475,-2.5057859420776367
1663861822281401300,8.6634013671875,-9.42166805267334,-1.0598572492599487,-2.505845546722412
1663861822291289000,8.6732890625,-9.421721458435059,-1.0596532821655273,-2.5057320594787598
1663861822301146400,8.683146484375,-9.421710014343262,-1.0597425699234009,-2.505734920501709
1663861822311034000,8.6930341796875,-9.421724319458008,-1.0597161054611206,-2.5056934356689453
1663861822320921600,8.702921630859375,-9.421875953674316,-1.059585452079773,-2.505181074142456
1663861822330809300,8.712809326171875,-9.422005653381348,-1.0591429471969604,-2.5048773288726807
1663861822340697000,8.722697021484375,-9.422061920166016,-1.0584958791732788,-2.5049405097961426
1663861822350584800,8.732584716796875,-9.422147750854492,-1.058032512664795,-2.5048105716705322
1663861822360441900,8.74244189453125,-9.422170639038086,-1.057753562927246,-2.504845142364502
1663861822370329600,8.75232958984375,-9.422250747680664,-1.0573617219924927,-2.504711627960205
1663861822380217300,8.76221728515625,-9.422323226928711,-1.056559443473816,-2.5047762393951416
1663861822390105000,8.77210498046875,-9.422294616699219,-1.0560455322265625,-2.5050976276397705
1663861822399962000,8.781962158203125,-9.422282218933105,-1.0557044744491577,-2.5052895545959473
1663861822409849900,8.791849853515625,-9.422334671020508,-1.0557655096054077,-2.5050668716430664
1663861822419737600,8.801737548828125,-9.422356605529785,-1.0561027526855469,-2.5048422813415527
1663861822429625300,8.811625244140625,-9.422429084777832,-1.0565296411514282,-2.504387617111206
1663861822439513000,8.82151318359375,-9.422430992126465,-1.0574332475662231,-2.504002094268799
1663861822449400800,8.83140087890625,-9.422536849975586,-1.0584274530410767,-2.503183364868164
1663861822459288300,8.841288330078125,-9.422411918640137,-1.0592838525772095,-2.5032904148101807
1663861822469176000,8.851176025390625,-9.422453880310059,-1.0595860481262207,-2.503002405166626
1663861822479063800,8.861063720703125,-9.42261028289795,-1.059352993965149,-2.502511978149414
1663861822488951600,8.87095166015625,-9.422830581665039,-1.0588710308074951,-2.501887321472168
1663861822498808600,8.88080859375,-9.42292594909668,-1.0584458112716675,-2.5017101764678955
1663861822508696300,8.8906962890625,-9.422967910766602,-1.0579731464385986,-2.501749277114868
1663861822518584000,8.900583984375,-9.42294979095459,-1.057644248008728,-2.5019583702087402
1663861822528471800,8.910471923828124,-9.422896385192871,-1.0573378801345825,-2.502288579940796
1663861822538359600,8.920359619140624,-9.422965049743652,-1.0570683479309082,-2.5021424293518066
1663861822548247000,8.9302470703125,-9.42308521270752,-1.0568041801452637,-2.5018043518066406
1663861822558134800,8.940134765625,-9.423078536987305,-1.0567915439605713,-2.5018324851989746
1663861822568022500,8.9500224609375,-9.42306900024414,-1.0567262172698975,-2.501896619796753
1663861822577879800,8.9598798828125,-9.422986030578613,-1.0567786693572998,-2.5021865367889404
1663861822587767300,8.969767333984375,-9.422760963439941,-1.0568877458572388,-2.502986192703247
1663861822597624600,8.97962451171875,-9.422687530517578,-1.0569723844528198,-2.5032269954681396
1663861822607512300,8.98951220703125,-9.422759056091309,-1.0564026832580566,-2.503202199935913
1663861822617400000,8.999400146484374,-9.42282772064209,-1.0558799505233765,-2.503162384033203
1663861822627287600,9.00928759765625,-9.422964096069336,-1.0555108785629272,-2.502805233001709
1663861822637175300,9.01917529296875,-9.423050880432129,-1.0551172494888306,-2.5026440620422363
1663861822647063000,9.02906298828125,-9.423174858093262,-1.05500328540802,-2.502224922180176
1663861822656950800,9.03895068359375,-9.423385620117188,-1.0549358129501343,-2.5014595985412598
1663861822666838500,9.048838623046874,-9.423619270324707,-1.0547537803649902,-2.50065541267395
1663861822676726300,9.058726318359374,-9.423725128173828,-1.0545047521591187,-2.500365972518921
1663861822686613800,9.06861376953125,-9.423859596252441,-1.0542494058609009,-2.4999663829803467
1663861822696501500,9.07850146484375,-9.424042701721191,-1.0542031526565552,-2.4992921352386475
1663861822706389200,9.08838916015625,-9.424190521240234,-1.0542409420013428,-2.498720407485962
1663861822716246500,9.09824658203125,-9.424448013305664,-1.0540164709091187,-2.4978432655334473
1663861822726134000,9.108134033203125,-9.424674034118652,-1.0537704229354858,-2.4970929622650146
1663861822736021800,9.118021728515625,-9.424921035766602,-1.053727626800537,-2.4961795806884766
1663861822745879000,9.127879150390624,-9.425078392028809,-1.0534220933914185,-2.4957103729248047
1663861822755736000,9.137736083984375,-9.425149917602539,-1.0533828735351562,-2.4954590797424316
1663861822765654300,9.147654296875,-9.4254150390625,-1.053099513053894,-2.494577169418335
1663861822775542000,9.1575419921875,-9.42558479309082,-1.052969217300415,-2.493992328643799
1663861822785429800,9.1674296875,-9.425827026367188,-1.0525826215744019,-2.4932379722595215
1663861822795287000,9.177287109375,-9.426039695739746,-1.0524787902832031,-2.492479085922241
1663861822805174500,9.187174560546875,-9.426081657409668,-1.0526087284088135,-2.4922635555267334
1663861822815062300,9.197062255859375,-9.426163673400879,-1.0523494482040405,-2.4920661449432373
1663861822824919600,9.20691943359375,-9.426191329956055,-1.0521434545516968,-2.492049217224121
1663861822834807300,9.216807373046874,-9.426180839538574,-1.0520119667053223,-2.4921412467956543
1663861822844664300,9.226664306640625,-9.426273345947266,-1.0517714023590088,-2.491889238357544
1663861822854552000,9.236552001953125,-9.426318168640137,-1.0516544580459595,-2.491772413253784
1663861822864470300,9.24647021484375,-9.426339149475098,-1.0513852834701538,-2.4918081760406494
1663861822874327600,9.25632763671875,-9.426358222961426,-1.0512025356292725,-2.491814136505127
1663861822884245800,9.266245849609374,-9.426403999328613,-1.0513733625411987,-2.4915640354156494
1663861822894102800,9.276102783203125,-9.426393508911133,-1.051156997680664,-2.491698980331421
1663861822903990500,9.285990478515625,-9.42626953125,-1.05134916305542,-2.492088794708252
1663861822913878300,9.295878173828125,-9.426224708557129,-1.051476240158081,-2.4922003746032715
1663861822923735600,9.305735595703124,-9.426268577575684,-1.0513299703598022,-2.492095947265625
1663861822933623000,9.315623046875,-9.426290512084961,-1.051150918006897,-2.4920895099639893
1663861822943510800,9.3255107421875,-9.42627239227295,-1.0514254570007324,-2.4920437335968018
1663861822953398500,9.3353984375,-9.426255226135254,-1.0516180992126465,-2.492025375366211
1663861822963316700,9.345316650390625,-9.426264762878418,-1.0516293048858643,-2.49198579788208
1663861822973174000,9.355174072265624,-9.426178932189941,-1.0519403219223022,-2.4921791553497314
1663861822983061500,9.3650615234375,-9.426127433776855,-1.05215585231781,-2.4922826290130615
1663861822992949200,9.37494921875,-9.426162719726562,-1.0524872541427612,-2.492009162902832
1663861823002806500,9.384806640625,-9.426175117492676,-1.0524976253509521,-2.4919562339782715
1663861823012694300,9.3946943359375,-9.426206588745117,-1.052217721939087,-2.491957664489746
1663861823022581800,9.404581787109375,-9.426389694213867,-1.0519342422485352,-2.4913835525512695
1663861823032469500,9.414469482421875,-9.42641830444336,-1.0515576601028442,-2.49143648147583
1663861823042357200,9.424357177734375,-9.426542282104492,-1.0508954524993896,-2.4912469387054443
1663861823052245000,9.434244873046875,-9.426651000976562,-1.0507210493087769,-2.490910291671753
1663861823062132700,9.4441328125,-9.426651000976562,-1.0510318279266357,-2.4907801151275635
1663861823072020200,9.454020263671875,-9.426728248596191,-1.0516033172607422,-2.490243673324585
1663861823081877500,9.46387744140625,-9.426838874816895,-1.0521451234817505,-2.489595651626587
1663861823091734800,9.47373486328125,-9.427045822143555,-1.0526224374771118,-2.488609790802002
1663861823101622300,9.483622314453125,-9.427074432373047,-1.053462266921997,-2.4881491661071777
1663861823111510000,9.493510009765625,-9.42699146270752,-1.0539852380752563,-2.488238573074341
1663861823121397800,9.503397705078125,-9.42695426940918,-1.054309368133545,-2.4882445335388184
1663861823131316000,9.51331591796875,-9.427058219909668,-1.0542861223220825,-2.487858772277832
1663861823141203700,9.52320361328125,-9.427169799804688,-1.0542166233062744,-2.487467050552368
1663861823151091500,9.533091552734374,-9.427299499511719,-1.0542261600494385,-2.486967086791992
1663861823160979200,9.542979248046874,-9.427362442016602,-1.0542811155319214,-2.486705780029297
1663861823170866700,9.55286669921875,-9.427350997924805,-1.0546932220458984,-2.4865782260894775
1663861823180754400,9.56275439453125,-9.427301406860352,-1.0550117492675781,-2.4866278171539307
1663861823190642200,9.57264208984375,-9.427312850952148,-1.0552597045898438,-2.486480236053467
1663861823200530000,9.582530029296874,-9.427351951599121,-1.0554999113082886,-2.486229658126831
1663861823210387000,9.592386962890625,-9.427440643310547,-1.0555243492126465,-2.48588490486145
1663861823220274700,9.602274658203125,-9.427459716796875,-1.0558767318725586,-2.485664129257202
1663861823230162400,9.612162353515625,-9.42740249633789,-1.0564075708389282,-2.485654354095459
1663861823240050200,9.62205029296875,-9.42719841003418,-1.0568246841430664,-2.486248731613159
1663861823249938000,9.63193798828125,-9.427071571350098,-1.0565249919891357,-2.486858367919922
1663861823259825400,9.641825439453125,-9.426984786987305,-1.056272029876709,-2.487293004989624
1663861823269713200,9.651713134765625,-9.426904678344727,-1.055951714515686,-2.4877350330352783
1663861823279570400,9.6615703125,-9.426915168762207,-1.0555338859558105,-2.487872838973999
1663861823289427500,9.671427490234375,-9.427081108093262,-1.0551193952560425,-2.4874207973480225
1663861823299315200,9.681315185546875,-9.427159309387207,-1.0549161434173584,-2.4872071743011475
1663861823309203000,9.691202880859375,-9.427204132080078,-1.0548278093338013,-2.4870765209198
1663861823319090700,9.701090576171875,-9.427323341369629,-1.0545912981033325,-2.486726999282837
1663861823328978400,9.710978515625,-9.427400588989258,-1.054601788520813,-2.4864284992218018
1663861823338866200,9.7208662109375,-9.427373886108398,-1.0548280477523804,-2.486431837081909
1663861823348753700,9.730753662109375,-9.427399635314941,-1.0547630786895752,-2.486360549926758
1663861823358611000,9.74061083984375,-9.427545547485352,-1.0548232793807983,-2.4857869148254395
1663861823368498700,9.750498779296874,-9.427650451660156,-1.0550955533981323,-2.4852678775787354
1663861823378386400,9.760386474609374,-9.427774429321289,-1.0554038286209106,-2.484668731689453
1663861823388274000,9.77027392578125,-9.427854537963867,-1.055671215057373,-2.4842519760131836
1663861823398131200,9.780131103515625,-9.427881240844727,-1.0558511018753052,-2.4840734004974365
1663861823408019000,9.79001904296875,-9.427922248840332,-1.055690884590149,-2.483983278274536
1663861823417906700,9.79990673828125,-9.42806625366211,-1.0557745695114136,-2.483405113220215
1663861823427794200,9.809794189453125,-9.428080558776855,-1.0558149814605713,-2.4833312034606934
1663861823437682000,9.819681884765625,-9.42812728881836,-1.0559029579162598,-2.48311710357666
1663861823447569700,9.829569580078125,-9.428118705749512,-1.056151270866394,-2.483044147491455
1663861823457457400,9.83945751953125,-9.42823314666748,-1.056227684020996,-2.4825782775878906
1663861823467345200,9.84934521484375,-9.428339958190918,-1.0562992095947266,-2.4821412563323975
1663861823477232600,9.859232666015625,-9.428291320800781,-1.0565755367279053,-2.4822118282318115
1663861823487120400,9.869120361328125,-9.42824649810791,-1.0567617416381836,-2.4823007583618164
1663861823497008000,9.879008056640625,-9.42833137512207,-1.0565972328186035,-2.482043743133545
1663861823506896000,9.888895751953125,-9.42835807800293,-1.0565778017044067,-2.48195219039917
1663861823516753000,9.8987529296875,-9.428298950195312,-1.0567768812179565,-2.4820942878723145
1663861823526640600,9.908640625,-9.428350448608398,-1.0565909147262573,-2.4819798469543457
1663861823536528400,9.9185283203125,-9.4284086227417,-1.056289792060852,-2.481886386871338
1663861823546416000,9.928416015625,-9.428364753723145,-1.0560849905014038,-2.482137441635132
1663861823556304000,9.938303955078124,-9.42831039428711,-1.0560870170593262,-2.4823460578918457
1663861823566191400,9.94819140625,-9.428269386291504,-1.05625319480896,-2.482429265975952
1663861823576079000,9.9580791015625,-9.428313255310059,-1.0562278032302856,-2.48227596282959
1663861823585966800,9.967966796875,-9.428404808044434,-1.0561269521713257,-2.481968641281128
1663861823595824000,9.97782421875,-9.428452491760254,-1.0564007759094238,-2.481665849685669
1663861823605712000,9.9877119140625,-9.4285249710083,-1.056497573852539,-2.481351852416992
1663861823615599400,9.997599365234375,-9.428576469421387,-1.0564152002334595,-2.481194019317627
1663861823625487000,10.007487060546875,-9.4285888671875,-1.0564912557601929,-2.4811153411865234
1663861823635374800,10.017374755859375,-9.428661346435547,-1.0565191507339478,-2.4808263778686523
1663861823645262600,10.0272626953125,-9.42868423461914,-1.0570266246795654,-2.480524778366089
1663861823655119600,10.03711962890625,-9.42868709564209,-1.0573546886444092,-2.4803719520568848
1663861823665007400,10.04700732421875,-9.4287109375,-1.0572047233581543,-2.480346918106079
1663861823674895000,10.05689501953125,-9.428725242614746,-1.057059407234192,-2.480353832244873
1663861823684782800,10.066782958984374,-9.428698539733887,-1.0568662881851196,-2.480536937713623
1663861823694670600,10.076670654296874,-9.42870044708252,-1.0568031072616577,-2.480555772781372
1663861823704558000,10.08655810546875,-9.42874526977539,-1.0563470125198364,-2.480579376220703
1663861823714415400,10.096415283203125,-9.428776741027832,-1.0561357736587524,-2.480548143386841
1663861823724303000,10.10630322265625,-9.428828239440918,-1.0559430122375488,-2.480436086654663
1663861823734160100,10.11616015625,-9.428790092468262,-1.0564351081848145,-2.4803731441497803
1663861823744047900,10.1260478515625,-9.428793907165527,-1.0572373867034912,-2.480017900466919
1663861823753935600,10.135935546875,-9.428828239440918,-1.0578628778457642,-2.4796195030212402
1663861823763823400,10.1458232421875,-9.428865432739258,-1.0585159063339233,-2.4791996479034424
1663861823773711000,10.155711181640624,-9.428733825683594,-1.0591552257537842,-2.479429006576538
1663861823783598600,10.1655986328125,-9.428618431091309,-1.0593496561050415,-2.4797816276550293
1663861823793486300,10.175486328125,-9.428764343261719,-1.0590204000473022,-2.4793663024902344
1663861823803374000,10.1853740234375,-9.428848266601562,-1.0589940547943115,-2.4790618419647217
1663861823813261800,10.19526171875,-9.428924560546875,-1.0589205026626587,-2.4788031578063965
1663861823823149600,10.205149658203124,-9.428924560546875,-1.0589638948440552,-2.4787793159484863
1663861823833006600,10.215006591796875,-9.4288330078125,-1.0591646432876587,-2.4790446758270264
1663861823842894300,10.224894287109375,-9.428746223449707,-1.059584617614746,-2.4791922569274902
1663861823852751600,10.234751708984374,-9.428715705871582,-1.0598199367523193,-2.4792118072509766
1663861823862639400,10.244639404296874,-9.428750991821289,-1.060194492340088,-2.478914737701416
1663861823872496400,10.254496337890625,-9.428794860839844,-1.060436487197876,-2.478647232055664
1663861823882414600,10.26441455078125,-9.42869758605957,-1.0606310367584229,-2.4789340496063232
1663861823892302300,10.27430224609375,-9.428690910339355,-1.0607901811599731,-2.4788904190063477
1663861823902190000,10.284190185546874,-9.4285888671875,-1.0607579946517944,-2.479292631149292
1663861823912077800,10.294077880859374,-9.428468704223633,-1.0606486797332764,-2.479795455932617
1663861823921965300,10.30396533203125,-9.42835807800293,-1.0603082180023193,-2.480360746383667
1663861823931853000,10.31385302734375,-9.428324699401855,-1.0599006414413452,-2.4806621074676514
1663861823941710300,10.32371044921875,-9.428308486938477,-1.0592621564865112,-2.480997085571289
1663861823951598000,10.33359814453125,-9.428260803222656,-1.0587157011032104,-2.4814140796661377
1663861823961455000,10.343455078125,-9.428228378295898,-1.0584027767181396,-2.4816672801971436
1663861823971342800,10.3533427734375,-9.4282808303833,-1.058130145072937,-2.4815871715545654
1663861823981230600,10.363230712890624,-9.4284029006958,-1.0577932596206665,-2.481268882751465
1663861823991118300,10.373118408203124,-9.428457260131836,-1.0576601028442383,-2.4811184406280518
1663861824000975400,10.382975341796875,-9.428548812866211,-1.0578577518463135,-2.4806835651397705
1663861824010863000,10.392863037109375,-9.428571701049805,-1.0579559803009033,-2.4805548191070557
1663861824020750800,10.402750732421875,-9.428679466247559,-1.0579404830932617,-2.480149984359741
1663861824030638600,10.412638671875,-9.428767204284668,-1.0581979751586914,-2.479706048965454
1663861824040526000,10.422526123046875,-9.428837776184082,-1.0579291582107544,-2.479555606842041
1663861824050383400,10.43238330078125,-9.42883586883545,-1.0576786994934082,-2.479668140411377
1663861824060301600,10.442301513671875,-9.428852081298828,-1.0575060844421387,-2.4796814918518066
1663861824070189300,10.452189208984375,-9.428861618041992,-1.0567747354507446,-2.4799532890319824
1663861824080077000,10.4620771484375,-9.428817749023438,-1.0559381246566772,-2.4804797172546387
1663861824089964800,10.47196484375,-9.428804397583008,-1.0553616285324097,-2.4807775020599365
1663861824099852300,10.481852294921875,-9.428780555725098,-1.05491304397583,-2.4810566902160645
1663861824109740000,10.491739990234375,-9.428728103637695,-1.0543030500411987,-2.481515884399414
1663861824119627800,10.501627685546875,-9.428730010986328,-1.0535112619400024,-2.481843948364258
1663861824129515500,10.511515625,-9.42860221862793,-1.0529258251190186,-2.482577323913574
1663861824139403300,10.5214033203125,-9.428439140319824,-1.0522812604904175,-2.483469009399414
1663861824149260300,10.53126025390625,-9.428420066833496,-1.0515004396438599,-2.483875274658203
1663861824159148000,10.54114794921875,-9.42837142944336,-1.0508426427841187,-2.484334945678711
1663861824169005300,10.55100537109375,-9.428282737731934,-1.0506091117858887,-2.484773874282837
1663861824178892800,10.560892822265625,-9.428157806396484,-1.050281286239624,-2.4853832721710205
1663861824188780500,10.570780517578125,-9.42815113067627,-1.0496479272842407,-2.4856760501861572
1663861824198668300,10.580668212890625,-9.428104400634766,-1.0492466688156128,-2.4860239028930664
1663861824208556000,10.59055615234375,-9.42803955078125,-1.0491942167282104,-2.486290216445923
1663861824218443800,10.60044384765625,-9.427969932556152,-1.0488498210906982,-2.486701726913452
1663861824228331300,10.610331298828125,-9.427846908569336,-1.0484997034072876,-2.4873135089874268
1663861824238219000,10.620218994140625,-9.427712440490723,-1.0479127168655396,-2.488074779510498
1663861824248106800,10.630106689453125,-9.427619934082031,-1.0477182865142822,-2.48850417137146
1663861824257994500,10.639994384765625,-9.427578926086426,-1.0475263595581055,-2.4887423515319824
1663861824267882200,10.64988232421875,-9.42760944366455,-1.0471744537353516,-2.4887752532958984
1663861824277739300,10.6597392578125,-9.42760181427002,-1.0468326807022095,-2.4889442920684814
1663861824287627000,10.669626953125,-9.427582740783691,-1.0467616319656372,-2.4890496730804443
1663861824297514800,10.6795146484375,-9.427544593811035,-1.0465190410614014,-2.4892935752868652
1663861824307402500,10.689402587890624,-9.427508354187012,-1.0463191270828247,-2.4895150661468506
1663861824317290200,10.699290283203124,-9.427513122558594,-1.0460593700408936,-2.4896059036254883
1663861824327177700,10.709177734375,-9.42752742767334,-1.0461883544921875,-2.4894979000091553
1663861824337035000,10.719034912109375,-9.427458763122559,-1.0462204217910767,-2.4897446632385254
1663861824346922800,10.7289228515625,-9.427345275878906,-1.0461294651031494,-2.49021577835083
1663861824356810500,10.738810546875,-9.427200317382812,-1.0460432767868042,-2.490797758102417
1663861824366667500,10.74866748046875,-9.427021980285645,-1.0457401275634766,-2.49160099029541
1663861824376524800,10.75852490234375,-9.426935195922852,-1.0450888872146606,-2.4922001361846924
1663861824386443000,10.768443115234374,-9.426857948303223,-1.0447694063186646,-2.492626905441284
1663861824396330800,10.778330810546874,-9.426753997802734,-1.0439873933792114,-2.493346691131592
1663861824406218200,10.78821826171875,-9.426594734191895,-1.0433225631713867,-2.494227886199951
1663861824416106000,10.79810595703125,-9.426420211791992,-1.0426560640335083,-2.4951634407043457
1663861824425993700,10.80799365234375,-9.426321029663086,-1.0425031185150146,-2.4956068992614746
1663861824435881500,10.817881591796874,-9.426277160644531,-1.042885422706604,-2.4956135749816895
1663861824445769200,10.827769287109374,-9.426166534423828,-1.043501853942871,-2.49577260017395
1663861824455656700,10.83765673828125,-9.426065444946289,-1.0442144870758057,-2.495854139328003
1663861824465514000,10.847513916015625,-9.425878524780273,-1.0451114177703857,-2.496182918548584
1663861824475401700,10.857401611328125,-9.425661087036133,-1.0458344221115112,-2.4967033863067627
1663861824485258800,10.8672587890625,-9.425568580627441,-1.0462353229522705,-2.4968881607055664
1663861824495146500,10.877146484375,-9.425634384155273,-1.0460058450698853,-2.4967336654663086
1663861824505034200,10.8870341796875,-9.425636291503906,-1.0457831621170044,-2.4968206882476807
1663861824514922000,10.896921875,-9.425592422485352,-1.0458425283432007,-2.496962547302246
1663861824524809700,10.906809814453124,-9.42543888092041,-1.0457804203033447,-2.4975640773773193
1663861824534697500,10.916697509765624,-9.425280570983887,-1.0458334684371948,-2.4981415271759033
1663861824544585000,10.9265849609375,-9.425179481506348,-1.045846939086914,-2.4985158443450928
1663861824554472700,10.93647265625,-9.425097465515137,-1.045965313911438,-2.4987778663635254
1663861824564330000,10.946330078125,-9.425039291381836,-1.045859694480896,-2.4990410804748535
1663861824574187000,10.95618701171875,-9.42503547668457,-1.0456498861312866,-2.499140739440918
1663861824584105200,10.966105224609375,-9.425065040588379,-1.0452646017074585,-2.4991886615753174
1663861824593962500,10.97596240234375,-9.425010681152344,-1.0451459884643555,-2.499447822570801
1663861824603850200,10.985850341796874,-9.424967765808105,-1.0448163747787476,-2.499746799468994
1663861824613738000,10.995738037109374,-9.424980163574219,-1.0443077087402344,-2.499912977218628
1663861824623625500,11.00562548828125,-9.425082206726074,-1.0436208248138428,-2.499811887741089
1663861824633482800,11.015482666015625,-9.425166130065918,-1.0430296659469604,-2.499743938446045
1663861824643401000,11.02540087890625,-9.425206184387207,-1.0428752899169922,-2.4996588230133057
1663861824653288700,11.035288818359374,-9.425374984741211,-1.0426274538040161,-2.4991250038146973
1663861824663176400,11.045176513671874,-9.42556381225586,-1.042387843132019,-2.4985103607177734
1663861824673033500,11.055033447265625,-9.425703048706055,-1.042625904083252,-2.497889995574951
1663861824682921200,11.064921142578125,-9.425806999206543,-1.0426576137542725,-2.4974822998046875
1663861824692778500,11.074778564453124,-9.425979614257812,-1.0422672033309937,-2.4969935417175293
1663861824702696700,11.08469677734375,-9.4262056350708,-1.0419256687164307,-2.4962804317474365
1663861824712553700,11.0945537109375,-9.42641830444336,-1.0418102741241455,-2.495527744293213
1663861824722441500,11.10444140625,-9.426444053649902,-1.0421850681304932,-2.495272397994995
1663861824732329200,11.1143291015625,-9.426617622375488,-1.0421855449676514,-2.4946177005767822
1663861824742217000,11.124217041015624,-9.42671012878418,-1.0421680212020874,-2.494274616241455
1663861824752104400,11.1341044921875,-9.426738739013672,-1.0420619249343872,-2.494213104248047
1663861824761961700,11.143961669921875,-9.426743507385254,-1.042151927947998,-2.494154214859009
1663861824771880000,11.1538798828125,-9.426777839660645,-1.0421732664108276,-2.494019031524658
1663861824781767700,11.163767578125,-9.426837921142578,-1.0419789552688599,-2.4938719272613525
1663861824791655400,11.173655517578124,-9.426824569702148,-1.0418527126312256,-2.4939723014831543
1663861824801543200,11.183543212890624,-9.426833152770996,-1.0418319702148438,-2.493952751159668
1663861824811430700,11.1934306640625,-9.42677116394043,-1.0422804355621338,-2.4939980506896973
1663861824821288000,11.203287841796875,-9.426690101623535,-1.0421549081802368,-2.494356393814087
1663861824831175700,11.21317578125,-9.426599502563477,-1.0424646139144897,-2.494572162628174
1663861824841032700,11.22303271484375,-9.426526069641113,-1.0427334308624268,-2.4947328567504883
1663861824850920400,11.23292041015625,-9.426562309265137,-1.0425846576690674,-2.494662046432495
1663861824860808200,11.24280810546875,-9.426552772521973,-1.0425535440444946,-2.49470853805542
1663861824870665500,11.25266552734375,-9.426549911499023,-1.0429112911224365,-2.4945695400238037
1663861824880553000,11.262552978515625,-9.426563262939453,-1.0430532693862915,-2.4944562911987305
1663861824890440700,11.272440673828125,-9.426526069641113,-1.0431971549987793,-2.4945404529571533
1663861824900328400,11.282328369140625,-9.426531791687012,-1.0432779788970947,-2.4944851398468018
1663861824910216200,11.29221630859375,-9.426411628723145,-1.0434179306030273,-2.4948811531066895
1663861824920073200,11.3020732421875,-9.42633056640625,-1.0436218976974487,-2.4951012134552
1663861824929991400,11.311991455078125,-9.426283836364746,-1.0435227155685425,-2.495319366455078
1663861824939879200,11.321879150390625,-9.426338195800781,-1.0432212352752686,-2.4952378273010254
1663861824949767000,11.331766845703125,-9.426350593566895,-1.0433006286621094,-2.4951629638671875
1663861824959654700,11.341654541015625,-9.426445960998535,-1.043044924736023,-2.4949071407318115
1663861824969511700,11.35151171875,-9.426453590393066,-1.0431503057479858,-2.4948337078094482
1663861824979399400,11.3613994140625,-9.426519393920898,-1.0433542728424072,-2.494501829147339
1663861824989287200,11.371287109375,-9.426544189453125,-1.0435456037521362,-2.494324207305908
1663861824999175000,11.3811748046875,-9.42663860321045,-1.043845534324646,-2.4938466548919678
1663861825009062700,11.391062744140624,-9.426676750183105,-1.0441501140594482,-2.4935731887817383
1663861825018950400,11.400950439453124,-9.426739692687988,-1.0444368124008179,-2.493213653564453
1663861825028838000,11.410837890625,-9.426796913146973,-1.0446281433105469,-2.4929192066192627
1663861825038725600,11.4207255859375,-9.426837921142578,-1.0448791980743408,-2.4926581382751465
1663861825048613400,11.43061328125,-9.42703628540039,-1.044825792312622,-2.4919326305389404
1663861825058501000,11.440501220703124,-9.427106857299805,-1.0447548627853394,-2.4916932582855225
1663861825068388900,11.450388916015624,-9.427108764648438,-1.0443967580795288,-2.491835117340088
1663861825078246000,11.460245849609375,-9.427114486694336,-1.0439420938491821,-2.4920051097869873
1663861825088133600,11.470133544921875,-9.427205085754395,-1.0435179471969604,-2.491840124130249
1663861825098021400,11.480021484375,-9.42722225189209,-1.0435636043548584,-2.4917571544647217
1663861825107878400,11.48987841796875,-9.427223205566406,-1.0441815853118896,-2.4914920330047607
1663861825117735700,11.499735595703125,-9.427255630493164,-1.0452075004577637,-2.4909400939941406
1663861825127623400,11.50962353515625,-9.42729663848877,-1.0458719730377197,-2.4905054569244385
1663861825137541600,11.519541748046874,-9.427335739135742,-1.0468462705612183,-2.4899487495422363
1663861825147429400,11.529429443359374,-9.427373886108398,-1.0478243827819824,-2.489394187927246
1663861825157316900,11.53931689453125,-9.42737865447998,-1.0484797954559326,-2.4890942573547363
1663861825167174100,11.549174072265625,-9.427263259887695,-1.0488277673721313,-2.489386796951294
1663861825177031400,11.559031494140624,-9.427261352539062,-1.0488247871398926,-2.4894003868103027
1663861825186949600,11.56894970703125,-9.427289009094238,-1.0490273237228394,-2.4892072677612305
1663861825196837000,11.578837158203125,-9.427294731140137,-1.049271583557129,-2.489084243774414
1663861825206724900,11.588724853515625,-9.427203178405762,-1.0497509241104126,-2.4892287254333496
1663861825216582100,11.59858203125,-9.427177429199219,-1.0499621629714966,-2.4892354011535645
1663861825226470000,11.608469970703124,-9.427141189575195,-1.0501457452774048,-2.4892964363098145
1663861825236357400,11.618357421875,-9.427108764648438,-1.0505342483520508,-2.4892523288726807
1663861825246245000,11.6282451171875,-9.427031517028809,-1.0511704683303833,-2.489274501800537
1663861825256132900,11.6381328125,-9.427057266235352,-1.0514284372329712,-2.4890692234039307
1663861825266020600,11.6480205078125,-9.427000045776367,-1.051452875137329,-2.4892818927764893
1663861825275908400,11.657908447265624,-9.426850318908691,-1.0515525341033936,-2.489802360534668
1663861825285796000,11.667796142578124,-9.426644325256348,-1.0518287420272827,-2.490467071533203
1663861825295683600,11.67768359375,-9.426605224609375,-1.0517609119415283,-2.4906439781188965
1663861825305571300,11.6875712890625,-9.426639556884766,-1.0513339042663574,-2.4906952381134033
1663861825315428600,11.6974287109375,-9.42676067352295,-1.0507837533950806,-2.4904685020446777
1663861825325316400,11.70731640625,-9.426902770996094,-1.050449013710022,-2.490072250366211
1663861825335173400,11.71717333984375,-9.427059173583984,-1.050130009651184,-2.4896154403686523
1663861825345061000,11.72706103515625,-9.427092552185059,-1.0503898859024048,-2.489375591278076
1663861825354918400,11.73691845703125,-9.427214622497559,-1.0506465435028076,-2.4888055324554443
1663861825364836600,11.746836669921874,-9.427399635314941,-1.050645112991333,-2.4881057739257812
1663861825374724000,11.75672412109375,-9.427489280700684,-1.0508955717086792,-2.487658977508545
1663861825384611800,11.76661181640625,-9.427618980407715,-1.0512479543685913,-2.4870197772979736
1663861825394499600,11.77649951171875,-9.427701950073242,-1.051599383354187,-2.486555576324463
1663861825404387300,11.78638720703125,-9.427803039550781,-1.0515737533569336,-2.4861807823181152
1663861825414244400,11.796244384765625,-9.428006172180176,-1.0516713857650757,-2.4853734970092773
1663861825424132000,11.806132080078125,-9.428145408630371,-1.051784873008728,-2.4847965240478516
1663861825433989400,11.8159892578125,-9.428220748901367,-1.0515589714050293,-2.4846062660217285
1663861825443907600,11.825907470703125,-9.428301811218262,-1.051237940788269,-2.4844319820404053
1663861825453795300,11.83579541015625,-9.428396224975586,-1.0510622262954712,-2.484149217605591
1663861825463682800,11.845682861328125,-9.428393363952637,-1.0515284538269043,-2.483964681625366
1663861825473540000,11.8555400390625,-9.428444862365723,-1.0519342422485352,-2.483597755432129
1663861825483427800,11.865427734375,-9.428508758544922,-1.0521029233932495,-2.4832828044891357
1663861825493285000,11.87528515625,-9.428513526916504,-1.0520416498184204,-2.4832923412323
1663861825503203300,11.885203369140624,-9.428570747375488,-1.0521384477615356,-2.4830336570739746
1663861825513090800,11.8950908203125,-9.428564071655273,-1.0523579120635986,-2.4829633235931396
1663861825522978600,11.904978515625,-9.428479194641113,-1.0528101921081543,-2.483092784881592
1663861825532866300,11.9148662109375,-9.428459167480469,-1.0530283451080322,-2.4830782413482666
1663861825542754000,11.924754150390624,-9.428547859191895,-1.0527684688568115,-2.4828526973724365
1663861825552641800,11.934641845703124,-9.428482055664062,-1.0529290437698364,-2.483035087585449
1663861825562529300,11.944529296875,-9.428492546081543,-1.0528709888458252,-2.483018159866333
1663861825572417000,11.9544169921875,-9.428508758544922,-1.052662968635559,-2.4830446243286133
1663861825582274300,11.9642744140625,-9.428472518920898,-1.05277419090271,-2.48313570022583
1663861825592162000,11.974162109375,-9.428364753723145,-1.0530353784561157,-2.4834322929382324
1663861825602049500,11.984049560546875,-9.428325653076172,-1.052878975868225,-2.4836490154266357
1663861825611937300,11.993937255859375,-9.428278923034668,-1.0526660680770874,-2.4839141368865967
1663861825621825000,12.003824951171875,-9.428252220153809,-1.0524994134902954,-2.4840855598449707
1663861825631712800,12.013712646484375,-9.428311347961426,-1.0526814460754395,-2.4837870597839355
1663861825641600500,12.0236005859375,-9.428297996520996,-1.0526102781295776,-2.483863115310669
1663861825651457500,12.03345751953125,-9.428300857543945,-1.0527997016906738,-2.4837758541107178
1663861825661314800,12.043314697265625,-9.428292274475098,-1.0530550479888916,-2.483696460723877
1663861825671202600,12.05320263671875,-9.428276062011719,-1.0532227754592896,-2.483690023422241
1663861825681090000,12.063090087890625,-9.428271293640137,-1.053308367729187,-2.4836716651916504
1663861825690977800,12.072977783203125,-9.428296089172363,-1.0535534620285034,-2.4834747314453125
1663861825700865500,12.082865478515625,-9.428251266479492,-1.0539685487747192,-2.483468532562256
1663861825710722800,12.092722900390624,-9.42818546295166,-1.0538924932479858,-2.4837539196014404
1663861825720610300,12.1026103515625,-9.428165435791016,-1.0537546873092651,-2.4838833808898926
1663861825730498000,12.112498046875,-9.428067207336426,-1.0536690950393677,-2.4842944145202637
1663861825740355300,12.122355224609375,-9.428065299987793,-1.0536692142486572,-2.484304666519165
1663861825750273500,12.1322734375,-9.42802906036377,-1.0537368059158325,-2.4844088554382324
1663861825760130800,12.142130859375,-9.428028106689453,-1.0537950992584229,-2.4843909740448
1663861825770049000,12.152049072265624,-9.427982330322266,-1.0537655353546143,-2.484579563140869
1663861825779936500,12.1619365234375,-9.428017616271973,-1.053307294845581,-2.4846372604370117
1663861825789824300,12.17182421875,-9.428126335144043,-1.0526952743530273,-2.4844844341278076
1663861825799712000,12.1817119140625,-9.428089141845703,-1.0527608394622803,-2.4845974445343018
1663861825809569300,12.1915693359375,-9.427989959716797,-1.053135871887207,-2.484812021255493
1663861825819456800,12.201456787109375,-9.427983283996582,-1.0536832809448242,-2.4846065044403076
1663861825829344500,12.211344482421875,-9.428086280822754,-1.0539283752441406,-2.4841089248657227
1663861825839232300,12.221232177734375,-9.428105354309082,-1.054486870765686,-2.48380184173584
1663861825849120000,12.2311201171875,-9.4281005859375,-1.0553759336471558,-2.4834423065185547
1663861825858977000,12.24097705078125,-9.427952766418457,-1.0560048818588257,-2.483736991882324
1663861825868864800,12.25086474609375,-9.4277982711792,-1.0564005374908447,-2.4841561317443848
1663861825878752500,12.26075244140625,-9.42791748046875,-1.056439995765686,-2.483685255050659
1663861825888640300,12.27064013671875,-9.428102493286133,-1.0566779375076294,-2.4828832149505615
1663861825898528000,12.280528076171874,-9.428053855895996,-1.056933879852295,-2.4829587936401367
1663861825908385000,12.290385009765625,-9.427976608276367,-1.057324767112732,-2.4830849170684814
1663861825918272800,12.300272705078125,-9.427895545959473,-1.0576084852218628,-2.483271598815918
1663861825928160500,12.310160400390625,-9.42785358428955,-1.0575861930847168,-2.4834399223327637
1663861825938048300,12.32004833984375,-9.42786693572998,-1.058130145072937,-2.4831557273864746
1663861825947935700,12.329935791015625,-9.427870750427246,-1.0584317445755005,-2.483013868331909
1663861825957823500,12.339823486328125,-9.42785930633545,-1.0585983991622925,-2.48298716545105
1663861825967680800,12.3496806640625,-9.427813529968262,-1.0587711334228516,-2.483086109161377
1663861825977568500,12.359568603515624,-9.427765846252441,-1.058813214302063,-2.4832472801208496
1663861825987456300,12.369456298828124,-9.427652359008789,-1.0587761402130127,-2.4837000370025635
1663861825997343700,12.37934375,-9.427582740783691,-1.0585678815841675,-2.4840478897094727
1663861826007231500,12.3892314453125,-9.427556037902832,-1.0583299398422241,-2.4842498302459717
1663861826017119200,12.399119140625,-9.42758846282959,-1.0582345724105835,-2.484173536300659
1663861826027007000,12.409007080078124,-9.427553176879883,-1.058510661125183,-2.484189033508301
1663861826036894700,12.418894775390624,-9.427531242370605,-1.0584954023361206,-2.4842755794525146
1663861826046782200,12.4287822265625,-9.427582740783691,-1.0584505796432495,-2.484097719192505
1663861826056639500,12.438639404296875,-9.427458763122559,-1.058850884437561,-2.4844002723693848
1663861826066527200,12.44852734375,-9.42743968963623,-1.0591323375701904,-2.4843523502349854
1663861826076415000,12.4584150390625,-9.427491188049316,-1.0592538118362427,-2.4841055870056152
1663861826086302500,12.468302490234375,-9.427542686462402,-1.0594359636306763,-2.4838335514068604
1663861826096190200,12.478190185546875,-9.427570343017578,-1.0599212646484375,-2.483522415161133
1663861826106078000,12.488077880859375,-9.427600860595703,-1.0600295066833496,-2.483358860015869
1663861826115935200,12.497935302734374,-9.427661895751953,-1.0600560903549194,-2.4831125736236572
1663861826125822700,12.50782275390625,-9.427728652954102,-1.06058931350708,-2.482632875442505
1663861826135710500,12.51771044921875,-9.42768383026123,-1.0609804391860962,-2.4826362133026123
1663861826145598200,12.52759814453125,-9.427728652954102,-1.0607539415359497,-2.4825620651245117
1663861826155455500,12.53745556640625,-9.427735328674316,-1.06082022190094,-2.482511043548584
1663861826165343000,12.547343017578125,-9.427736282348633,-1.0608476400375366,-2.4824929237365723
1663861826175200300,12.5572001953125,-9.427728652954102,-1.0607776641845703,-2.4825546741485596
1663861826185088000,12.567087890625,-9.427807807922363,-1.060698390007019,-2.482287645339966
1663861826195006200,12.577006103515625,-9.42782211303711,-1.0608412027359009,-2.4821743965148926
1663861826204863500,12.586863525390624,-9.427816390991211,-1.06088387966156,-2.482177257537842
1663861826214751000,12.5967509765625,-9.42775821685791,-1.0610952377319336,-2.4823062419891357
1663861826224638700,12.606638671875,-9.427783012390137,-1.0612379312515259,-2.4821531772613525
1663861826234526500,12.6165263671875,-9.427827835083008,-1.06126070022583,-2.4819700717926025
1663861826244414200,12.626414306640624,-9.4279203414917,-1.061082363128662,-2.4816956520080566
1663861826254271200,12.636271240234375,-9.427931785583496,-1.0610551834106445,-2.481659173965454
1663861826264189400,12.646189453125,-9.427960395812988,-1.0610244274139404,-2.4815666675567627
1663861826274077200,12.6560771484375,-9.427886009216309,-1.0608060359954834,-2.481945276260376
1663861826283965000,12.66596484375,-9.427830696105957,-1.0608162879943848,-2.482146978378296
1663861826293852700,12.675852783203124,-9.427837371826172,-1.060530662536621,-2.4822487831115723
1663861826303740400,12.685740478515624,-9.427814483642578,-1.0601296424865723,-2.4825024604797363
1663861826313628000,12.6956279296875,-9.427763938903809,-1.0601587295532227,-2.48268461227417
1663861826323515600,12.705515625,-9.427729606628418,-1.060205340385437,-2.482792854309082
1663861826333373000,12.715373046875,-9.42785930633545,-1.0601452589035034,-2.4823248386383057
1663861826343230000,12.72522998046875,-9.427939414978027,-1.0600379705429077,-2.4820680618286133
1663861826353087200,12.735087158203125,-9.427851676940918,-1.0598918199539185,-2.482464551925659
