time,seconds_elapsed,z,y,x
1663861813871202800,0.253202880859375,-0.9930877685546875,-1.4583892822265625,-0.2859039306640625
1663861813881029600,0.263029541015625,-1.0048065185546875,-1.439208984375,0.095458984375
1663861813890917000,0.272917236328125,-1.1092071533203125,-1.2037811279296875,0.4352874755859375
1663861813900774400,0.2827744140625,-1.22637939453125,-0.8202972412109375,0.6504669189453125
1663861813910631700,0.292631591796875,-1.28497314453125,-1.0812835693359375,0.6856231689453125
1663861813920488700,0.30248876953125,-1.31585693359375,-1.78009033203125,0.687744140625
1663861813930407000,0.312406982421875,-1.410675048828125,-2.206207275390625,0.7772369384765625
1663861813940264200,0.32226416015625,-1.5384979248046875,-2.34149169921875,0.9029388427734375
1663861813950182400,0.332182373046875,-1.63543701171875,-2.2679901123046875,0.96258544921875
1663861813960070100,0.342070068359375,-1.662078857421875,-1.9707794189453125,0.9466094970703125
1663861813969957600,0.35195751953125,-1.6002960205078125,-1.534027099609375,0.8795013427734375
1663861813979845400,0.361845458984375,-1.498016357421875,-1.1505279541015625,0.7655181884765625
1663861813989702700,0.37170263671875,-1.467132568359375,-1.0578460693359375,0.5801544189453125
1663861813999559700,0.3815595703125,-1.524658203125,-1.099395751953125,0.3553924560546875
1663861814009478000,0.391477783203125,-1.47991943359375,-1.0035247802734375,0.2062530517578125
1663861814019365600,0.40136572265625,-1.180572509765625,-0.9214935302734375,0.1838836669921875
1663861814029253400,0.41125341796875,-0.8471527099609375,-1.0035247802734375,0.2552490234375
1663861814039141000,0.42114111328125,-0.6415557861328125,-1.1579742431640625,0.439544677734375
1663861814049028900,0.43102880859375,-0.5360870361328125,-1.177154541015625,0.687744140625
1663861814058916600,0.44091650390625,-0.5723114013671875,-1.17608642578125,0.817718505859375
1663861814068804000,0.45080419921875,-0.7874908447265625,-1.268768310546875,0.7548675537109375
1663861814078691800,0.46069189453125,-1.0410308837890625,-1.360382080078125,0.587615966796875
1663861814088549000,0.470549072265625,-1.1156005859375,-1.233612060546875,0.4118499755859375
1663861814098436900,0.480436767578125,-0.985626220703125,-0.8628997802734375,0.223297119140625
1663861814108324400,0.490324462890625,-0.7747039794921875,-0.8959197998046875,0.19879150390625
1663861814118212000,0.500212158203125,-0.58935546875,-1.144134521484375,0.2989349365234375
1663861814128099800,0.510099853515625,-0.5243682861328125,-1.3199005126953125,0.3447418212890625
1663861814137987600,0.519987548828125,-0.57763671875,-1.2176361083984375,0.246734619140625
1663861814147844600,0.5298447265625,-0.7054595947265625,-1.0024566650390625,0.0453948974609375
1663861814157732400,0.539732421875,-0.8077392578125,-0.6679534912109375,-0.152740478515625
1663861814167620000,0.5496201171875,-0.7960205078125,-0.2045745849609375,-0.2848358154296875
1663861814177507800,0.5595078125,-0.656463623046875,-0.037322998046875,-0.3189239501953125
1663861814187395600,0.5693955078125,-0.53289794921875,-0.1108245849609375,-0.289093017578125
1663861814197283000,0.579282958984375,-0.5371551513671875,-0.1896514892578125,-0.2613983154296875
1663861814207140400,0.589140380859375,-0.6074676513671875,-0.3824615478515625,-0.2432861328125
1663861814217028000,0.599028076171875,-0.62237548828125,-0.48260498046875,-0.2368927001953125
1663861814226885000,0.608885009765625,-0.5265045166015625,-0.3079071044921875,-0.2613983154296875
1663861814236772900,0.61877294921875,-0.3656463623046875,-0.082061767578125,-0.32318115234375
1663861814246630100,0.628630126953125,-0.222900390625,0.08837890625,-0.3849639892578125
1663861814256548400,0.63854833984375,-0.122772216796875,0.0937042236328125,-0.38177490234375
1663861814266405400,0.6484052734375,-0.0812225341796875,-0.105499267578125,-0.2784423828125
1663861814276293000,0.658293212890625,-0.0748291015625,-0.4293365478515625,-0.096282958984375
1663861814286180900,0.668180908203125,-0.031158447265625,-0.7361297607421875,0.0901336669921875
1663861814296068600,0.678068603515625,-0.0013275146484375,-0.9300079345703125,0.188140869140625
1663861814305956400,0.687956298828125,-0.0130462646484375,-0.9204254150390625,0.1721649169921875
1663861814315844000,0.697843994140625,-0.0119781494140625,-0.7957916259765625,0.095458984375
1663861814325731600,0.707731689453125,0.0210418701171875,-0.65411376953125,0.0368804931640625
1663861814335619300,0.717619384765625,0.0913543701171875,-0.6487884521484375,0.0475311279296875
1663861814345507000,0.727507080078125,0.2213134765625,-0.788330078125,0.17535400390625
1663861814355394800,0.737394775390625,0.4524688720703125,-1.0003204345703125,0.4225006103515625
1663861814365282600,0.747282470703125,0.7646026611328125,-1.3092498779296875,0.6984100341796875
1663861814375170000,0.757170166015625,1.0266571044921875,-1.3848876953125,0.9135894775390625
1663861814385057800,0.767057861328125,1.1970977783203125,-1.1483917236328125,1.031829833984375
1663861814394915000,0.7769150390625,1.315338134765625,-0.8874053955078125,1.0360870361328125
1663861814404802800,0.786802734375,1.3877716064453125,-0.8096466064453125,0.951934814453125
1663861814414690300,0.796690185546875,1.463409423828125,-1.0493316650390625,0.829437255859375
1663861814424578000,0.806578125,1.5038909912109375,-1.544677734375,0.7612457275390625
1663861814434465800,0.8164658203125,1.4996337890625,-2.0751800537109375,0.7996063232421875
1663861814444324600,0.82632470703125,1.4921722412109375,-2.58331298828125,0.9242401123046875
1663861814454212400,0.83621240234375,1.5518341064453125,-3.073333740234375,1.090423583984375
1663861814464100000,0.84610009765625,1.6658172607421875,-3.49517822265625,1.2640533447265625
1663861814473987800,0.85598779296875,1.7563629150390625,-3.9084930419921875,1.44195556640625
1663861814483875600,0.86587548828125,1.728668212890625,-4.4166259765625,1.6177215576171875
1663861814493763000,0.87576318359375,1.5731353759765625,-5.0951995849609375,1.7476806640625
1663861814503650800,0.88565087890625,1.46661376953125,-5.6448822021484375,1.7913665771484375
1663861814513538600,0.89553857421875,1.6072235107421875,-5.4477996826171875,1.7455596923828125
1663861814523395800,0.905395751953125,2.059967041015625,-4.5103759765625,1.626251220703125
1663861814533283600,0.91528369140625,2.7151031494140625,-3.4163360595703125,1.4153289794921875
1663861814543171000,0.925171142578125,3.336151123046875,-2.7601318359375,1.008392333984375
1663861814553058800,0.935058837890625,3.7867584228515625,-2.71539306640625,0.3979949951171875
1663861814562946600,0.944946533203125,4.145751953125,-3.1968994140625,-0.1229095458984375
1663861814572834300,0.954834228515625,4.5462799072265625,-3.8360595703125,-0.31146240234375
1663861814582691300,0.96469140625,4.9447021484375,-4.1268768310546875,-0.2709808349609375
1663861814592579000,0.9745791015625,5.248291015625,-4.0384521484375,-0.17938232421875
1663861814602466800,0.984466796875,5.399566650390625,-3.8307342529296875,-0.14208984375
1663861814612354600,0.9943544921875,5.52313232421875,-3.801971435546875,-0.145294189453125
1663861814622242300,1.0042421875,5.7159423828125,-3.903167724609375,-0.0781707763671875
1663861814632129800,1.0141298828125,5.7862548828125,-3.947906494140625,0.0901336669921875
1663861814641987000,1.023987060546875,5.5764007568359375,-3.700775146484375,0.361785888671875
1663861814651874800,1.033874755859375,5.18438720703125,-3.12872314453125,0.657928466796875
1663861814661762600,1.043762451171875,4.773193359375,-2.478912353515625,0.8592529296875
1663861814671650000,1.053650146484375,4.440826416015625,-2.147613525390625,0.9530029296875
1663861814681537800,1.063537841796875,4.267181396484375,-2.2328338623046875,1.03076171875
1663861814691425500,1.073425537109375,4.191558837890625,-2.4128570556640625,1.1830902099609375
1663861814701313300,1.083313232421875,4.041351318359375,-2.2615966796875,1.4249114990234375
1663861814711170300,1.09317041015625,3.72283935546875,-1.9824981689453125,1.633697509765625
1663861814721058000,1.10305810546875,3.2828826904296875,-1.8876953125,1.7540740966796875
1663861814730915300,1.112915283203125,2.76409912109375,-1.80352783203125,1.861663818359375
1663861814740803000,1.122802978515625,2.2581024169921875,-1.5265655517578125,2.0054779052734375
1663861814750690600,1.132690673828125,1.8714141845703125,-1.2506561279296875,2.1535491943359375
1663861814760578300,1.142578369140625,1.577392578125,-1.19952392578125,2.32293701171875
1663861814770466000,1.152466064453125,1.2780609130859375,-1.2751617431640625,2.52532958984375
1663861814780353800,1.162353759765625,0.8871002197265625,-1.31671142578125,2.6691436767578125
1663861814790211000,1.172211181640625,0.4801788330078125,-1.3987274169921875,2.6776580810546875
1663861814800098600,1.1820986328125,0.1691131591796875,-1.3976593017578125,2.6212005615234375
1663861814809986300,1.191986328125,-0.0205078125,-1.33587646484375,2.573272705078125
1663861814819874000,1.2018740234375,-0.0918731689453125,-1.3199005126953125,2.4954986572265625
1663861814829761800,1.21176171875,-0.0396728515625,-1.4328155517578125,2.31121826171875
1663861814839649500,1.2216494140625,0.07537841796875,-1.567047119140625,2.106689453125
1663861814849537000,1.231537109375,0.0498046875,-1.494598388671875,1.577239990234375
1663861814859424800,1.2414248046875,-0.120635986328125,-1.303924560546875,0.39373779296875
1663861814869312500,1.2513125,-0.005584716796875,-0.662628173828125,-0.52984619140625
1663861814879200300,1.2612001953125,0.2362213134765625,-0.027740478515625,-0.90802001953125
1663861814889057300,1.271057373046875,0.2287750244140625,0.2875823974609375,-0.949554443359375
1663861814898945000,1.280945068359375,0.1041412353515625,0.2620086669921875,-0.7759246826171875
1663861814908832800,1.290832763671875,0.00506591796875,-0.1544952392578125,-0.5277099609375
1663861814918720500,1.300720458984375,0.24688720703125,-0.8394622802734375,-0.737579345703125
1663861814928608300,1.310608154296875,0.939300537109375,-1.1388092041015625,-1.2020263671875
1663861814938495700,1.320495849609375,1.785125732421875,-0.643463134765625,-1.212677001953125
1663861814948353000,1.33035302734375,2.1750030517578125,-0.1001739501953125,-0.9005584716796875
1663861814958240800,1.34024072265625,1.806427001953125,-0.5348052978515625,0.2147674560546875
1663861814968128500,1.35012841796875,0.847686767578125,-1.9111175537109375,1.4984130859375
1663861814978016000,1.36001611328125,0.105194091796875,-2.944427490234375,2.34210205078125
1663861814987903700,1.36990380859375,-0.052459716796875,-2.5875701904296875,1.8797760009765625
1663861814997791500,1.37979150390625,0.1861572265625,-1.0930023193359375,0.734619140625
1663861815007679200,1.38967919921875,0.081756591796875,0.0798492431640625,0.053924560546875
1663861815017536500,1.39953662109375,-0.3187713623046875,0.26947021484375,-0.2944183349609375
1663861815027424000,1.409424072265625,-0.4774932861328125,0.348297119140625,-0.473388671875
1663861815037311700,1.419311767578125,-0.095062255859375,0.6401824951171875,-0.542633056640625
1663861815047199500,1.429199462890625,0.7283782958984375,0.815948486328125,-0.561798095703125
1663861815057056800,1.439056884765625,1.2865753173828125,0.8894500732421875,-0.3871002197265625
1663861815066913800,1.448913818359375,1.6306610107421875,-0.491119384765625,0.030487060546875
1663861815076801500,1.458801513671875,2.146240234375,-2.3681182861328125,0.5577850341796875
1663861815086689300,1.468689208984375,2.4487762451171875,-3.227783203125,0.8826904296875
1663861815096546300,1.47854638671875,2.55743408203125,-3.6038360595703125,0.801727294921875
1663861815106434000,1.48843408203125,2.7939300537109375,-3.9542999267578125,0.4459381103515625
1663861815116352300,1.498352294921875,3.1113739013671875,-3.8296661376953125,0.3319549560546875
1663861815126209500,1.50820947265625,2.9920654296875,-2.149749755859375,0.91571044921875
1663861815136097300,1.51809716796875,2.353973388671875,0.02978515625,1.931976318359375
1663861815145984800,1.52798486328125,1.8341217041015625,-0.5326690673828125,2.569000244140625
1663861815155872500,1.53787255859375,2.134521484375,-1.3976593017578125,1.8701934814453125
1663861815165760300,1.54776025390625,2.2112274169921875,-1.9143218994140625,0.620635986328125
1663861815175648000,1.55764794921875,1.683929443359375,-1.7747650146484375,0.0592498779296875
1663861815185535700,1.56753564453125,1.5752716064453125,-0.7499847412109375,0.4192962646484375
1663861815195423200,1.57742333984375,1.2759246826171875,-0.38885498046875,0.9785614013671875
1663861815205311000,1.58731103515625,1.090576171875,-1.1856842041015625,0.599334716796875
1663861815215198700,1.59719873046875,1.124664306640625,-0.3185577392578125,-0.065399169921875
1663861815225086500,1.60708642578125,1.134246826171875,1.0950469970703125,-0.439300537109375
1663861815234974200,1.61697412109375,0.873260498046875,1.4977264404296875,-0.77911376953125
1663861815244862000,1.626862060546875,0.5526123046875,1.592529296875,-1.0976409912109375
1663861815254749400,1.63674951171875,0.2095947265625,1.4625701904296875,-1.18072509765625
1663861815264606700,1.646606689453125,-0.075897216796875,0.999176025390625,-1.156219482421875
1663861815274494500,1.656494384765625,0.039154052734375,0.5368499755859375,-1.0944366455078125
1663861815284382200,1.66638232421875,0.196807861328125,0.4708099365234375,-0.805755615234375
1663861815294269700,1.676269775390625,0.3054656982421875,0.2332611083984375,-0.3668670654296875
1663861815304157400,1.686157470703125,0.2937469482421875,-0.230133056640625,0.0347442626953125
1663861815314045200,1.696045166015625,0.4567413330078125,-0.6796722412109375,0.3511199951171875
1663861815323902500,1.70590234375,0.668731689453125,-1.188873291015625,0.531158447265625
1663861815333790000,1.7157900390625,0.82318115234375,-1.5031280517578125,0.756988525390625
1663861815343677700,1.725677734375,0.8519439697265625,-1.30499267578125,0.8571319580078125
1663861815353565400,1.7355654296875,0.73583984375,-0.8415985107421875,0.6483306884765625
1663861815363453200,1.745453125,0.5941619873046875,-0.483673095703125,0.3564453125
1663861815373341000,1.7553408203125,0.7880401611328125,-0.6466522216796875,0.1913299560546875
1663861815383198000,1.765197998046875,1.3515625,-1.66717529296875,0.0762939453125
1663861815393085700,1.775085693359375,1.82666015625,-2.5151214599609375,0.4107818603515625
1663861815402973400,1.784973388671875,2.3049774169921875,-4.7990570068359375,0.550323486328125
1663861815412861200,1.794861083984375,2.24957275390625,-6.74530029296875,0.97430419921875
1663861815422748700,1.804748779296875,1.9736785888671875,-6.8646087646484375,1.8148040771484375
1663861815432606000,1.81460595703125,1.4612884521484375,-6.3607330322265625,2.2568817138671875
1663861815442493700,1.82449365234375,1.1448974609375,-5.6523284912109375,2.2355804443359375
1663861815452381400,1.83438134765625,1.235443115234375,-3.741241455078125,1.626251220703125
1663861815462269000,1.84426904296875,1.703094482421875,-1.4583892822265625,0.973236083984375
1663861815472156700,1.85415673828125,2.4604949951171875,-0.504974365234375,1.02117919921875
1663861815482014000,1.864013916015625,3.11883544921875,-1.0109710693359375,1.5751190185546875
1663861815491901700,1.873901611328125,3.16143798828125,-2.0986175537109375,2.357025146484375
1663861815501789400,1.88378955078125,3.103912353515625,-2.3148651123046875,2.67340087890625
1663861815511677000,1.893677001953125,3.0794219970703125,-1.522308349609375,2.30694580078125
1663861815521564700,1.903564697265625,3.037872314453125,-1.315643310546875,1.5186614990234375
1663861815531452400,1.913452392578125,3.3286895751953125,-2.2147216796875,0.721832275390625
1663861815541340200,1.923340087890625,3.846405029296875,-2.44268798828125,0.6174468994140625
1663861815551228000,1.933227783203125,3.6131134033203125,-1.63629150390625,0.9902801513671875
1663861815561115400,1.943115478515625,2.81097412109375,-0.504974365234375,1.1628570556640625
1663861815570972700,1.95297265625,2.25384521484375,0.6742706298828125,1.1905517578125
1663861815580860400,1.9628603515625,1.3781890869140625,0.6273956298828125,1.5452880859375
1663861815590748200,1.972748046875,0.302276611328125,0.122467041015625,1.8829803466796875
1663861815600635600,1.9826357421875,-0.0322265625,-0.2365264892578125,1.6656646728515625
1663861815610523400,1.9925234375,0.2266387939453125,-0.7382659912109375,1.1042633056640625
1663861815620411100,2.0024111328125,0.5014801025390625,-1.1121826171875,0.599334716796875
1663861815630268400,2.012268310546875,0.63037109375,-1.1974029541015625,0.265899658203125
1663861815640156000,2.022156005859375,0.516387939453125,-0.905517578125,0.1018524169921875
1663861815650043600,2.032043701171875,0.311859130859375,-0.50604248046875,-0.0121307373046875
1663861815659931400,2.041931396484375,0.2394256591796875,-0.2727508544921875,-0.2411651611328125
1663861815669819100,2.051819091796875,0.3086700439453125,-0.196044921875,-0.5223846435546875
1663861815679707000,2.061706787109375,0.40240478515625,-0.2578277587890625,-0.725860595703125
1663861815689594400,2.071594482421875,0.48443603515625,-0.343048095703125,-0.9026947021484375
1663861815699451600,2.08145166015625,0.51959228515625,-0.401641845703125,-1.0486297607421875
1663861815709339400,2.09133935546875,0.5057373046875,-0.4027099609375,-1.182861328125
1663861815719227100,2.10122705078125,0.474853515625,-0.3878021240234375,-1.34051513671875
1663861815729115000,2.111114990234375,0.4450225830078125,-0.3675537109375,-1.534393310546875
1663861815739002400,2.12100244140625,0.459930419921875,-0.336669921875,-1.76129150390625
1663861815748890000,2.13089013671875,0.4801788330078125,-0.3036346435546875,-2.0308074951171875
1663861815758747400,2.140747314453125,0.1105194091796875,-0.2024383544921875,-2.2939300537109375
1663861815768635100,2.15063525390625,-0.2527313232421875,-0.0224151611328125,-2.3141632080078125
1663861815778522600,2.160522705078125,-0.4572601318359375,0.136322021484375,-2.079803466796875
1663861815788380000,2.1703798828125,-0.564849853515625,0.280120849609375,-1.728271484375
1663861815798237200,2.1802373046875,-0.1153106689453125,0.32806396484375,-1.3788604736328125
1663861815808155400,2.1901552734375,0.97125244140625,0.1277923583984375,-0.9591522216796875
1663861815818043000,2.20004296875,1.3877716064453125,0.4388427734375,-0.73651123046875
1663861815827930600,2.2099306640625,0.9936370849609375,0.7626953125,-0.803619384765625
1663861815837788000,2.219787841796875,0.5920257568359375,0.496368408203125,-0.951690673828125
1663861815847675600,2.229675537109375,0.5291748046875,0.0031585693359375,-1.055023193359375
1663861815857563100,2.239563232421875,0.7411651611328125,-0.2823333740234375,-1.1434326171875
1663861815867451000,2.249450927734375,0.9691314697265625,-0.4730224609375,-1.1999053955078125
1663861815877338600,2.259338623046875,1.0149383544921875,-0.6136322021484375,-1.1881866455078125
1663861815887226400,2.269226318359375,0.8903045654296875,-0.699920654296875,-1.0805816650390625
1663861815897114000,2.279114013671875,0.7646026611328125,-0.7489166259765625,-0.93145751953125
1663861815907001600,2.289001708984375,0.699615478515625,-0.5795440673828125,-0.881378173828125
1663861815916889300,2.298889404296875,0.6016082763671875,-0.2961883544921875,-0.928253173828125
1663861815926777000,2.308777099609375,0.55474853515625,-0.0863189697265625,-1.0017547607421875
1663861815936664800,2.318664794921875,0.5110626220703125,0.087310791015625,-1.0933685302734375
1663861815946522000,2.328522216796875,0.492950439453125,0.1895751953125,-1.1626129150390625
1663861815956409600,2.33840966796875,0.4876251220703125,0.178924560546875,-1.193511962890625
1663861815966297300,2.34829736328125,0.4567413330078125,0.1522979736328125,-1.2062835693359375
1663861815976185000,2.35818505859375,0.49615478515625,0.17041015625,-1.1647491455078125
1663861815986042400,2.36804248046875,0.5558013916015625,0.2630767822265625,-1.1306610107421875
1663861815995929900,2.377929931640625,0.483367919921875,0.2716064453125,-1.09124755859375
1663861816005787100,2.387787109375,0.3076019287109375,0.270538330078125,-1.033721923828125
1663861816015675000,2.3976748046875,-0.031158447265625,0.3088836669921875,-0.94317626953125
1663861816025562600,2.407562744140625,-0.451934814453125,0.3461761474609375,-0.829193115234375
1663861816035450000,2.4174501953125,-0.818389892578125,0.338714599609375,-0.71307373046875
1663861816045307400,2.427307373046875,-1.0857696533203125,0.3451080322265625,-0.6683349609375
1663861816055225600,2.4372255859375,-1.2551422119140625,0.279052734375,-0.7322540283203125
1663861816065113300,2.44711328125,-1.2434234619140625,0.06707763671875,-0.9016265869140625
1663861816074970400,2.456970458984375,-0.99627685546875,-0.253570556640625,-1.0582122802734375
1663861816084858000,2.466858154296875,-0.541412353515625,-0.4314727783203125,-1.1423797607421875
1663861816094745900,2.476745849609375,-0.1163787841796875,-0.2929840087890625,-1.269134521484375
1663861816104633600,2.486633544921875,0.2159881591796875,-0.1907196044921875,-1.4129486083984375
1663861816114521300,2.496521240234375,0.4567413330078125,-0.046905517578125,-1.5610198974609375
1663861816124408800,2.506408935546875,0.401336669921875,-0.0010986328125,-1.64837646484375
1663861816134296600,2.516296630859375,0.369384765625,-0.2397308349609375,-1.6515655517578125
1663861816144184300,2.526184326171875,0.5377044677734375,-0.56463623046875,-1.656890869140625
1663861816154072000,2.536072021484375,0.67938232421875,-0.8639678955078125,-1.7005767822265625
1663861816163959800,2.545959716796875,0.72198486328125,-0.9310760498046875,-1.7921905517578125
1663861816173816800,2.55581689453125,0.6804351806640625,-0.768096923828125,-1.9019012451171875
1663861816183674000,2.565674072265625,0.5930938720703125,-0.5550384521484375,-1.9935150146484375
1663861816193561900,2.575561767578125,0.5004119873046875,-0.4527740478515625,-2.10430908203125
1663861816203449600,2.58544970703125,0.405609130859375,-0.483673095703125,-2.206573486328125
1663861816213337000,2.595337158203125,0.35552978515625,-0.6242828369140625,-2.29925537109375
1663861816223224800,2.605224853515625,0.36724853515625,-0.8533172607421875,-2.345062255859375
1663861816233112600,2.615112548828125,0.389617919921875,-0.947052001953125,-2.3940582275390625
1663861816243000300,2.625000244140625,0.3534088134765625,-0.8969879150390625,-2.4526519775390625
1663861816252888000,2.63488818359375,0.2863006591796875,-0.846923828125,-2.4878082275390625
1663861816262775600,2.644775634765625,0.1861572265625,-0.7595672607421875,-2.5421295166015625
1663861816272663300,2.654663330078125,0.08282470703125,-0.7052459716796875,-2.570892333984375
1663861816282551000,2.664551025390625,0.0348968505859375,-0.6828765869140625,-2.5666351318359375
1663861816292438800,2.674438720703125,0.039154052734375,-0.6168212890625,-2.5762176513671875
1663861816302326500,2.684326416015625,0.1041412353515625,-0.617889404296875,-2.568756103515625
1663861816312183600,2.69418359375,0.1478118896484375,-0.6477203369140625,-2.5389404296875
1663861816322071300,2.7040712890625,0.1009368896484375,-0.575286865234375,-2.528289794921875
1663861816331959000,2.713958984375,0.0306243896484375,-0.4879302978515625,-2.50164794921875
1663861816341846800,2.7238466796875,-0.0279541015625,-0.4751434326171875,-2.4686279296875
1663861816351734300,2.733734375,-0.0343475341796875,-0.52947998046875,-2.43560791015625
1663861816361622000,2.7436220703125,0.0008087158203125,-0.5465240478515625,-2.4089813232421875
1663861816371509800,2.753509765625,0.0796356201171875,-0.479400634765625,-2.3951263427734375
1663861816381367000,2.763366943359375,0.1691131591796875,-0.3441162109375,-2.3610382080078125
1663861816391254500,2.773254638671875,0.253265380859375,-0.18646240234375,-2.352508544921875
1663861816401142300,2.783142333984375,0.3076019287109375,-0.131072998046875,-2.3280181884765625
1663861816411030000,2.793030029296875,0.3097381591796875,-0.1449127197265625,-2.2577056884765625
1663861816420917800,2.802917724609375,0.3076019287109375,-0.1300048828125,-2.192718505859375
1663861816430805500,2.812805419921875,0.3033447265625,-0.08526611328125,-2.12774658203125
1663861816440662500,2.82266259765625,0.28948974609375,-0.0309295654296875,-2.05743408203125
1663861816450550300,2.83255029296875,0.288421630859375,-0.035186767578125,-2.0190887451171875
1663861816460438000,2.84243798828125,0.2969512939453125,-0.0106964111328125,-2.002044677734375
1663861816470325800,2.85232568359375,0.2522125244140625,0.044708251953125,-2.0297393798828125
1663861816480213500,2.862213623046875,0.2021331787109375,0.056427001953125,-2.0861968994140625
1663861816490101000,2.87210107421875,0.11798095703125,0.0393829345703125,-2.114959716796875
1663861816499958300,2.881958251953125,0.025299072265625,0.05108642578125,-2.1085662841796875
1663861816509846000,2.891845947265625,-0.031158447265625,0.054290771484375,-2.0616912841796875
1663861816519733800,2.901733642578125,-0.1217041015625,0.007415771484375,-1.9743499755859375
1663861816529621200,2.911621337890625,-0.2058563232421875,-0.0096282958984375,-1.884857177734375
1663861816539509000,2.921509033203125,-0.269775390625,-0.0330657958984375,-1.7943115234375
1663861816549396700,2.931396728515625,-0.325164794921875,-0.05755615234375,-1.69097900390625
1663861816559254000,2.94125390625,-0.3315582275390625,0.0819854736328125,-1.70269775390625
1663861816569141500,2.9511416015625,-0.24420166015625,0.096893310546875,-1.717620849609375
1663861816579029200,2.961029296875,-0.293212890625,-0.1257476806640625,-1.4928436279296875
1663861816588917000,2.9709169921875,-0.4135894775390625,-0.13958740234375,-1.2659454345703125
1663861816598804700,2.9808046875,-0.4774932861328125,-0.1097564697265625,-1.0944366455078125
1663861816608692500,2.9906923828125,-0.510528564453125,-0.0799407958984375,-0.93890380859375
1663861816618549500,3.000549560546875,-0.533966064453125,-0.05755615234375,-0.7876434326171875
1663861816628437200,3.010437255859375,-0.5265045166015625,-0.058624267578125,-0.66619873046875
1663861816638325000,3.020324951171875,-0.4796295166015625,-0.091644287109375,-0.5948333740234375
1663861816648212700,3.030212646484375,-0.40826416015625,-0.140655517578125,-0.555419921875
1663861816658100500,3.0401005859375,-0.346466064453125,-0.194976806640625,-0.439300537109375
1663861816667988000,3.049988037109375,-0.290008544921875,-0.2727508544921875,-0.2613983154296875
1663861816677875700,3.059875732421875,-0.2410125732421875,-0.3675537109375,-0.0643310546875
1663861816687733000,3.06973291015625,-0.2197113037109375,-0.5124359130859375,0.188140869140625
1663861816697620700,3.079620849609375,-0.190948486328125,-0.6285400390625,0.4555206298828125
1663861816707508200,3.08950830078125,-0.1472625732421875,-0.571014404296875,0.6280975341796875
1663861816717396000,3.09939599609375,-0.122772216796875,-0.3750152587890625,0.734619140625
1663861816727283700,3.10928369140625,-0.099334716796875,-0.1353302001953125,0.793212890625
1663861816737171500,3.11917138671875,-0.0801544189453125,0.1043548583984375,0.7644500732421875
1663861816747028500,3.129028564453125,-0.0748291015625,0.2332611083984375,0.688812255859375
1663861816756916200,3.138916259765625,-0.08441162109375,0.2630767822265625,0.6621856689453125
1663861816766804000,3.148803955078125,-0.0908050537109375,0.2716064453125,0.6568603515625
1663861816776691700,3.158691650390625,-0.0790863037109375,0.290771484375,0.6099853515625
1663861816786579500,3.168579345703125,-0.0695037841796875,0.302490234375,0.531158447265625
1663861816796436500,3.1784365234375,-0.0599212646484375,0.291839599609375,0.4352874755859375
1663861816806324200,3.18832421875,-0.0449981689453125,0.25030517578125,0.3415374755859375
1663861816816212000,3.1982119140625,-0.0258331298828125,0.176788330078125,0.2637786865234375
1663861816826099700,3.208099609375,-0.0023956298828125,0.0819854736328125,0.2041168212890625
1663861816835987200,3.2179873046875,0.0242462158203125,0.009552001953125,0.1359405517578125
1663861816845875000,3.227875,0.0540618896484375,0.0127410888671875,0.0464630126953125
1663861816855762700,3.2377626953125,0.0849609375,0.0809173583984375,-0.039825439453125
1663861816865620000,3.247619873046875,0.1105194091796875,0.165069580078125,-0.098419189453125
1663861816875507500,3.257507568359375,0.130767822265625,0.2289886474609375,-0.13037109375
1663861816885364700,3.26736474609375,0.1371612548828125,0.258819580078125,-0.1463470458984375
1663861816895252500,3.27725244140625,0.1243743896484375,0.2598876953125,-0.14208984375
1663861816905140200,3.28714013671875,0.1126556396484375,0.2417755126953125,-0.1282501220703125
1663861816915028000,3.297028076171875,0.1105194091796875,0.214080810546875,-0.119720458984375
1663861816924885000,3.306885009765625,0.116912841796875,0.20343017578125,-0.1271820068359375
1663861816934772700,3.316772705078125,0.128631591796875,0.21514892578125,-0.1389007568359375
1663861816944660500,3.326660400390625,0.1360931396484375,0.2364501953125,-0.143157958984375
1663861816954548200,3.33654833984375,0.128631591796875,0.25775146484375,-0.1261138916015625
1663861816964435700,3.346435791015625,0.1083984375,0.2875823974609375,-0.0920257568359375
1663861816974323500,3.356323486328125,0.0881500244140625,0.3206024169921875,-0.0440826416015625
1663861816984211200,3.366211181640625,0.0668487548828125,0.35894775390625,0.0017242431640625
1663861816994068500,3.376068359375,0.05938720703125,0.3898468017578125,0.0453948974609375
1663861817003956000,3.3859560546875,0.0668487548828125,0.395172119140625,0.086944580078125
1663861817013843700,3.39584375,0.0849609375,0.39410400390625,0.1114349365234375
1663861817023731500,3.4057314453125,0.097747802734375,0.41009521484375,0.1167755126953125
1663861817033588700,3.415588623046875,0.0913543701171875,0.4367218017578125,0.107177734375
1663861817043476200,3.425476318359375,0.0732421875,0.472930908203125,0.096527099609375
1663861817053364000,3.435364013671875,0.0444793701171875,0.4942474365234375,0.0794830322265625
1663861817063251700,3.445251708984375,0.0199737548828125,0.4942474365234375,0.061370849609375
1663861817073139500,3.455139404296875,0.0029296875,0.4569549560546875,0.0453948974609375
1663861817083027200,3.465027099609375,-0.0119781494140625,0.407958984375,0.03900146484375
1663861817092914700,3.474914794921875,-0.0205078125,0.371734619140625,0.048583984375
1663861817102772000,3.48477197265625,-0.0247650146484375,0.32806396484375,0.0645751953125
1663861817112659700,3.49465966796875,-0.026885986328125,0.26947021484375,0.0773468017578125
1663861817122547500,3.50454736328125,-0.0205078125,0.2172698974609375,0.0699005126953125
1663861817132435000,3.51443505859375,-0.0119781494140625,0.200225830078125,0.048583984375
1663861817142292200,3.524292236328125,-0.0109100341796875,0.1949005126953125,0.028350830078125
1663861817152180000,3.534179931640625,-0.0034637451171875,0.178924560546875,0.0006561279296875
1663861817162067700,3.544067626953125,-0.0013275146484375,0.15869140625,-0.0334320068359375
1663861817171955500,3.55395556640625,-0.0002593994140625,0.1522979736328125,-0.0547332763671875
1663861817181843000,3.563843017578125,-0.0002593994140625,0.1522979736328125,-0.06219482421875
1663861817191730700,3.573730712890625,0.0018768310546875,0.143768310546875,-0.0664520263671875
1663861817201618400,3.583618408203125,0.0018768310546875,0.1405792236328125,-0.063262939453125
1663861817211475700,3.593475830078125,-0.0002593994140625,0.1309814453125,-0.06005859375
1663861817221363200,3.60336328125,-0.0034637451171875,0.1139373779296875,-0.0547332763671875
1663861817231251000,3.6132509765625,-0.0013275146484375,0.0915679931640625,-0.053680419921875
1663861817241138700,3.623138671875,0.01678466796875,0.07452392578125,-0.0568695068359375
1663861817251026400,3.6330263671875,0.0327606201171875,0.0617523193359375,-0.0643310546875
1663861817260914200,3.6429140625,0.0338287353515625,0.0393829345703125,-0.0771026611328125
1663861817270771200,3.652771240234375,0.027435302734375,0.02020263671875,-0.0877685546875
1663861817280689400,3.662689453125,0.0103912353515625,0.0361785888671875,-0.086700439453125
1663861817290546700,3.672546630859375,-0.0087890625,0.09051513671875,-0.07391357421875
1663861817300434400,3.682434326171875,-0.0247650146484375,0.1309814453125,-0.0590057373046875
1663861817310322000,3.692322021484375,-0.0375518798828125,0.1309814453125,-0.051544189453125
1663861817320209700,3.702209716796875,-0.05352783203125,0.122467041015625,-0.053680419921875
1663861817330097400,3.712097412109375,-0.07269287109375,0.12139892578125,-0.053680419921875
1663861817339985200,3.721985107421875,-0.0822906494140625,0.1288604736328125,-0.0440826416015625
1663861817349873000,3.731872802734375,-0.0748291015625,0.1427001953125,-0.02703857421875
1663861817359760400,3.741760498046875,-0.0439300537109375,0.155487060546875,-0.00787353515625
1663861817369648000,3.751648193359375,0.0018768310546875,0.169342041015625,0.014495849609375
1663861817379536000,3.761535888671875,0.0572662353515625,0.1735992431640625,0.0347442626953125
1663861817389393200,3.77139306640625,0.1147918701171875,0.1746673583984375,0.0411376953125
1663861817399281000,3.781281005859375,0.161651611328125,0.1757354736328125,0.0432586669921875
1663861817409168400,3.79116845703125,0.189361572265625,0.155487060546875,0.0443267822265625
1663861817419056000,3.80105615234375,0.212799072265625,0.1160736083984375,0.0453948974609375
1663861817428944000,3.81094384765625,0.2330322265625,0.0724029541015625,0.0464630126953125
1663861817438831600,3.82083154296875,0.2511444091796875,0.040435791015625,0.042205810546875
1663861817448719400,3.83071923828125,0.26605224609375,0.0159454345703125,0.028350830078125
1663861817458606800,3.84060693359375,0.2713775634765625,0.0042266845703125,0.0102386474609375
1663861817468494600,3.85049462890625,0.2713775634765625,-0.0010986328125,0.00384521484375
1663861817478382300,3.86038232421875,0.264984130859375,-0.004302978515625,0.00384521484375
1663861817488270000,3.87027001953125,0.2564697265625,-0.002166748046875,0.00811767578125
1663861817498127000,3.880127197265625,0.24688720703125,0.007415771484375,0.0113067626953125
1663861817508014800,3.890014892578125,0.2298431396484375,0.0127410888671875,0.0177001953125
1663861817517902600,3.899902587890625,0.2064056396484375,0.0159454345703125,0.0219573974609375
1663861817527790300,3.909790283203125,0.1786956787109375,0.021270751953125,0.02728271484375
1663861817537678000,3.919677978515625,0.1499481201171875,0.019134521484375,0.0326080322265625
1663861817547565600,3.929565673828125,0.121185302734375,0.0116729736328125,0.0336761474609375
1663861817557422800,3.9394228515625,0.095611572265625,0.009552001953125,0.0336761474609375
1663861817567310600,3.949310546875,0.0774993896484375,0.0106201171875,0.0315399169921875
1663861817577198300,3.9591982421875,0.062591552734375,0.0116729736328125,0.02728271484375
1663861817587085800,3.9690859375,0.05194091796875,0.0106201171875,0.01983642578125
1663861817596943000,3.978943115234375,0.04766845703125,0.0052947998046875,0.016632080078125
1663861817606830800,3.988830810546875,0.04766845703125,0.0106201171875,0.014495849609375
1663861817616718600,3.998718505859375,0.0466156005859375,0.0233917236328125,0.0177001953125
1663861817626606300,4.0086064453125,0.0444793701171875,0.0244598388671875,0.0240936279296875
1663861817636493800,4.018493896484375,0.039154052734375,0.02020263671875,0.0326080322265625
1663861817646381600,4.028381591796875,0.0359649658203125,0.019134521484375,0.0411376953125
1663861817656238800,4.03823876953125,0.0359649658203125,0.0148773193359375,0.048583984375
1663861817666126600,4.048126708984375,0.037017822265625,0.016998291015625,0.051788330078125
1663861817675963100,4.057963134765625,0.0434112548828125,0.0276641845703125,0.0528564453125
1663861817685851000,4.067850830078125,0.048736572265625,0.0372467041015625,0.0560455322265625
1663861817695708200,4.077708251953125,0.05194091796875,0.0372467041015625,0.0581817626953125
1663861817705626400,4.08762646484375,0.0572662353515625,0.0372467041015625,0.0571136474609375
1663861817715483400,4.0974833984375,0.060455322265625,0.03192138671875,0.0549774169921875
1663861817725401600,4.107401611328125,0.0657806396484375,0.0233917236328125,0.049652099609375
1663861817735289300,4.117289306640625,0.0732421875,0.0159454345703125,0.0443267822265625
1663861817745146600,4.127146728515625,0.0774993896484375,0.019134521484375,0.037933349609375
1663861817755034400,4.137034423828125,0.0796356201171875,0.021270751953125,0.0358123779296875
1663861817764921900,4.146921875,0.0774993896484375,0.0159454345703125,0.0336761474609375
1663861817774809600,4.1568095703125,0.0764312744140625,0.0127410888671875,0.030487060546875
1663861817784667000,4.1666669921875,0.074310302734375,0.0116729736328125,0.026214599609375
1663861817794585000,4.176585205078125,0.0689849853515625,0.0106201171875,0.01983642578125
1663861817804442000,4.186442138671875,0.06365966796875,0.007415771484375,0.014495849609375
1663861817814329900,4.196329833984375,0.060455322265625,0.0052947998046875,0.0123748779296875
1663861817824217600,4.206217529296875,0.0572662353515625,0.007415771484375,0.0102386474609375
1663861817834105300,4.216105224609375,0.053009033203125,0.009552001953125,0.0123748779296875
1663861817843993000,4.2259931640625,0.04766845703125,0.009552001953125,0.01556396484375
1663861817853880600,4.235880615234375,0.0380859375,0.0020904541015625,0.01983642578125
1663861817863768300,4.245768310546875,0.0316925048828125,-0.0085601806640625,0.0230255126953125
1663861817873656000,4.255656005859375,0.0263671875,-0.01495361328125,0.0230255126953125
1663861817883543800,4.265543701171875,0.0199737548828125,-0.016021728515625,0.0230255126953125
1663861817893431600,4.275431640625,0.0114593505859375,-0.0106964111328125,0.0219573974609375
1663861817903319300,4.2853193359375,0.0082550048828125,-0.002166748046875,0.0240936279296875
1663861817913206800,4.295206787109375,0.006134033203125,0.0020904541015625,0.026214599609375
1663861817923094500,4.305094482421875,0.006134033203125,0.0010223388671875,0.028350830078125
1663861817932951800,4.314951904296875,0.00506591796875,-0.00537109375,0.028350830078125
1663861817942839600,4.324839599609375,0.00506591796875,-0.01708984375,0.0240936279296875
1663861817952727000,4.33472705078125,0.0018768310546875,-0.0245361328125,0.01983642578125
1663861817962584300,4.344584228515625,0.0008087158203125,-0.023468017578125,0.014495849609375
1663861817972441600,4.354441650390625,0.0018768310546875,-0.0181427001953125,0.0091705322265625
1663861817982359800,4.36435986328125,0.0018768310546875,-0.0128173828125,0.0059814453125
1663861817992247300,4.374247314453125,0.00506591796875,-0.0117645263671875,0.0027923583984375
1663861818002135000,4.384135009765625,0.0082550048828125,-0.01495361328125,0.00384521484375
1663861818012022800,4.394022705078125,0.0103912353515625,-0.0181427001953125,0.007049560546875
1663861818021910500,4.40391064453125,0.0125274658203125,-0.0213470458984375,0.0102386474609375
1663861818031798300,4.41379833984375,0.0125274658203125,-0.0181427001953125,0.0134429931640625
1663861818041685800,4.423685791015625,0.0125274658203125,-0.0117645263671875,0.0134429931640625
1663861818051543000,4.43354296875,0.01678466796875,-0.002166748046875,0.0123748779296875
1663861818061430800,4.4434306640625,0.0199737548828125,0.0020904541015625,0.0102386474609375
1663861818071318500,4.453318603515625,0.0231781005859375,-0.0010986328125,0.0102386474609375
1663861818081206000,4.4632060546875,0.0231781005859375,-0.00323486328125,0.0091705322265625
1663861818091093800,4.47309375,0.0210418701171875,-0.004302978515625,0.0059814453125
1663861818100981500,4.4829814453125,0.01678466796875,-0.0000457763671875,0.004913330078125
1663861818110869200,4.492869140625,0.013580322265625,0.00634765625,0.004913330078125
1663861818120726300,4.502726318359375,0.0093231201171875,0.00848388671875,0.0027923583984375
1663861818130614000,4.512614013671875,0.00506591796875,0.009552001953125,0.0006561279296875
1663861818140501800,4.522501708984375,0.0008087158203125,0.007415771484375,0.0006561279296875
1663861818150389500,4.532389404296875,-0.0045166015625,0.0052947998046875,-0.0004119873046875
1663861818160246800,4.542246826171875,-0.007720947265625,0.0031585693359375,-0.0025482177734375
1663861818170134300,4.55213427734375,-0.0109100341796875,0.0052947998046875,-0.0014801025390625
1663861818180022000,4.56202197265625,-0.0130462646484375,0.009552001953125,0.0006561279296875
1663861818189909800,4.57190966796875,-0.0119781494140625,0.0116729736328125,0.0027923583984375
1663861818199797500,4.581797607421875,-0.0109100341796875,0.0138092041015625,0.00811767578125
1663861818209685200,4.591685302734375,-0.00665283203125,0.0159454345703125,0.0134429931640625
1663861818219572700,4.60157275390625,0.0018768310546875,0.0244598388671875,0.0251617431640625
1663861818229460500,4.61146044921875,0.0146484375,0.0393829345703125,0.03900146484375
1663861818239317800,4.62131787109375,0.0316925048828125,0.063873291015625,0.049652099609375
1663861818249205500,4.63120556640625,0.053009033203125,0.09051513671875,0.05072021484375
1663861818259093000,4.641093017578125,0.07537841796875,0.10968017578125,0.0432586669921875
1663861818268980700,4.650980712890625,0.09454345703125,0.1139373779296875,0.0326080322265625
1663861818278868500,4.660868408203125,0.1083984375,0.1043548583984375,0.01983642578125
1663861818288756200,4.670756103515625,0.1222381591796875,0.08837890625,0.0134429931640625
1663861818298613200,4.68061328125,0.1350250244140625,0.07452392578125,0.0113067626953125
1663861818308501000,4.6905009765625,0.1435546875,0.0585479736328125,0.00811767578125
1663861818318358300,4.700358154296875,0.1456756591796875,0.0383148193359375,0.0017242431640625
1663861818328246000,4.71024609375,0.1392822265625,0.0265960693359375,-0.0014801025390625
1663861818338133500,4.720133544921875,0.1275634765625,0.0223388671875,-0.004669189453125
1663861818348021200,4.730021240234375,0.1083984375,0.028717041015625,-0.0057373046875
1663861818357909000,4.739908935546875,0.0849609375,0.030853271484375,-0.0099945068359375
1663861818367796700,4.749796630859375,0.0583343505859375,0.0276641845703125,-0.0174560546875
1663861818377684500,4.7596845703125,0.0306243896484375,0.0138092041015625,-0.025970458984375
1663861818387572200,4.769572265625,0.003997802734375,0.0010223388671875,-0.028106689453125
1663861818397429200,4.77942919921875,-0.0215606689453125,-0.00537109375,-0.0291748046875
1663861818407317000,4.78931689453125,-0.0460662841796875,-0.0074920654296875,-0.0291748046875
1663861818417204700,4.799204833984375,-0.06524658203125,-0.0074920654296875,-0.028106689453125
1663861818427092500,4.809092529296875,-0.0790863037109375,-0.00537109375,-0.02703857421875
1663861818436980000,4.81897998046875,-0.0908050537109375,-0.00537109375,-0.025970458984375
1663861818446837200,4.828837158203125,-0.09613037109375,-0.00537109375,-0.0227813720703125
1663861818456725000,4.83872509765625,-0.0982666015625,-0.0064239501953125,-0.0227813720703125
1663861818466582000,4.84858203125,-0.099334716796875,-0.00537109375,-0.0206451416015625
1663861818476469800,4.8584697265625,-0.09613037109375,-0.002166748046875,-0.0174560546875
1663861818486327000,4.8683271484375,-0.0865478515625,0.0020904541015625,-0.0142669677734375
1663861818496245200,4.878245361328125,-0.0716400146484375,0.0042266845703125,-0.0089263916015625
1663861818506133000,4.888133056640625,-0.0556488037109375,0.0052947998046875,-0.004669189453125
1663861818516020500,4.8980205078125,-0.0396728515625,-0.0000457763671875,-0.00360107421875
1663861818525877800,4.907877685546875,-0.0258331298828125,-0.00323486328125,-0.00360107421875
1663861818535796000,4.9177958984375,-0.017303466796875,-0.0010986328125,-0.004669189453125
1663861818545683700,4.92768359375,-0.0087890625,0.0052947998046875,-0.006805419921875
1663861818555571500,4.937571533203125,-0.0002593994140625,0.0116729736328125,-0.006805419921875
1663861818565459000,4.947458984375,0.003997802734375,0.0116729736328125,-0.004669189453125
1663861818575346700,4.9573466796875,0.0082550048828125,0.007415771484375,-0.004669189453125
1663861818585234400,4.967234375,0.0114593505859375,0.0020904541015625,-0.00360107421875
1663861818595091700,4.977091796875,0.0103912353515625,-0.00323486328125,-0.004669189453125
1663861818604948700,4.98694873046875,0.0072021484375,-0.00537109375,-0.006805419921875
1663861818614836500,4.99683642578125,0.0008087158203125,-0.004302978515625,-0.0089263916015625
1663861818624724200,5.00672412109375,-0.0045166015625,-0.004302978515625,-0.0131988525390625
1663861818634612000,5.016612060546875,-0.0098419189453125,-0.002166748046875,-0.01531982421875
1663861818644469000,5.026468994140625,-0.0151824951171875,-0.002166748046875,-0.0131988525390625
1663861818654356700,5.036356689453125,-0.019439697265625,-0.00323486328125,-0.0131988525390625
1663861818664244500,5.046244384765625,-0.0247650146484375,-0.004302978515625,-0.0131988525390625
1663861818674132200,5.05613232421875,-0.03009033203125,-0.0064239501953125,-0.0110626220703125
1663861818684020000,5.06602001953125,-0.0364837646484375,-0.0085601806640625,-0.0131988525390625
1663861818693907500,5.075907470703125,-0.040740966796875,-0.0106964111328125,-0.0142669677734375
1663861818703764700,5.0857646484375,-0.0460662841796875,-0.0074920654296875,-0.0121307373046875
1663861818713683000,5.095682861328125,-0.0471343994140625,-0.004302978515625,-0.0121307373046875
1663861818723540200,5.105540283203125,-0.0471343994140625,-0.002166748046875,-0.0099945068359375
1663861818733427700,5.115427734375,-0.0471343994140625,-0.0000457763671875,-0.00787353515625
1663861818743285000,5.125284912109375,-0.0439300537109375,-0.0010986328125,-0.0057373046875
1663861818753172700,5.1351728515625,-0.038604736328125,-0.0010986328125,-0.004669189453125
1663861818763060500,5.145060546875,-0.0354156494140625,-0.002166748046875,-0.004669189453125
1663861818772978700,5.154978759765625,-0.03009033203125,-0.004302978515625,-0.004669189453125
1663861818782866200,5.1648662109375,-0.0247650146484375,-0.0000457763671875,-0.0057373046875
1663861818792754000,5.17475390625,-0.01837158203125,0.0020904541015625,-0.00360107421875
1663861818802611200,5.184611083984375,-0.0098419189453125,0.0042266845703125,-0.0025482177734375
1663861818812499000,5.1944990234375,-0.0023956298828125,0.0031585693359375,-0.0014801025390625
1663861818822386400,5.204386474609375,0.006134033203125,0.0020904541015625,0.0006561279296875
1663861818832274200,5.214274169921875,0.0125274658203125,0.0020904541015625,-0.0004119873046875
1663861818842162000,5.224161865234375,0.015716552734375,0.0031585693359375,-0.0014801025390625
1663861818852049700,5.234049560546875,0.017852783203125,0.0052947998046875,-0.0014801025390625
1663861818861937400,5.2439375,0.0210418701171875,0.007415771484375,-0.0004119873046875
1663861818871825200,5.2538251953125,0.0231781005859375,0.00634765625,-0.0004119873046875
1663861818881712600,5.263712646484375,0.0231781005859375,0.0042266845703125,0.0017242431640625
1663861818891600400,5.273600341796875,0.0221099853515625,0.0052947998046875,0.0017242431640625
1663861818901488000,5.283488037109375,0.0199737548828125,0.007415771484375,0.0017242431640625
1663861818911376000,5.2933759765625,0.015716552734375,0.007415771484375,0.0027923583984375
1663861818921233000,5.30323291015625,0.0125274658203125,0.00634765625,0.0027923583984375
1663861818931120600,5.31312060546875,0.0103912353515625,0.0052947998046875,0.0006561279296875
1663861818940978000,5.32297802734375,0.0093231201171875,0.007415771484375,0.0006561279296875
1663861818950865700,5.33286572265625,0.0103912353515625,0.007415771484375,0.0017242431640625
1663861818960722700,5.34272265625,0.0114593505859375,0.00848388671875,0.00384521484375
1663861818970641000,5.352640869140625,0.0146484375,0.00634765625,0.0059814453125
1663861818980528600,5.362528564453125,0.0189208984375,0.0031585693359375,0.0091705322265625
1663861818990416400,5.37241650390625,0.0231781005859375,0.0031585693359375,0.0113067626953125
1663861819000304000,5.38230419921875,0.027435302734375,0.0031585693359375,0.01556396484375
1663861819010191600,5.392191650390625,0.0327606201171875,0.007415771484375,0.016632080078125
1663861819020079400,5.402079345703125,0.0380859375,0.0106201171875,0.0177001953125
1663861819029967000,5.411967041015625,0.0380859375,0.0127410888671875,0.0177001953125
1663861819039824400,5.421824462890625,0.041290283203125,0.009552001953125,0.0134429931640625
1663861819049711900,5.4317119140625,0.0444793701171875,0.009552001953125,0.0113067626953125
1663861819059599600,5.441599609375,0.0498046875,0.0138092041015625,0.0134429931640625
1663861819069487400,5.4514873046875,0.0572662353515625,0.0148773193359375,0.018768310546875
1663861819079375000,5.461375,0.06365966796875,0.0127410888671875,0.0230255126953125
1663861819089262800,5.471262939453125,0.072174072265625,0.0106201171875,0.0251617431640625
1663861819099150600,5.481150634765625,0.0774993896484375,0.009552001953125,0.0240936279296875
1663861819109007600,5.491007568359375,0.0774993896484375,0.00848388671875,0.0177001953125
1663861819118895400,5.500895263671875,0.0774993896484375,0.0106201171875,0.014495849609375
1663861819128783000,5.510783203125,0.07537841796875,0.021270751953125,0.0123748779296875
1663861819138670800,5.5206708984375,0.072174072265625,0.0276641845703125,0.0123748779296875
1663861819148558300,5.530558349609375,0.07110595703125,0.032989501953125,0.018768310546875
1663861819158446000,5.540446044921875,0.0732421875,0.032989501953125,0.0240936279296875
1663861819168303400,5.550303466796875,0.07537841796875,0.0265960693359375,0.02728271484375
1663861819178191000,5.560191162109375,0.0774993896484375,0.021270751953125,0.0230255126953125
1663861819188078600,5.57007861328125,0.0785675048828125,0.0233917236328125,0.01983642578125
1663861819197935900,5.579935791015625,0.07537841796875,0.02978515625,0.0102386474609375
1663861819207823600,5.58982373046875,0.0700531005859375,0.030853271484375,0.004913330078125
1663861819217711400,5.59971142578125,0.0689849853515625,0.030853271484375,0.0017242431640625
1663861819227598800,5.609598876953125,0.0647125244140625,0.0223388671875,0.0006561279296875
1663861819237486600,5.619486572265625,0.0615234375,0.0127410888671875,0.0006561279296875
1663861819247374300,5.629374267578125,0.0583343505859375,0.0052947998046875,0.0017242431640625
1663861819257262000,5.639261962890625,0.0583343505859375,-0.0000457763671875,0.0027923583984375
1663861819267149800,5.64914990234375,0.0551300048828125,-0.002166748046875,0.00384521484375
1663861819277037300,5.659037353515625,0.0498046875,-0.002166748046875,0.0017242431640625
1663861819286925000,5.668925048828125,0.0434112548828125,-0.004302978515625,0.0006561279296875
1663861819296782300,5.6787822265625,0.039154052734375,-0.0074920654296875,-0.0014801025390625
1663861819306670000,5.688670166015625,0.0348968505859375,-0.0085601806640625,-0.0014801025390625
1663861819316557800,5.698557861328125,0.0327606201171875,-0.0085601806640625,-0.0014801025390625
1663861819326445300,5.7084453125,0.0348968505859375,-0.0074920654296875,0.0006561279296875
1663861819336302600,5.718302490234375,0.0380859375,-0.0074920654296875,0.0059814453125
1663861819346190300,5.7281904296875,0.0423431396484375,-0.004302978515625,0.00811767578125
1663861819356047400,5.73804736328125,0.0466156005859375,-0.004302978515625,0.0102386474609375
1663861819365935000,5.74793505859375,0.0498046875,-0.004302978515625,0.0123748779296875
1663861819375792400,5.75779248046875,0.0540618896484375,-0.004302978515625,0.0113067626953125
1663861819385710600,5.767710693359375,0.0551300048828125,-0.0064239501953125,0.0102386474609375
1663861819395567600,5.777567626953125,0.0561981201171875,-0.00537109375,0.0091705322265625
1663861819405485800,5.78748583984375,0.0561981201171875,-0.00537109375,0.007049560546875
1663861819415373600,5.79737353515625,0.0551300048828125,-0.00537109375,0.0059814453125
1663861819425230800,5.80723095703125,0.0540618896484375,-0.004302978515625,0.004913330078125
1663861819435088000,5.817087890625,0.0540618896484375,-0.00537109375,0.0017242431640625
1663861819445006000,5.827006103515625,0.04766845703125,-0.00537109375,-0.0014801025390625
1663861819454893800,5.836893798828125,0.0455474853515625,-0.004302978515625,-0.0014801025390625
1663861819464781600,5.846781494140625,0.039154052734375,-0.004302978515625,-0.0025482177734375
1663861819474669300,5.85666943359375,0.0338287353515625,-0.00537109375,-0.0014801025390625
1663861819484526300,5.8665263671875,0.029571533203125,-0.0085601806640625,-0.0004119873046875
1663861819494414000,5.8764140625,0.0263671875,-0.013885498046875,-0.0014801025390625
1663861819504301800,5.8863017578125,0.0242462158203125,-0.0181427001953125,-0.004669189453125
1663861819514189600,5.896189453125,0.0221099853515625,-0.0213470458984375,-0.006805419921875
1663861819524077300,5.906077392578125,0.0199737548828125,-0.0181427001953125,-0.0057373046875
1663861819533964800,5.91596484375,0.0199737548828125,-0.0128173828125,-0.0025482177734375
1663861819543822000,5.925822021484375,0.0189208984375,-0.016021728515625,-0.0025482177734375
1663861819553709800,5.935709716796875,0.017852783203125,-0.0202789306640625,-0.0057373046875
1663861819563597600,5.94559765625,0.0199737548828125,-0.025604248046875,-0.0110626220703125
1663861819573485300,5.9554853515625,0.025299072265625,-0.025604248046875,-0.0110626220703125
1663861819583342300,5.96534228515625,0.02850341796875,-0.027740478515625,-0.0110626220703125
1663861819593260500,5.975260498046875,0.0316925048828125,-0.02880859375,-0.0110626220703125
1663861819603148300,5.985148193359375,0.0359649658203125,-0.0298614501953125,-0.0099945068359375
1663861819613036000,5.9950361328125,0.037017822265625,-0.027740478515625,-0.004669189453125
1663861819622923800,6.004923828125,0.0380859375,-0.02667236328125,0.0017242431640625
1663861819632780800,6.01478076171875,0.041290283203125,-0.0309295654296875,0.0027923583984375
1663861819642638000,6.02463818359375,0.04022216796875,-0.02880859375,-0.0014801025390625
1663861819652525800,6.03452587890625,0.04022216796875,-0.0224151611328125,-0.006805419921875
1663861819662444000,6.044444091796875,0.0423431396484375,-0.01708984375,-0.0131988525390625
1663861819672331500,6.05433154296875,0.0423431396484375,-0.013885498046875,-0.0131988525390625
1663861819682219300,6.06421923828125,0.041290283203125,-0.01708984375,-0.0131988525390625
1663861819692107000,6.07410693359375,0.0466156005859375,-0.0181427001953125,-0.0131988525390625
1663861819701994800,6.083994873046875,0.05194091796875,-0.0192108154296875,-0.0089263916015625
1663861819711882500,6.093882568359375,0.060455322265625,-0.0128173828125,-0.004669189453125
1663861819721770000,6.10377001953125,0.0700531005859375,-0.0000457763671875,0.0017242431640625
1663861819731627300,6.113627197265625,0.0796356201171875,0.0116729736328125,0.00811767578125
1663861819741484500,6.123484619140625,0.0881500244140625,0.016998291015625,0.00811767578125
1663861819751372000,6.1333720703125,0.0966796875,0.01806640625,0.004913330078125
1663861819761259800,6.143259765625,0.1083984375,0.0148773193359375,0.0017242431640625
1663861819771147500,6.1531474609375,0.119049072265625,0.0106201171875,-0.0014801025390625
1663861819781004800,6.1630048828125,0.1265106201171875,0.0042266845703125,-0.004669189453125
1663861819790892300,6.172892333984375,0.12969970703125,0.0010223388671875,-0.0089263916015625
1663861819800780000,6.182780029296875,0.1275634765625,0.0042266845703125,-0.0089263916015625
1663861819810667800,6.192667724609375,0.11798095703125,0.007415771484375,-0.006805419921875
1663861819820525000,6.202525146484375,0.10626220703125,0.0106201171875,-0.00787353515625
1663861819830443300,6.212443359375,0.097747802734375,0.0138092041015625,-0.006805419921875
1663861819840331000,6.2223310546875,0.086029052734375,0.0106201171875,-0.006805419921875
1663861819850218500,6.232218505859375,0.072174072265625,-0.0000457763671875,-0.0089263916015625
1663861819860106200,6.242106201171875,0.0561981201171875,-0.0128173828125,-0.0142669677734375
1663861819869994000,6.251993896484375,0.0359649658203125,-0.0192108154296875,-0.0206451416015625
1663861819879881700,6.2618818359375,0.0146484375,-0.0192108154296875,-0.03131103515625
1663861819889769500,6.27176953125,-0.00665283203125,-0.0181427001953125,-0.037689208984375
1663861819899657000,6.281656982421875,-0.03009033203125,-0.013885498046875,-0.037689208984375
1663861819909544700,6.291544677734375,-0.0492706298828125,-0.0117645263671875,-0.0355682373046875
1663861819919402000,6.301402099609375,-0.0631103515625,-0.016021728515625,-0.030242919921875
1663861819929289700,6.311289794921875,-0.075897216796875,-0.025604248046875,-0.025970458984375
1663861819939177200,6.32117724609375,-0.08441162109375,-0.0319976806640625,-0.0217132568359375
1663861819949065000,6.33106494140625,-0.0908050537109375,-0.0298614501953125,-0.0217132568359375
1663861819958952700,6.34095263671875,-0.097198486328125,-0.0213470458984375,-0.025970458984375
1663861819968840400,6.35084033203125,-0.1025238037109375,-0.01495361328125,-0.03131103515625
1663861819978697500,6.360697509765625,-0.1099853515625,-0.013885498046875,-0.0323638916015625
1663861819988585200,6.370585205078125,-0.111053466796875,-0.016021728515625,-0.028106689453125
1663861819998473000,6.380472900390625,-0.111053466796875,-0.0213470458984375,-0.0238494873046875
1663861820008360700,6.390360595703125,-0.1099853515625,-0.023468017578125,-0.0238494873046875
1663861820018248400,6.40024853515625,-0.111053466796875,-0.0224151611328125,-0.0217132568359375
1663861820028136200,6.41013623046875,-0.108917236328125,-0.0192108154296875,-0.0217132568359375
1663861820037993200,6.4199931640625,-0.1014556884765625,-0.016021728515625,-0.0408935546875
1663861820047881000,6.429880859375,-0.1014556884765625,-0.0298614501953125,-0.0643310546875
1663861820057768700,6.439768798828125,-0.106781005859375,-0.0671539306640625,-0.0462188720703125
1663861820067656400,6.449656494140625,-0.1153106689453125,-0.1321258544921875,0.0017242431640625
1663861820077544000,6.4595439453125,-0.1259613037109375,-0.175811767578125,0.0219573974609375
1663861820087431700,6.469431640625,-0.130218505859375,-0.1598358154296875,0.00384521484375
1663861820097319400,6.4793193359375,-0.1142425537109375,-0.1225433349609375,-0.0355682373046875
1663861820107176700,6.4891767578125,-0.0918731689453125,-0.1108245849609375,-0.07177734375
1663861820117064200,6.499064208984375,-0.06524658203125,-0.1438446044921875,-0.0930938720703125
1663861820126952000,6.508951904296875,-0.0354156494140625,-0.171539306640625,-0.0898895263671875
1663861820136839700,6.518839599609375,-0.0013275146484375,-0.1470489501953125,-0.1016082763671875
1663861820146727400,6.5287275390625,0.015716552734375,-0.1321258544921875,-0.121856689453125
1663861820156615200,6.538615234375,0.0221099853515625,-0.1342620849609375,-0.133575439453125
1663861820166472200,6.54847216796875,0.0221099853515625,-0.107635498046875,-0.1506195068359375
1663861820176360000,6.55835986328125,0.0263671875,-0.0831298828125,-0.15594482421875
1663861820186247700,6.56824755859375,0.04022216796875,-0.093780517578125,-0.164459228515625
1663861820196135400,6.578135498046875,0.05938720703125,-0.1108245849609375,-0.1836395263671875
1663861820206023000,6.58802294921875,0.074310302734375,-0.1023101806640625,-0.197479248046875
1663861820215880200,6.597880126953125,0.0892181396484375,-0.0767364501953125,-0.199615478515625
1663861820225768000,6.607767822265625,0.1105194091796875,-0.046905517578125,-0.190032958984375
1663861820235655700,6.61765576171875,0.1339569091796875,-0.0074920654296875,-0.1708526611328125
1663861820245543200,6.627543212890625,0.16485595703125,0.028717041015625,-0.15167236328125
1663861820255400400,6.637400390625,0.1936187744140625,0.0489654541015625,-0.1367645263671875
1663861820265257700,6.6472578125,0.220245361328125,0.054290771484375,-0.11865234375
1663861820275145500,6.6571455078125,0.23516845703125,0.0500335693359375,-0.09521484375
1663861820285063700,6.667063720703125,0.2383575439453125,0.040435791015625,-0.0771026611328125
1663861820294951200,6.676951171875,0.2362213134765625,0.0361785888671875,-0.0696563720703125
1663861820304839000,6.6868388671875,0.2298431396484375,0.0361785888671875,-0.0526123046875
1663861820314726700,6.6967265625,0.212799072265625,0.0478973388671875,-0.025970458984375
1663861820324614400,6.706614501953125,0.1829681396484375,0.052154541015625,0.004913330078125
1663861820334502100,6.716502197265625,0.1456756591796875,0.0457611083984375,0.0326080322265625
1663861820344389600,6.7263896484375,0.10626220703125,0.0393829345703125,0.0571136474609375
1663861820354247000,6.736246826171875,0.0647125244140625,0.0361785888671875,0.0805511474609375
1663861820364134700,6.746134765625,0.0242462158203125,0.0393829345703125,0.0997314453125
1663861820374022400,6.7560224609375,-0.0226287841796875,0.04150390625,0.12103271484375
1663861820383910000,6.765909912109375,-0.07269287109375,0.0340423583984375,0.141265869140625
1663861820393797600,6.775797607421875,-0.1163787841796875,0.00848388671875,0.1572418212890625
1663861820403655000,6.785655029296875,-0.15472412109375,-0.01495361328125,0.16790771484375
1663861820413512000,6.795511962890625,-0.1813507080078125,-0.02880859375,0.174285888671875
1663861820423399700,6.805399658203125,-0.198394775390625,-0.0192108154296875,0.176422119140625
1663861820433287400,6.815287353515625,-0.200531005859375,0.0010223388671875,0.165771484375
1663861820443175200,6.825175048828125,-0.1802978515625,0.0265960693359375,0.1391448974609375
1663861820453063000,6.83506298828125,-0.14300537109375,0.05322265625,0.1018524169921875
1663861820462920000,6.844919921875,-0.1057281494140625,0.056427001953125,0.07415771484375
1663861820472807700,6.8548076171875,-0.0780181884765625,0.05535888671875,0.060302734375
1663861820482665000,6.8646650390625,-0.0695037841796875,0.07452392578125,0.072021484375
1663861820492583200,6.874583251953125,-0.06524658203125,0.1032867431640625,0.096527099609375
1663861820502440200,6.884440185546875,-0.042877197265625,0.1256561279296875,0.1007843017578125
1663861820512358400,6.8943583984375,-0.0023956298828125,0.1416473388671875,0.06243896484375
1663861820522215700,6.904215576171875,0.0316925048828125,0.1064910888671875,0.0006561279296875
1663861820532134000,6.9141337890625,0.0498046875,0.0393829345703125,-0.0472869873046875
1663861820542021600,6.924021728515625,0.0434112548828125,0.0276641845703125,-0.0526123046875
1663861820551909400,6.933909423828125,0.0221099853515625,0.08624267578125,-0.01959228515625
1663861820561766400,6.943766357421875,0.00506591796875,0.1490936279296875,0.0230255126953125
1663861820571623700,6.953623779296875,-0.007720947265625,0.1757354736328125,0.0549774169921875
1663861820581511400,6.963511474609375,-0.017303466796875,0.1714630126953125,0.0784149169921875
1663861820591429600,6.9734296875,-0.0215606689453125,0.1480255126953125,0.0880126953125
1663861820601317000,6.983317138671875,-0.019439697265625,0.1171417236328125,0.0794830322265625
1663861820611204900,6.993204833984375,-0.0162353515625,0.0947723388671875,0.061370849609375
1663861820621092600,7.003092529296875,-0.0098419189453125,0.085174560546875,0.040069580078125
1663861820630980400,7.01298046875,-0.0002593994140625,0.0841217041015625,0.016632080078125
1663861820640868000,7.0228681640625,0.0093231201171875,0.08624267578125,-0.004669189453125
1663861820650755600,7.032755615234375,0.0221099853515625,0.085174560546875,-0.0227813720703125
1663861820660612900,7.04261279296875,0.0338287353515625,0.0734710693359375,-0.0323638916015625
1663861820670470100,7.05247021484375,0.037017822265625,0.056427001953125,-0.0355682373046875
1663861820680357600,7.062357666015625,0.0348968505859375,0.0361785888671875,-0.03131103515625
1663861820690245400,7.072245361328125,0.02850341796875,0.016998291015625,-0.02703857421875
1663861820700133000,7.082133056640625,0.017852783203125,0.0031585693359375,-0.01959228515625
1663861820710020900,7.092020751953125,0.0072021484375,-0.0000457763671875,-0.0099945068359375
1663861820719878000,7.1018779296875,-0.00665283203125,0.00634765625,-0.0014801025390625
1663861820729765600,7.111765625,-0.0205078125,0.0159454345703125,0.004913330078125
1663861820739653400,7.1216533203125,-0.0322265625,0.0223388671875,0.0059814453125
1663861820749510700,7.1315107421875,-0.042877197265625,0.0265960693359375,0.004913330078125
1663861820759398400,7.1413984375,-0.0482025146484375,0.02978515625,0.004913330078125
1663861820769316600,7.151316650390625,-0.0513916015625,0.0265960693359375,0.0059814453125
1663861820779204000,7.1612041015625,-0.050323486328125,0.0223388671875,0.0091705322265625
1663861820789091800,7.171091796875,-0.0449981689453125,0.019134521484375,0.0134429931640625
1663861820798979600,7.1809794921875,-0.0375518798828125,0.0138092041015625,0.014495849609375
1663861820808836900,7.1908369140625,-0.03009033203125,0.009552001953125,0.014495849609375
1663861820818694000,7.20069384765625,-0.0226287841796875,0.00634765625,0.014495849609375
1663861820828612000,7.210612060546875,-0.01837158203125,0.0031585693359375,0.01556396484375
1663861820838499800,7.220499755859375,-0.017303466796875,0.0031585693359375,0.016632080078125
1663861820848387600,7.2303876953125,-0.0162353515625,0.007415771484375,0.0177001953125
1663861820858275300,7.240275390625,-0.0119781494140625,0.009552001953125,0.018768310546875
1663861820868162800,7.250162841796875,-0.007720947265625,0.0106201171875,0.018768310546875
1663861820878050600,7.260050537109375,-0.0023956298828125,0.016998291015625,0.01556396484375
1663861820887938300,7.269938232421875,0.0018768310546875,0.0255279541015625,0.016632080078125
1663861820897826000,7.279825927734375,0.0072021484375,0.032989501953125,0.016632080078125
1663861820907713800,7.2897138671875,0.0125274658203125,0.032989501953125,0.0134429931640625
1663861820917570800,7.29957080078125,0.015716552734375,0.0276641845703125,0.0091705322265625
1663861820927458600,7.30945849609375,0.017852783203125,0.0244598388671875,0.00384521484375
1663861820937346300,7.31934619140625,0.0210418701171875,0.0233917236328125,-0.0004119873046875
1663861820947234000,7.329234130859375,0.027435302734375,0.0276641845703125,0.0006561279296875
1663861820957121500,7.33912158203125,0.0380859375,0.0383148193359375,0.0091705322265625
1663861820967009300,7.34900927734375,0.0561981201171875,0.05108642578125,0.01983642578125
1663861820976866600,7.358866455078125,0.0774993896484375,0.0574798583984375,0.0230255126953125
1663861820986754300,7.36875439453125,0.1009368896484375,0.0489654541015625,0.0219573974609375
1663861820996642000,7.37864208984375,0.1222381591796875,0.0351104736328125,0.018768310546875
1663861821006529500,7.388529541015625,0.1382293701171875,0.0276641845703125,0.0113067626953125
1663861821016417300,7.398417236328125,0.1435546875,0.0255279541015625,0.004913330078125
1663861821026305000,7.408304931640625,0.14141845703125,0.0372467041015625,-0.00360107421875
1663861821036162300,7.418162353515625,0.1275634765625,0.0457611083984375,-0.0089263916015625
1663861821046049800,7.4280498046875,0.1083984375,0.0489654541015625,-0.0121307373046875
1663861821055937500,7.4379375,0.083892822265625,0.0457611083984375,-0.016387939453125
1663861821065825300,7.4478251953125,0.0498046875,0.0340423583984375,-0.01531982421875
1663861821075713000,7.457713134765625,0.0072021484375,0.0148773193359375,-0.01531982421875
1663861821085600800,7.467600830078125,-0.0364837646484375,-0.00323486328125,-0.016387939453125
1663861821095457800,7.477457763671875,-0.07696533203125,-0.0085601806640625,-0.0217132568359375
1663861821105345500,7.487345458984375,-0.1153106689453125,-0.0064239501953125,-0.0249176025390625
1663861821115202800,7.497202880859375,-0.144073486328125,-0.004302978515625,-0.025970458984375
1663861821125059800,7.507059814453125,-0.16644287109375,-0.00323486328125,-0.025970458984375
1663861821134947600,7.516947509765625,-0.17816162109375,-0.0010986328125,-0.02703857421875
1663861821144865800,7.52686572265625,-0.1813507080078125,-0.00323486328125,-0.030242919921875
1663861821154723000,7.53672314453125,-0.179229736328125,-0.0010986328125,-0.030242919921875
1663861821164610600,7.546610595703125,-0.1739044189453125,0.00848388671875,-0.02703857421875
1663861821174467800,7.5564677734375,-0.164306640625,0.01806640625,-0.0217132568359375
1663861821184386000,7.566385986328125,-0.1515350341796875,0.019134521484375,-0.0174560546875
1663861821194273800,7.576273681640625,-0.141937255859375,0.0127410888671875,-0.0142669677734375
1663861821204161500,7.58616162109375,-0.1270294189453125,0.0042266845703125,-0.0121307373046875
1663861821214018600,7.5960185546875,-0.1142425537109375,-0.0010986328125,-0.0110626220703125
1663861821223906300,7.60590625,-0.1057281494140625,-0.0064239501953125,-0.0089263916015625
1663861821233794000,7.6157939453125,-0.0982666015625,-0.0085601806640625,-0.0099945068359375
1663861821243681800,7.625681884765625,-0.095062255859375,-0.0064239501953125,-0.0142669677734375
1663861821253569500,7.635569580078125,-0.097198486328125,-0.002166748046875,-0.018524169921875
1663861821263426600,7.645426513671875,-0.1014556884765625,0.0010223388671875,-0.0217132568359375
1663861821273344800,7.6553447265625,-0.1046600341796875,0.0042266845703125,-0.0227813720703125
1663861821283202000,7.6652021484375,-0.1057281494140625,0.0031585693359375,-0.0206451416015625
1663861821293089800,7.67508984375,-0.10784912109375,0.0010223388671875,-0.018524169921875
1663861821302977300,7.684977294921875,-0.10784912109375,-0.0064239501953125,-0.016387939453125
1663861821312834600,7.69483447265625,-0.1035919189453125,-0.013885498046875,-0.0121307373046875
1663861821322722300,7.704722412109375,-0.099334716796875,-0.0224151611328125,-0.0089263916015625
1663861821332640500,7.714640625,-0.0918731689453125,-0.0213470458984375,-0.0110626220703125
1663861821342497500,7.72449755859375,-0.0865478515625,-0.01495361328125,-0.0131988525390625
1663861821352385300,7.73438525390625,-0.0812225341796875,-0.0085601806640625,-0.0131988525390625
1663861821362242600,7.74424267578125,-0.07696533203125,-0.002166748046875,-0.0142669677734375
1663861821372160800,7.754160888671875,-0.07269287109375,0.0010223388671875,-0.0110626220703125
1663861821382048500,7.764048583984375,-0.066314697265625,-0.0010986328125,-0.0131988525390625
1663861821391936000,7.77393603515625,-0.062042236328125,-0.00537109375,-0.0110626220703125
1663861821401793300,7.783793212890625,-0.0577850341796875,-0.0096282958984375,-0.0089263916015625
1663861821411650600,7.793650634765625,-0.054595947265625,-0.0128173828125,-0.0089263916015625
1663861821421568800,7.80356884765625,-0.0513916015625,-0.0117645263671875,-0.00787353515625
1663861821431456300,7.813456298828125,-0.050323486328125,-0.0106964111328125,-0.0110626220703125
1663861821441344000,7.823343994140625,-0.050323486328125,-0.0064239501953125,-0.0131988525390625
1663861821451231700,7.833231689453125,-0.0482025146484375,-0.004302978515625,-0.0131988525390625
1663861821461089000,7.843089111328125,-0.050323486328125,-0.0064239501953125,-0.0142669677734375
1663861821470976800,7.852976806640625,-0.052459716796875,-0.0074920654296875,-0.01531982421875
1663861821480864300,7.8628642578125,-0.054595947265625,-0.0085601806640625,-0.016387939453125
1663861821490752000,7.872751953125,-0.06097412109375,-0.0117645263671875,-0.016387939453125
1663861821500639700,7.8826396484375,-0.066314697265625,-0.0117645263671875,-0.0174560546875
1663861821510497000,7.8924970703125,-0.07269287109375,-0.0117645263671875,-0.01959228515625
1663861821520415200,7.902415283203125,-0.0790863037109375,-0.0085601806640625,-0.0206451416015625
1663861821530302700,7.912302734375,-0.085479736328125,-0.00537109375,-0.0227813720703125
1663861821540190500,7.9221904296875,-0.0929412841796875,-0.00537109375,-0.0238494873046875
1663861821550078200,7.932078125,-0.099334716796875,-0.00537109375,-0.0238494873046875
1663861821559966000,7.941966064453125,-0.1057281494140625,-0.0064239501953125,-0.0249176025390625
1663861821569853700,7.951853759765625,-0.111053466796875,-0.0074920654296875,-0.0227813720703125
1663861821579741200,7.9617412109375,-0.1131744384765625,-0.0074920654296875,-0.0217132568359375
1663861821589629000,7.97162890625,-0.1153106689453125,-0.004302978515625,-0.0206451416015625
1663861821599486200,7.981486328125,-0.1163787841796875,-0.00537109375,-0.0206451416015625
1663861821609374000,7.9913740234375,-0.1142425537109375,-0.0085601806640625,-0.018524169921875
1663861821619261400,8.001261474609375,-0.1099853515625,-0.00537109375,-0.018524169921875
1663861821629149200,8.011149169921875,-0.10784912109375,-0.00537109375,-0.018524169921875
1663861821639037000,8.021036865234375,-0.1046600341796875,-0.0064239501953125,-0.016387939453125
1663861821648924700,8.030924560546875,-0.0982666015625,-0.0074920654296875,-0.0174560546875
1663861821658781700,8.04078173828125,-0.0929412841796875,-0.0106964111328125,-0.0174560546875
1663861821668669400,8.05066943359375,-0.0897369384765625,-0.0117645263671875,-0.018524169921875
1663861821678557200,8.06055712890625,-0.08441162109375,-0.0096282958984375,-0.0174560546875
1663861821688414500,8.07041455078125,-0.0790863037109375,-0.0117645263671875,-0.018524169921875
1663861821698302200,8.08030224609375,-0.075897216796875,-0.0096282958984375,-0.018524169921875
1663861821708159200,8.0901591796875,-0.0716400146484375,-0.0117645263671875,-0.018524169921875
1663861821718077400,8.100077392578125,-0.0673675537109375,-0.0106964111328125,-0.01959228515625
1663861821727965200,8.109965087890625,-0.066314697265625,-0.0117645263671875,-0.01959228515625
1663861821737853000,8.11985302734375,-0.06524658203125,-0.0117645263671875,-0.01959228515625
1663861821747740700,8.12974072265625,-0.0631103515625,-0.0106964111328125,-0.0174560546875
1663861821757597700,8.13959765625,-0.0599212646484375,-0.0085601806640625,-0.0121307373046875
1663861821767455000,8.149455078125,-0.0588531494140625,-0.0096282958984375,-0.0099945068359375
1663861821777342700,8.1593427734375,-0.0567169189453125,-0.0064239501953125,-0.0089263916015625
1663861821787230200,8.169230224609375,-0.0577850341796875,-0.00537109375,-0.006805419921875
1663861821797118000,8.179117919921875,-0.0588531494140625,-0.0064239501953125,-0.004669189453125
1663861821806975200,8.188975341796874,-0.0588531494140625,-0.0064239501953125,-0.006805419921875
1663861821816893400,8.1988935546875,-0.0577850341796875,-0.0064239501953125,-0.0110626220703125
1663861821826750500,8.20875048828125,-0.054595947265625,-0.004302978515625,-0.0121307373046875
1663861821836638200,8.21863818359375,-0.052459716796875,-0.00323486328125,-0.0121307373046875
1663861821846526000,8.22852587890625,-0.050323486328125,-0.00323486328125,-0.0099945068359375
1663861821856383200,8.23838330078125,-0.0482025146484375,-0.004302978515625,-0.0099945068359375
1663861821866270700,8.248270751953125,-0.0492706298828125,-0.0064239501953125,-0.0110626220703125
1663861821876189000,8.25818896484375,-0.0492706298828125,-0.0074920654296875,-0.0110626220703125
1663861821886076700,8.26807666015625,-0.0492706298828125,-0.00537109375,-0.0121307373046875
1663861821895964400,8.27796435546875,-0.0513916015625,-0.00537109375,-0.0131988525390625
1663861821905852200,8.28785205078125,-0.052459716796875,-0.004302978515625,-0.0131988525390625
1663861821915740000,8.297739990234374,-0.052459716796875,-0.00537109375,-0.0121307373046875
1663861821925627600,8.307627685546874,-0.052459716796875,-0.00537109375,-0.0131988525390625
1663861821935515100,8.31751513671875,-0.0513916015625,-0.004302978515625,-0.0131988525390625
1663861821945403000,8.32740283203125,-0.050323486328125,-0.00537109375,-0.0131988525390625
1663861821955260200,8.33726025390625,-0.0471343994140625,-0.004302978515625,-0.0142669677734375
1663861821965148000,8.34714794921875,-0.0471343994140625,-0.004302978515625,-0.0131988525390625
1663861821975035400,8.357035400390625,-0.0449981689453125,-0.00323486328125,-0.0142669677734375
1663861821984923100,8.366923095703125,-0.042877197265625,-0.0010986328125,-0.0131988525390625
1663861821994811000,8.376810791015625,-0.042877197265625,-0.0010986328125,-0.0099945068359375
1663861822004698600,8.38669873046875,-0.04180908203125,-0.0000457763671875,-0.0089263916015625
1663861822014586400,8.39658642578125,-0.042877197265625,0.0020904541015625,-0.00787353515625
1663861822024473900,8.406473876953125,-0.040740966796875,-0.0000457763671875,-0.006805419921875
1663861822034331100,8.4163310546875,-0.038604736328125,-0.0000457763671875,-0.0057373046875
1663861822044219000,8.426218994140624,-0.0354156494140625,0.0010223388671875,-0.006805419921875
1663861822054076000,8.436075927734375,-0.0332794189453125,0.0010223388671875,-0.00787353515625
1663861822063963600,8.445963623046875,-0.031158447265625,-0.0010986328125,-0.006805419921875
1663861822073851400,8.455851318359375,-0.0279541015625,0.0010223388671875,-0.0057373046875
1663861822083708700,8.465708740234374,-0.0247650146484375,0.0010223388671875,-0.004669189453125
1663861822093596200,8.47559619140625,-0.0226287841796875,-0.0000457763671875,-0.00360107421875
1663861822103453400,8.485453369140625,-0.019439697265625,-0.0000457763671875,-0.00360107421875
1663861822113341200,8.495341064453125,-0.01837158203125,-0.0000457763671875,-0.004669189453125
1663861822123229000,8.50522900390625,-0.017303466796875,-0.0000457763671875,-0.004669189453125
1663861822133147100,8.515147216796874,-0.0162353515625,-0.0000457763671875,-0.0057373046875
1663861822143004200,8.525004150390625,-0.0151824951171875,0.0010223388671875,-0.0057373046875
1663861822152892000,8.534891845703125,-0.0141143798828125,-0.0000457763671875,-0.004669189453125
1663861822162779600,8.544779541015625,-0.0151824951171875,-0.0010986328125,-0.004669189453125
1663861822172636700,8.55463671875,-0.0141143798828125,-0.0010986328125,-0.004669189453125
1663861822182524400,8.5645244140625,-0.0151824951171875,-0.00323486328125,-0.004669189453125
1663861822192442600,8.574442626953125,-0.0119781494140625,-0.00323486328125,-0.004669189453125
1663861822202300000,8.5842998046875,-0.0130462646484375,-0.0010986328125,-0.006805419921875
1663861822212187600,8.594187744140624,-0.0119781494140625,-0.0010986328125,-0.0057373046875
1663861822222075400,8.604075439453124,-0.0119781494140625,0.0010223388671875,-0.0057373046875
1663861822231963000,8.613962890625,-0.0098419189453125,0.0020904541015625,-0.0057373046875
1663861822241850600,8.6238505859375,-0.0087890625,0.0031585693359375,-0.00360107421875
1663861822251708000,8.6337080078125,-0.007720947265625,0.0042266845703125,-0.0025482177734375
1663861822261595600,8.643595703125,-0.0087890625,0.0020904541015625,-0.0014801025390625
1663861822271513900,8.653513916015624,-0.005584716796875,0.0020904541015625,-0.0004119873046875
1663861822281401300,8.6634013671875,-0.0023956298828125,0.0052947998046875,-0.0014801025390625
1663861822291289000,8.6732890625,-0.0013275146484375,0.0042266845703125,-0.0004119873046875
1663861822301146400,8.683146484375,-0.0013275146484375,0.0052947998046875,0.0006561279296875
1663861822311034000,8.6930341796875,-0.0002593994140625,0.0042266845703125,-0.0004119873046875
1663861822320921600,8.702921630859375,0.0029296875,0.00634765625,-0.0014801025390625
1663861822330809300,8.712809326171875,0.0029296875,0.0042266845703125,-0.0014801025390625
1663861822340697000,8.722697021484375,0.003997802734375,0.0020904541015625,-0.0014801025390625
1663861822350584800,8.732584716796875,0.006134033203125,0.0031585693359375,-0.0004119873046875
1663861822360441900,8.74244189453125,0.003997802734375,0.0010223388671875,-0.0004119873046875
1663861822370329600,8.75232958984375,0.006134033203125,-0.0000457763671875,-0.0014801025390625
1663861822380217300,8.76221728515625,0.006134033203125,-0.0000457763671875,-0.0025482177734375
1663861822390105000,8.77210498046875,0.0072021484375,-0.0000457763671875,-0.0014801025390625
1663861822399962000,8.781962158203125,0.006134033203125,0.0020904541015625,-0.0014801025390625
1663861822409849900,8.791849853515625,0.006134033203125,0.0031585693359375,0.0017242431640625
1663861822419737600,8.801737548828125,0.006134033203125,0.0042266845703125,0.004913330078125
1663861822429625300,8.811625244140625,0.006134033203125,0.0042266845703125,0.007049560546875
1663861822439513000,8.82151318359375,0.006134033203125,0.0042266845703125,0.00811767578125
1663861822449400800,8.83140087890625,0.00506591796875,0.00634765625,0.0059814453125
1663861822459288300,8.841288330078125,0.0029296875,0.0031585693359375,0.004913330078125
1663861822469176000,8.851176025390625,0.003997802734375,0.0042266845703125,0.00384521484375
1663861822479063800,8.861063720703125,0.00506591796875,0.00634765625,0.0027923583984375
1663861822488951600,8.87095166015625,0.0072021484375,0.0042266845703125,0.0027923583984375
1663861822498808600,8.88080859375,0.0093231201171875,0.0020904541015625,0.004913330078125
1663861822508696300,8.8906962890625,0.0103912353515625,-0.0010986328125,0.00384521484375
1663861822518584000,8.900583984375,0.0093231201171875,-0.0000457763671875,0.004913330078125
1663861822528471800,8.910471923828124,0.0082550048828125,0.0010223388671875,0.00384521484375
1663861822538359600,8.920359619140624,0.0072021484375,0.0052947998046875,0.0017242431640625
1663861822548247000,8.9302470703125,0.0082550048828125,0.007415771484375,0.0006561279296875
1663861822558134800,8.940134765625,0.00506591796875,0.007415771484375,0.0006561279296875
1663861822568022500,8.9500224609375,0.00506591796875,0.00634765625,0.0017242431640625
1663861822577879800,8.9598798828125,0.003997802734375,0.0031585693359375,0.0027923583984375
1663861822587767300,8.969767333984375,0.00506591796875,0.0010223388671875,0.00384521484375
1663861822597624600,8.97962451171875,0.006134033203125,0.0010223388671875,0.0017242431640625
1663861822607512300,8.98951220703125,0.006134033203125,0.0020904541015625,-0.0004119873046875
1663861822617400000,8.999400146484374,0.006134033203125,0.0042266845703125,-0.0014801025390625
1663861822627287600,9.00928759765625,0.006134033203125,0.00634765625,-0.0025482177734375
1663861822637175300,9.01917529296875,0.0072021484375,0.0052947998046875,-0.0004119873046875
1663861822647063000,9.02906298828125,0.0072021484375,0.00634765625,-0.0004119873046875
1663861822656950800,9.03895068359375,0.0072021484375,0.00634765625,0.0017242431640625
1663861822666838500,9.048838623046874,0.006134033203125,0.007415771484375,0.0017242431640625
1663861822676726300,9.058726318359374,0.003997802734375,0.0052947998046875,0.0027923583984375
1663861822686613800,9.06861376953125,0.003997802734375,0.0042266845703125,0.0027923583984375
1663861822696501500,9.07850146484375,0.003997802734375,0.00634765625,0.0027923583984375
1663861822706389200,9.08838916015625,0.0029296875,0.00634765625,0.0006561279296875
1663861822716246500,9.09824658203125,0.0018768310546875,0.007415771484375,0.0006561279296875
1663861822726134000,9.108134033203125,0.0018768310546875,0.00634765625,0.0006561279296875
1663861822736021800,9.118021728515625,0.0029296875,0.0042266845703125,0.0017242431640625
1663861822745879000,9.127879150390624,0.0029296875,0.0052947998046875,0.0017242431640625
1663861822755736000,9.137736083984375,0.0018768310546875,0.0042266845703125,0.0017242431640625
1663861822765654300,9.147654296875,0.0018768310546875,0.0042266845703125,0.0017242431640625
1663861822775542000,9.1575419921875,0.0018768310546875,0.00634765625,0.0006561279296875
1663861822785429800,9.1674296875,0.0029296875,0.007415771484375,0.0006561279296875
1663861822795287000,9.177287109375,0.0018768310546875,0.00634765625,0.0006561279296875
1663861822805174500,9.187174560546875,-0.0002593994140625,0.0052947998046875,0.0006561279296875
1663861822815062300,9.197062255859375,0.0018768310546875,0.0042266845703125,0.0006561279296875
1663861822824919600,9.20691943359375,0.0018768310546875,0.0031585693359375,-0.0004119873046875
1663861822834807300,9.216807373046874,-0.0002593994140625,0.0020904541015625,-0.0004119873046875
1663861822844664300,9.226664306640625,-0.0002593994140625,0.0042266845703125,-0.0004119873046875
1663861822854552000,9.236552001953125,-0.0013275146484375,0.0031585693359375,-0.0004119873046875
1663861822864470300,9.24647021484375,-0.0002593994140625,0.0020904541015625,-0.0014801025390625
1663861822874327600,9.25632763671875,-0.0013275146484375,0.0031585693359375,-0.0014801025390625
1663861822884245800,9.266245849609374,-0.0023956298828125,0.0042266845703125,-0.0004119873046875
1663861822894102800,9.276102783203125,-0.0034637451171875,0.0020904541015625,-0.0004119873046875
1663861822903990500,9.285990478515625,-0.0045166015625,0.0031585693359375,0.0017242431640625
1663861822913878300,9.295878173828125,-0.0034637451171875,0.0042266845703125,0.0017242431640625
1663861822923735600,9.305735595703124,-0.0023956298828125,0.0052947998046875,-0.0004119873046875
1663861822933623000,9.315623046875,-0.0013275146484375,0.0020904541015625,-0.0014801025390625
1663861822943510800,9.3255107421875,-0.0023956298828125,0.0031585693359375,0.0006561279296875
1663861822953398500,9.3353984375,-0.0034637451171875,0.0042266845703125,0.0006561279296875
1663861822963316700,9.345316650390625,-0.0034637451171875,0.0052947998046875,-0.0004119873046875
1663861822973174000,9.355174072265624,-0.0034637451171875,0.0031585693359375,-0.0004119873046875
1663861822983061500,9.3650615234375,-0.0045166015625,0.0020904541015625,0.0006561279296875
1663861822992949200,9.37494921875,-0.0045166015625,0.0052947998046875,-0.0004119873046875
1663861823002806500,9.384806640625,-0.0023956298828125,0.0020904541015625,-0.0014801025390625
1663861823012694300,9.3946943359375,-0.0034637451171875,0.0020904541015625,-0.0014801025390625
1663861823022581800,9.404581787109375,-0.0034637451171875,0.0042266845703125,-0.0025482177734375
1663861823032469500,9.414469482421875,-0.0013275146484375,0.0042266845703125,-0.0025482177734375
1663861823042357200,9.424357177734375,-0.0013275146484375,0.0031585693359375,-0.004669189453125
1663861823052245000,9.434244873046875,-0.0013275146484375,0.0020904541015625,-0.0014801025390625
1663861823062132700,9.4441328125,-0.0023956298828125,0.0042266845703125,0.0006561279296875
1663861823072020200,9.454020263671875,-0.0013275146484375,0.0042266845703125,0.00384521484375
1663861823081877500,9.46387744140625,-0.0013275146484375,0.0042266845703125,0.004913330078125
1663861823091734800,9.47373486328125,-0.0013275146484375,0.00634765625,0.007049560546875
1663861823101622300,9.483622314453125,-0.0023956298828125,0.0052947998046875,0.007049560546875
1663861823111510000,9.493510009765625,-0.0034637451171875,0.0031585693359375,0.00384521484375
1663861823121397800,9.503397705078125,-0.0034637451171875,0.0020904541015625,0.0027923583984375
1663861823131316000,9.51331591796875,-0.0023956298828125,0.0052947998046875,0.0006561279296875
1663861823141203700,9.52320361328125,-0.0013275146484375,0.0052947998046875,0.0006561279296875
1663861823151091500,9.533091552734374,-0.0013275146484375,0.0031585693359375,0.0017242431640625
1663861823160979200,9.542979248046874,-0.0013275146484375,0.0020904541015625,0.0017242431640625
1663861823170866700,9.55286669921875,-0.0013275146484375,0.0020904541015625,0.0027923583984375
1663861823180754400,9.56275439453125,-0.0023956298828125,0.0042266845703125,0.0017242431640625
1663861823190642200,9.57264208984375,-0.0013275146484375,0.0052947998046875,-0.0004119873046875
1663861823200530000,9.582530029296874,-0.0013275146484375,0.00634765625,-0.0004119873046875
1663861823210387000,9.592386962890625,-0.0034637451171875,0.00634765625,0.0006561279296875
1663861823220274700,9.602274658203125,-0.0034637451171875,0.0042266845703125,0.0006561279296875
1663861823230162400,9.612162353515625,-0.0023956298828125,0.0031585693359375,0.0017242431640625
1663861823240050200,9.62205029296875,-0.0013275146484375,0.0020904541015625,0.0006561279296875
1663861823249938000,9.63193798828125,-0.0013275146484375,0.0010223388671875,-0.0014801025390625
1663861823259825400,9.641825439453125,-0.0002593994140625,0.0020904541015625,-0.00360107421875
1663861823269713200,9.651713134765625,-0.0002593994140625,0.0031585693359375,-0.004669189453125
1663861823279570400,9.6615703125,0.0008087158203125,0.0042266845703125,-0.00360107421875
1663861823289427500,9.671427490234375,-0.0013275146484375,0.0052947998046875,-0.0025482177734375
1663861823299315200,9.681315185546875,0.0008087158203125,0.00634765625,-0.0004119873046875
1663861823309203000,9.691202880859375,-0.0002593994140625,0.007415771484375,-0.0004119873046875
1663861823319090700,9.701090576171875,-0.0013275146484375,0.007415771484375,-0.0004119873046875
1663861823328978400,9.710978515625,-0.0002593994140625,0.00634765625,0.0006561279296875
1663861823338866200,9.7208662109375,-0.0002593994140625,0.0052947998046875,0.0017242431640625
1663861823348753700,9.730753662109375,0.0008087158203125,0.0052947998046875,0.0017242431640625
1663861823358611000,9.74061083984375,0.0008087158203125,0.00634765625,0.0006561279296875
1663861823368498700,9.750498779296874,-0.0002593994140625,0.00634765625,0.0017242431640625
1663861823378386400,9.760386474609374,-0.0013275146484375,0.00634765625,0.0017242431640625
1663861823388274000,9.77027392578125,-0.0002593994140625,0.0052947998046875,0.0017242431640625
1663861823398131200,9.780131103515625,-0.0002593994140625,0.0042266845703125,0.0017242431640625
1663861823408019000,9.79001904296875,0.0008087158203125,0.0031585693359375,0.0006561279296875
1663861823417906700,9.79990673828125,0.0008087158203125,0.0031585693359375,0.0006561279296875
1663861823427794200,9.809794189453125,0.0008087158203125,0.0031585693359375,-0.0004119873046875
1663861823437682000,9.819681884765625,0.0008087158203125,0.0031585693359375,0.0006561279296875
1663861823447569700,9.829569580078125,0.0018768310546875,0.0042266845703125,0.0006561279296875
1663861823457457400,9.83945751953125,0.0018768310546875,0.0031585693359375,0.0006561279296875
1663861823467345200,9.84934521484375,-0.0002593994140625,0.0042266845703125,-0.0014801025390625
1663861823477232600,9.859232666015625,-0.0002593994140625,0.0031585693359375,-0.0004119873046875
1663861823487120400,9.869120361328125,0.0008087158203125,0.0020904541015625,-0.0004119873046875
1663861823497008000,9.879008056640625,0.0008087158203125,0.0020904541015625,-0.0014801025390625
1663861823506896000,9.888895751953125,0.0008087158203125,0.0042266845703125,-0.0014801025390625
1663861823516753000,9.8987529296875,-0.0002593994140625,0.0031585693359375,-0.0004119873046875
1663861823526640600,9.908640625,-0.0002593994140625,0.0020904541015625,-0.0004119873046875
1663861823536528400,9.9185283203125,-0.0013275146484375,0.0031585693359375,-0.0004119873046875
1663861823546416000,9.928416015625,-0.0013275146484375,0.0042266845703125,-0.0014801025390625
1663861823556304000,9.938303955078124,-0.0002593994140625,0.0031585693359375,0.0006561279296875
1663861823566191400,9.94819140625,0.0008087158203125,0.0031585693359375,0.0006561279296875
1663861823576079000,9.9580791015625,0.0008087158203125,0.0052947998046875,0.0006561279296875
1663861823585966800,9.967966796875,-0.0002593994140625,0.00634765625,0.0006561279296875
1663861823595824000,9.97782421875,0.0008087158203125,0.00634765625,0.0017242431640625
1663861823605712000,9.9877119140625,0.0008087158203125,0.0052947998046875,0.0006561279296875
1663861823615599400,9.997599365234375,-0.0002593994140625,0.007415771484375,-0.0004119873046875
1663861823625487000,10.007487060546875,-0.0013275146484375,0.00634765625,0.0006561279296875
1663861823635374800,10.017374755859375,-0.0002593994140625,0.0052947998046875,-0.0014801025390625
1663861823645262600,10.0272626953125,0.0008087158203125,0.0042266845703125,-0.0004119873046875
1663861823655119600,10.03711962890625,-0.0013275146484375,0.0031585693359375,0.0006561279296875
1663861823665007400,10.04700732421875,0.0008087158203125,0.0031585693359375,-0.00360107421875
1663861823674895000,10.05689501953125,0.0029296875,0.0020904541015625,-0.0025482177734375
1663861823684782800,10.066782958984374,0.0018768310546875,0.0020904541015625,-0.0025482177734375
1663861823694670600,10.076670654296874,0.0008087158203125,0.0031585693359375,-0.0025482177734375
1663861823704558000,10.08655810546875,0.0008087158203125,0.0020904541015625,-0.0025482177734375
1663861823714415400,10.096415283203125,0.0018768310546875,0.0020904541015625,-0.0025482177734375
1663861823724303000,10.10630322265625,0.0018768310546875,0.0020904541015625,-0.0004119873046875
1663861823734160100,10.11616015625,0.0008087158203125,0.0031585693359375,0.0027923583984375
1663861823744047900,10.1260478515625,0.0018768310546875,0.0042266845703125,0.0059814453125
1663861823753935600,10.135935546875,-0.0002593994140625,0.0020904541015625,0.004913330078125
1663861823763823400,10.1458232421875,0.0008087158203125,0.0031585693359375,0.0059814453125
1663861823773711000,10.155711181640624,-0.0002593994140625,0.0042266845703125,0.004913330078125
1663861823783598600,10.1655986328125,-0.0013275146484375,0.0052947998046875,0.0017242431640625
1663861823793486300,10.175486328125,0.0008087158203125,0.007415771484375,0.0006561279296875
1663861823803374000,10.1853740234375,0.0008087158203125,0.00634765625,-0.0004119873046875
1663861823813261800,10.19526171875,0.0008087158203125,0.0042266845703125,0.0017242431640625
1663861823823149600,10.205149658203124,-0.0002593994140625,0.0031585693359375,0.0027923583984375
1663861823833006600,10.215006591796875,0.0008087158203125,0.0020904541015625,0.0027923583984375
1663861823842894300,10.224894287109375,0.0008087158203125,0.0042266845703125,0.0017242431640625
1663861823852751600,10.234751708984374,0.0008087158203125,0.0020904541015625,-0.0004119873046875
1663861823862639400,10.244639404296874,-0.0002593994140625,0.0052947998046875,-0.0014801025390625
1663861823872496400,10.254496337890625,0.0008087158203125,0.0052947998046875,-0.0004119873046875
1663861823882414600,10.26441455078125,0.0008087158203125,0.0031585693359375,-0.0014801025390625
1663861823892302300,10.27430224609375,-0.0002593994140625,0.0031585693359375,-0.0004119873046875
1663861823902190000,10.284190185546874,-0.0002593994140625,-0.0000457763671875,-0.0014801025390625
1663861823912077800,10.294077880859374,-0.0002593994140625,-0.0000457763671875,-0.0014801025390625
1663861823921965300,10.30396533203125,0.0008087158203125,0.0010223388671875,-0.00360107421875
1663861823931853000,10.31385302734375,0.0008087158203125,0.0020904541015625,-0.0025482177734375
1663861823941710300,10.32371044921875,-0.0002593994140625,0.0031585693359375,-0.0025482177734375
1663861823951598000,10.33359814453125,0.0008087158203125,0.0031585693359375,-0.00360107421875
1663861823961455000,10.343455078125,0.0008087158203125,0.0031585693359375,-0.00360107421875
1663861823971342800,10.3533427734375,0.0008087158203125,0.0052947998046875,-0.0004119873046875
1663861823981230600,10.363230712890624,-0.0002593994140625,0.00634765625,-0.0004119873046875
1663861823991118300,10.373118408203124,0.0008087158203125,0.0052947998046875,0.0006561279296875
1663861824000975400,10.382975341796875,0.0008087158203125,0.0052947998046875,0.0017242431640625
1663861824010863000,10.392863037109375,-0.0013275146484375,0.0052947998046875,0.0006561279296875
1663861824020750800,10.402750732421875,0.0008087158203125,0.00634765625,0.0006561279296875
1663861824030638600,10.412638671875,0.0018768310546875,0.0052947998046875,-0.0004119873046875
1663861824040526000,10.422526123046875,0.0008087158203125,0.0020904541015625,-0.0014801025390625
1663861824050383400,10.43238330078125,0.0029296875,0.0020904541015625,-0.0025482177734375
1663861824060301600,10.442301513671875,0.0029296875,0.0020904541015625,-0.00360107421875
1663861824070189300,10.452189208984375,0.003997802734375,-0.0000457763671875,-0.004669189453125
1663861824080077000,10.4620771484375,0.003997802734375,-0.002166748046875,-0.004669189453125
1663861824089964800,10.47196484375,0.0018768310546875,-0.00323486328125,-0.004669189453125
1663861824099852300,10.481852294921875,0.003997802734375,-0.0010986328125,-0.0057373046875
1663861824109740000,10.491739990234375,0.006134033203125,-0.002166748046875,-0.0057373046875
1663861824119627800,10.501627685546875,0.003997802734375,-0.002166748046875,-0.006805419921875
1663861824129515500,10.511515625,0.003997802734375,-0.00323486328125,-0.006805419921875
1663861824139403300,10.5214033203125,0.00506591796875,-0.00323486328125,-0.0057373046875
1663861824149260300,10.53126025390625,0.00506591796875,-0.002166748046875,-0.006805419921875
1663861824159148000,10.54114794921875,0.0029296875,-0.0010986328125,-0.006805419921875
1663861824169005300,10.55100537109375,0.003997802734375,-0.0010986328125,-0.0057373046875
1663861824178892800,10.560892822265625,0.0029296875,-0.0010986328125,-0.004669189453125
1663861824188780500,10.570780517578125,0.003997802734375,-0.0010986328125,-0.00360107421875
1663861824198668300,10.580668212890625,0.0008087158203125,0.0010223388671875,-0.00360107421875
1663861824208556000,10.59055615234375,0.0008087158203125,0.0020904541015625,-0.00360107421875
1663861824218443800,10.60044384765625,0.0029296875,0.0020904541015625,-0.0025482177734375
1663861824228331300,10.610331298828125,0.0029296875,0.0010223388671875,-0.0025482177734375
1663861824238219000,10.620218994140625,0.0029296875,-0.0000457763671875,-0.00360107421875
1663861824248106800,10.630106689453125,0.0018768310546875,0.0010223388671875,-0.0014801025390625
1663861824257994500,10.639994384765625,0.0029296875,-0.0000457763671875,-0.0014801025390625
1663861824267882200,10.64988232421875,0.00506591796875,0.0010223388671875,-0.0014801025390625
1663861824277739300,10.6597392578125,0.003997802734375,-0.0000457763671875,-0.0014801025390625
1663861824287627000,10.669626953125,0.003997802734375,0.0031585693359375,-0.0014801025390625
1663861824297514800,10.6795146484375,0.00506591796875,0.0010223388671875,-0.0014801025390625
1663861824307402500,10.689402587890624,0.003997802734375,0.0010223388671875,-0.0014801025390625
1663861824317290200,10.699290283203124,0.003997802734375,0.0031585693359375,-0.0025482177734375
1663861824327177700,10.709177734375,0.0029296875,0.0020904541015625,-0.0014801025390625
1663861824337035000,10.719034912109375,0.0018768310546875,-0.0000457763671875,-0.0014801025390625
1663861824346922800,10.7289228515625,0.0018768310546875,-0.0000457763671875,-0.0014801025390625
1663861824356810500,10.738810546875,0.0018768310546875,-0.0010986328125,-0.0014801025390625
1663861824366667500,10.74866748046875,0.0029296875,-0.0000457763671875,-0.0025482177734375
1663861824376524800,10.75852490234375,0.00506591796875,-0.0000457763671875,-0.0057373046875
1663861824386443000,10.768443115234374,0.00506591796875,-0.0000457763671875,-0.00360107421875
1663861824396330800,10.778330810546874,0.006134033203125,-0.002166748046875,-0.004669189453125
1663861824406218200,10.78821826171875,0.006134033203125,-0.00323486328125,-0.00360107421875
1663861824416106000,10.79810595703125,0.006134033203125,-0.00323486328125,-0.0025482177734375
1663861824425993700,10.80799365234375,0.003997802734375,-0.002166748046875,0.0027923583984375
1663861824435881500,10.817881591796874,0.00506591796875,0.0020904541015625,0.004913330078125
1663861824445769200,10.827769287109374,0.00506591796875,0.0042266845703125,0.0059814453125
1663861824455656700,10.83765673828125,0.00506591796875,0.0052947998046875,0.0059814453125
1663861824465514000,10.847513916015625,0.00506591796875,0.0042266845703125,0.0059814453125
1663861824475401700,10.857401611328125,0.003997802734375,0.0042266845703125,0.004913330078125
1663861824485258800,10.8672587890625,0.00506591796875,0.00634765625,0.00384521484375
1663861824495146500,10.877146484375,0.006134033203125,0.0052947998046875,0.0017242431640625
1663861824505034200,10.8870341796875,0.006134033203125,0.0042266845703125,0.0027923583984375
1663861824514922000,10.896921875,0.0072021484375,0.0042266845703125,0.0027923583984375
1663861824524809700,10.906809814453124,0.006134033203125,0.0020904541015625,0.0006561279296875
1663861824534697500,10.916697509765624,0.00506591796875,0.0010223388671875,-0.0014801025390625
1663861824544585000,10.9265849609375,0.0029296875,0.0010223388671875,-0.00360107421875
1663861824554472700,10.93647265625,0.0018768310546875,0.0031585693359375,-0.00360107421875
1663861824564330000,10.946330078125,0.0018768310546875,0.0031585693359375,-0.00360107421875
1663861824574187000,10.95618701171875,0.0008087158203125,0.0020904541015625,-0.0025482177734375
1663861824584105200,10.966105224609375,0.0008087158203125,0.0020904541015625,-0.00360107421875
1663861824593962500,10.97596240234375,0.0018768310546875,0.0020904541015625,-0.0025482177734375
1663861824603850200,10.985850341796874,0.0029296875,-0.0000457763671875,-0.00360107421875
1663861824613738000,10.995738037109374,0.003997802734375,0.0010223388671875,-0.004669189453125
1663861824623625500,11.00562548828125,0.006134033203125,0.0020904541015625,-0.004669189453125
1663861824633482800,11.015482666015625,0.006134033203125,0.0042266845703125,-0.00360107421875
1663861824643401000,11.02540087890625,0.00506591796875,0.0052947998046875,-0.0025482177734375
1663861824653288700,11.035288818359374,0.003997802734375,0.00634765625,-0.0014801025390625
1663861824663176400,11.045176513671874,0.003997802734375,0.00848388671875,-0.0004119873046875
1663861824673033500,11.055033447265625,0.0018768310546875,0.007415771484375,0.0006561279296875
1663861824682921200,11.064921142578125,0.0018768310546875,0.00634765625,0.0017242431640625
1663861824692778500,11.074778564453124,0.0029296875,0.0052947998046875,-0.0004119873046875
1663861824702696700,11.08469677734375,0.0018768310546875,0.0042266845703125,-0.0004119873046875
1663861824712553700,11.0945537109375,0.0018768310546875,0.0052947998046875,0.0006561279296875
1663861824722441500,11.10444140625,0.0018768310546875,0.0052947998046875,0.0017242431640625
1663861824732329200,11.1143291015625,0.0029296875,0.0042266845703125,0.0006561279296875
1663861824742217000,11.124217041015624,0.0018768310546875,0.0020904541015625,-0.0004119873046875
1663861824752104400,11.1341044921875,0.0018768310546875,-0.0000457763671875,-0.0004119873046875
1663861824761961700,11.143961669921875,0.0008087158203125,0.0031585693359375,-0.0004119873046875
1663861824771880000,11.1538798828125,0.0018768310546875,0.0042266845703125,-0.0014801025390625
1663861824781767700,11.163767578125,0.0018768310546875,0.0031585693359375,-0.00360107421875
1663861824791655400,11.173655517578124,-0.0013275146484375,0.0020904541015625,-0.0014801025390625
1663861824801543200,11.183543212890624,-0.0013275146484375,0.0020904541015625,-0.0025482177734375
1663861824811430700,11.1934306640625,-0.0013275146484375,0.0020904541015625,-0.0025482177734375
1663861824821288000,11.203287841796875,-0.0002593994140625,0.0020904541015625,-0.0025482177734375
1663861824831175700,11.21317578125,-0.0023956298828125,0.0020904541015625,-0.0014801025390625
1663861824841032700,11.22303271484375,-0.0045166015625,0.0010223388671875,-0.0014801025390625
1663861824850920400,11.23292041015625,-0.0045166015625,0.0042266845703125,-0.0025482177734375
1663861824860808200,11.24280810546875,-0.0045166015625,0.0042266845703125,-0.0014801025390625
1663861824870665500,11.25266552734375,-0.005584716796875,0.00634765625,-0.0014801025390625
1663861824880553000,11.262552978515625,-0.0034637451171875,0.0052947998046875,-0.0014801025390625
1663861824890440700,11.272440673828125,-0.0034637451171875,0.0042266845703125,-0.0004119873046875
1663861824900328400,11.282328369140625,-0.0034637451171875,0.00634765625,0.0006561279296875
1663861824910216200,11.29221630859375,-0.0023956298828125,0.00634765625,0.0006561279296875
1663861824920073200,11.3020732421875,-0.0023956298828125,0.00634765625,0.0006561279296875
1663861824929991400,11.311991455078125,-0.0023956298828125,0.00634765625,-0.0004119873046875
1663861824939879200,11.321879150390625,-0.0013275146484375,0.0052947998046875,-0.0004119873046875
1663861824949767000,11.331766845703125,-0.0013275146484375,0.0031585693359375,0.0006561279296875
1663861824959654700,11.341654541015625,-0.0013275146484375,0.0052947998046875,-0.0004119873046875
1663861824969511700,11.35151171875,-0.0013275146484375,0.0052947998046875,0.0006561279296875
1663861824979399400,11.3613994140625,-0.0023956298828125,0.0052947998046875,-0.0004119873046875
1663861824989287200,11.371287109375,-0.0013275146484375,0.0052947998046875,-0.0004119873046875
1663861824999175000,11.3811748046875,-0.0023956298828125,0.0052947998046875,0.0006561279296875
1663861825009062700,11.391062744140624,-0.0023956298828125,0.0042266845703125,0.0006561279296875
1663861825018950400,11.400950439453124,-0.0023956298828125,0.0052947998046875,0.0006561279296875
1663861825028838000,11.410837890625,-0.0034637451171875,0.0042266845703125,-0.0014801025390625
1663861825038725600,11.4207255859375,-0.0023956298828125,0.0031585693359375,-0.0014801025390625
1663861825048613400,11.43061328125,-0.0002593994140625,0.0042266845703125,-0.0014801025390625
1663861825058501000,11.440501220703124,-0.0013275146484375,0.0042266845703125,-0.0004119873046875
1663861825068388900,11.450388916015624,-0.0002593994140625,0.0020904541015625,-0.0025482177734375
1663861825078246000,11.460245849609375,-0.0013275146484375,-0.0000457763671875,-0.00360107421875
1663861825088133600,11.470133544921875,-0.0013275146484375,0.0010223388671875,-0.0014801025390625
1663861825098021400,11.480021484375,-0.0002593994140625,0.0031585693359375,0.0017242431640625
1663861825107878400,11.48987841796875,-0.0013275146484375,0.0052947998046875,0.00384521484375
1663861825117735700,11.499735595703125,-0.0013275146484375,0.00634765625,0.007049560546875
1663861825127623400,11.50962353515625,-0.0023956298828125,0.0052947998046875,0.007049560546875
1663861825137541600,11.519541748046874,-0.0013275146484375,0.00634765625,0.0059814453125
1663861825147429400,11.529429443359374,-0.0023956298828125,0.007415771484375,0.007049560546875
1663861825157316900,11.53931689453125,-0.0023956298828125,0.007415771484375,0.004913330078125
1663861825167174100,11.549174072265625,-0.0034637451171875,0.0042266845703125,0.00384521484375
1663861825177031400,11.559031494140624,-0.0023956298828125,0.0042266845703125,0.0027923583984375
1663861825186949600,11.56894970703125,-0.0013275146484375,0.0042266845703125,0.0027923583984375
1663861825196837000,11.578837158203125,-0.0013275146484375,0.0031585693359375,0.0027923583984375
1663861825206724900,11.588724853515625,-0.0013275146484375,0.0020904541015625,0.004913330078125
1663861825216582100,11.59858203125,-0.0013275146484375,0.0031585693359375,0.0027923583984375
1663861825226470000,11.608469970703124,-0.0002593994140625,0.00634765625,0.0006561279296875
1663861825236357400,11.618357421875,-0.0023956298828125,0.00634765625,-0.0004119873046875
1663861825246245000,11.6282451171875,-0.0023956298828125,0.007415771484375,0.0006561279296875
1663861825256132900,11.6381328125,-0.0023956298828125,0.0052947998046875,0.0006561279296875
1663861825266020600,11.6480205078125,-0.0023956298828125,0.0020904541015625,-0.0004119873046875
1663861825275908400,11.657908447265624,-0.0034637451171875,0.0010223388671875,0.0006561279296875
1663861825285796000,11.667796142578124,-0.0034637451171875,0.0010223388671875,-0.0004119873046875
1663861825295683600,11.67768359375,-0.0023956298828125,0.0020904541015625,-0.0014801025390625
1663861825305571300,11.6875712890625,0.0008087158203125,0.0042266845703125,-0.0004119873046875
1663861825315428600,11.6974287109375,-0.0002593994140625,0.007415771484375,-0.0014801025390625
1663861825325316400,11.70731640625,-0.0013275146484375,0.009552001953125,-0.0014801025390625
1663861825335173400,11.71717333984375,-0.0002593994140625,0.00848388671875,-0.0025482177734375
1663861825345061000,11.72706103515625,-0.0013275146484375,0.00848388671875,-0.0004119873046875
1663861825354918400,11.73691845703125,-0.0013275146484375,0.009552001953125,0.0006561279296875
1663861825364836600,11.746836669921874,-0.0023956298828125,0.007415771484375,0.0017242431640625
1663861825374724000,11.75672412109375,-0.0013275146484375,0.0052947998046875,0.0027923583984375
1663861825384611800,11.76661181640625,-0.0034637451171875,0.00848388671875,0.0027923583984375
1663861825394499600,11.77649951171875,-0.0013275146484375,0.007415771484375,0.0027923583984375
1663861825404387300,11.78638720703125,-0.0013275146484375,0.007415771484375,0.0006561279296875
1663861825414244400,11.796244384765625,-0.0002593994140625,0.00848388671875,-0.0014801025390625
1663861825424132000,11.806132080078125,-0.0013275146484375,0.00848388671875,-0.0004119873046875
1663861825433989400,11.8159892578125,-0.0002593994140625,0.0042266845703125,-0.0014801025390625
1663861825443907600,11.825907470703125,-0.0013275146484375,0.0042266845703125,-0.0014801025390625
1663861825453795300,11.83579541015625,-0.0013275146484375,0.0052947998046875,-0.0004119873046875
1663861825463682800,11.845682861328125,-0.0002593994140625,0.0052947998046875,0.0006561279296875
1663861825473540000,11.8555400390625,-0.0002593994140625,0.0052947998046875,0.0006561279296875
1663861825483427800,11.865427734375,-0.0002593994140625,0.0042266845703125,0.0017242431640625
1663861825493285000,11.87528515625,0.0018768310546875,0.0042266845703125,-0.0004119873046875
1663861825503203300,11.885203369140624,0.0008087158203125,0.0042266845703125,-0.0004119873046875
1663861825513090800,11.8950908203125,0.0008087158203125,0.0031585693359375,0.0006561279296875
1663861825522978600,11.904978515625,0.0008087158203125,0.0020904541015625,0.0006561279296875
1663861825532866300,11.9148662109375,-0.0002593994140625,0.0052947998046875,0.0006561279296875
1663861825542754000,11.924754150390624,-0.0002593994140625,0.0052947998046875,-0.0014801025390625
1663861825552641800,11.934641845703124,-0.0002593994140625,0.0052947998046875,-0.0004119873046875
1663861825562529300,11.944529296875,-0.0023956298828125,0.0052947998046875,-0.0004119873046875
1663861825572417000,11.9544169921875,-0.0023956298828125,0.007415771484375,-0.0004119873046875
1663861825582274300,11.9642744140625,-0.0023956298828125,0.0052947998046875,0.0006561279296875
1663861825592162000,11.974162109375,-0.0034637451171875,0.0052947998046875,0.0006561279296875
1663861825602049500,11.984049560546875,-0.0002593994140625,0.0031585693359375,-0.0014801025390625
1663861825611937300,11.993937255859375,-0.0002593994140625,0.0031585693359375,-0.0014801025390625
1663861825621825000,12.003824951171875,-0.0023956298828125,0.0031585693359375,-0.0025482177734375
1663861825631712800,12.013712646484375,-0.0013275146484375,0.0042266845703125,-0.0004119873046875
1663861825641600500,12.0236005859375,-0.0013275146484375,0.0042266845703125,-0.0004119873046875
1663861825651457500,12.03345751953125,-0.0013275146484375,0.0042266845703125,0.0006561279296875
1663861825661314800,12.043314697265625,-0.0002593994140625,0.0042266845703125,0.0006561279296875
1663861825671202600,12.05320263671875,-0.0023956298828125,0.00634765625,-0.0004119873046875
1663861825681090000,12.063090087890625,-0.0023956298828125,0.0052947998046875,-0.0004119873046875
1663861825690977800,12.072977783203125,-0.0023956298828125,0.0042266845703125,-0.0004119873046875
1663861825700865500,12.082865478515625,-0.0013275146484375,0.0042266845703125,0.0006561279296875
1663861825710722800,12.092722900390624,-0.0013275146484375,0.0042266845703125,-0.0014801025390625
1663861825720610300,12.1026103515625,-0.0002593994140625,0.0042266845703125,-0.0014801025390625
1663861825730498000,12.112498046875,-0.0002593994140625,0.0020904541015625,-0.0004119873046875
1663861825740355300,12.122355224609375,-0.0023956298828125,0.0031585693359375,-0.0004119873046875
1663861825750273500,12.1322734375,-0.0023956298828125,0.0031585693359375,-0.0004119873046875
1663861825760130800,12.142130859375,-0.0013275146484375,0.0042266845703125,-0.0004119873046875
1663861825770049000,12.152049072265624,-0.0002593994140625,0.0020904541015625,-0.0014801025390625
1663861825779936500,12.1619365234375,0.0008087158203125,0.0020904541015625,-0.0025482177734375
1663861825789824300,12.17182421875,0.0008087158203125,0.0031585693359375,-0.0025482177734375
1663861825799712000,12.1817119140625,-0.0002593994140625,0.0031585693359375,-0.0004119873046875
1663861825809569300,12.1915693359375,-0.0002593994140625,0.0020904541015625,0.0017242431640625
1663861825819456800,12.201456787109375,0.0008087158203125,0.0031585693359375,0.00384521484375
1663861825829344500,12.211344482421875,-0.0002593994140625,0.0031585693359375,0.004913330078125
1663861825839232300,12.221232177734375,-0.0013275146484375,0.0042266845703125,0.0059814453125
1663861825849120000,12.2311201171875,-0.0023956298828125,0.0042266845703125,0.007049560546875
1663861825858977000,12.24097705078125,-0.0013275146484375,0.0031585693359375,0.00384521484375
1663861825868864800,12.25086474609375,-0.0023956298828125,0.0042266845703125,0.0006561279296875
1663861825878752500,12.26075244140625,-0.0002593994140625,0.00634765625,0.0017242431640625
1663861825888640300,12.27064013671875,-0.0002593994140625,0.00634765625,0.0017242431640625
1663861825898528000,12.280528076171874,-0.0002593994140625,0.0020904541015625,0.0027923583984375
1663861825908385000,12.290385009765625,-0.0002593994140625,0.0020904541015625,0.00384521484375
1663861825918272800,12.300272705078125,-0.0002593994140625,0.0010223388671875,0.00384521484375
1663861825928160500,12.310160400390625,-0.0002593994140625,0.0020904541015625,-0.0004119873046875
1663861825938048300,12.32004833984375,-0.0013275146484375,0.0052947998046875,0.0006561279296875
1663861825947935700,12.329935791015625,-0.0013275146484375,0.0052947998046875,-0.0014801025390625
1663861825957823500,12.339823486328125,-0.0002593994140625,0.0042266845703125,-0.0004119873046875
1663861825967680800,12.3496806640625,-0.0013275146484375,0.0031585693359375,-0.0014801025390625
1663861825977568500,12.359568603515624,-0.0023956298828125,0.0020904541015625,-0.0004119873046875
1663861825987456300,12.369456298828124,-0.0023956298828125,0.0010223388671875,-0.0014801025390625
1663861825997343700,12.37934375,-0.0013275146484375,0.0031585693359375,-0.0025482177734375
1663861826007231500,12.3892314453125,-0.0013275146484375,0.0042266845703125,-0.0014801025390625
1663861826017119200,12.399119140625,0.0008087158203125,0.0052947998046875,-0.0004119873046875
1663861826027007000,12.409007080078124,0.0008087158203125,0.0052947998046875,0.0027923583984375
1663861826036894700,12.418894775390624,-0.0002593994140625,0.00634765625,0.0006561279296875
1663861826046782200,12.4287822265625,0.0018768310546875,0.007415771484375,0.0006561279296875
1663861826056639500,12.438639404296875,0.0018768310546875,0.0052947998046875,0.0017242431640625
1663861826066527200,12.44852734375,0.0008087158203125,0.00634765625,0.0027923583984375
1663861826076415000,12.4584150390625,0.0008087158203125,0.00634765625,0.0027923583984375
1663861826086302500,12.468302490234375,0.0008087158203125,0.00634765625,0.0027923583984375
1663861826096190200,12.478190185546875,-0.0002593994140625,0.007415771484375,0.00384521484375
1663861826106078000,12.488077880859375,-0.0002593994140625,0.007415771484375,0.0027923583984375
1663861826115935200,12.497935302734374,0.0008087158203125,0.00848388671875,0.0027923583984375
1663861826125822700,12.50782275390625,0.0018768310546875,0.00848388671875,0.0017242431640625
1663861826135710500,12.51771044921875,0.0008087158203125,0.0042266845703125,0.0006561279296875
1663861826145598200,12.52759814453125,-0.0013275146484375,0.0042266845703125,0.0006561279296875
1663861826155455500,12.53745556640625,0.0018768310546875,0.0042266845703125,0.0017242431640625
1663861826165343000,12.547343017578125,0.0029296875,0.0031585693359375,0.0006561279296875
1663861826175200300,12.5572001953125,0.0018768310546875,0.0031585693359375,0.0006561279296875
1663861826185088000,12.567087890625,0.0029296875,0.0042266845703125,0.0006561279296875
1663861826195006200,12.577006103515625,0.0029296875,0.0031585693359375,0.0006561279296875
1663861826204863500,12.586863525390624,0.0018768310546875,0.0031585693359375,0.0006561279296875
1663861826214751000,12.5967509765625,-0.0002593994140625,0.0020904541015625,0.0006561279296875
1663861826224638700,12.606638671875,0.0008087158203125,0.0031585693359375,0.0006561279296875
1663861826234526500,12.6165263671875,0.0008087158203125,0.0031585693359375,-0.0004119873046875
1663861826244414200,12.626414306640624,-0.0013275146484375,0.0042266845703125,-0.0004119873046875
1663861826254271200,12.636271240234375,-0.0002593994140625,0.0052947998046875,-0.0014801025390625
1663861826264189400,12.646189453125,-0.0002593994140625,0.0042266845703125,-0.0025482177734375
1663861826274077200,12.6560771484375,-0.0002593994140625,0.0020904541015625,-0.0025482177734375
1663861826283965000,12.66596484375,-0.0013275146484375,0.0031585693359375,-0.0025482177734375
1663861826293852700,12.675852783203124,0.0008087158203125,0.0031585693359375,-0.0025482177734375
1663861826303740400,12.685740478515624,0.0008087158203125,0.0010223388671875,-0.00360107421875
1663861826313628000,12.6956279296875,0.0008087158203125,0.0010223388671875,-0.0014801025390625
1663861826323515600,12.705515625,-0.0013275146484375,0.0031585693359375,-0.0014801025390625
1663861826333373000,12.715373046875,-0.0002593994140625,0.0042266845703125,-0.00360107421875
1663861826343230000,12.72522998046875,0.0018768310546875,0.0031585693359375,-0.0025482177734375
1663861826353087200,12.735087158203125,-0.0002593994140625,0.0020904541015625,-0.0014801025390625
1663861826363005400,12.74500537109375,0.0018768310546875,0.0042266845703125,-0.0025482177734375
1663861826372862700,12.75486279296875,0.0008087158203125,0.0010223388671875,-0.0014801025390625
1663861826382750200,12.764750244140625,0.0018768310546875,0.0010223388671875,-0.0025482177734375
1663861826392668400,12.77466845703125,0.0018768310546875,-0.0000457763671875,-0.0014801025390625
1663861826402525700,12.784525634765625,0.0029296875,-0.0010986328125,-0.00360107421875
1663861826412413400,12.794413330078125,0.0029296875,-0.0010986328125,-0.006805419921875
1663861826422301200,12.80430126953125,0.0029296875,-0.0000457763671875,-0.00787353515625
1663861826432189000,12.81418896484375,0.0029296875,-0.00323486328125,-0.00787353515625
1663861826442076400,12.824076416015625,0.003997802734375,-0.004302978515625,-0.0089263916015625
1663861826451933700,12.83393359375,0.0029296875,-0.00323486328125,-0.0099945068359375
1663861826461821400,12.843821533203124,-0.0002593994140625,-0.004302978515625,-0.00787353515625
1663861826471709200,12.853709228515624,-0.0002593994140625,-0.00537109375,-0.0089263916015625
1663861826481566200,12.863566162109375,0.0008087158203125,-0.00537109375,-0.0099945068359375
1663861826491484400,12.873484375,0.0018768310546875,-0.00537109375,-0.0099945068359375
1663861826501341700,12.883341796875,0.0029296875,-0.00323486328125,-0.0121307373046875
1663861826511260000,12.893260009765624,0.0018768310546875,-0.004302978515625,-0.0121307373046875
1663861826521147600,12.903147705078124,0.0029296875,-0.00323486328125,-0.0089263916015625
1663861826531035100,12.91303515625,0.003997802734375,-0.0000457763671875,-0.00787353515625
1663861826540923000,12.9229228515625,0.0029296875,-0.002166748046875,-0.00787353515625
1663861826550780200,12.9327802734375,0.0029296875,-0.0010986328125,-0.004669189453125
1663861826560637200,12.94263720703125,0.003997802734375,0.0020904541015625,-0.00360107421875
1663861826570555400,12.952555419921875,0.0018768310546875,0.007415771484375,-0.004669189453125
1663861826580412700,12.96241259765625,0.0008087158203125,0.0106201171875,-0.004669189453125
1663861826590300400,12.972300537109374,0.0018768310546875,0.0127410888671875,-0.00787353515625
1663861826600188200,12.982188232421874,0.0029296875,0.007415771484375,-0.0089263916015625
1663861826610075600,12.99207568359375,0.0029296875,-0.0000457763671875,-0.006805419921875
