time,seconds_elapsed,z,y,x
1663861813871202800,0.253202880859375,-0.99493408203125,-1.462738037109375,-0.2862396240234375
1663861813881029600,0.263029541015625,-1.00665283203125,-1.4435577392578125,0.095123291015625
1663861813890917000,0.272917236328125,-1.111053466796875,-1.2081298828125,0.4349517822265625
1663861813900774400,0.2827744140625,-1.2282257080078125,-0.82464599609375,0.6501312255859375
1663861813910631700,0.292631591796875,-1.2868194580078125,-1.08563232421875,0.6852874755859375
1663861813920488700,0.30248876953125,-1.3177032470703125,-1.7844390869140625,0.687408447265625
1663861813930407000,0.312406982421875,-1.4125213623046875,-2.2105560302734375,0.7769012451171875
1663861813940264200,0.32226416015625,-1.54034423828125,-2.3458404541015625,0.9026031494140625
1663861813950182400,0.332182373046875,-1.6372833251953125,-2.2723388671875,0.962249755859375
1663861813960070100,0.342070068359375,-1.6639251708984375,-1.975128173828125,0.9462738037109375
1663861813969957600,0.35195751953125,-1.602142333984375,-1.5383758544921875,0.8791656494140625
1663861813979845400,0.361845458984375,-1.4998626708984375,-1.154876708984375,0.7651824951171875
1663861813989702700,0.37170263671875,-1.4689788818359375,-1.06219482421875,0.5798187255859375
1663861813999559700,0.3815595703125,-1.5265045166015625,-1.1037445068359375,0.3550567626953125
1663861814009478000,0.391477783203125,-1.4817657470703125,-1.00787353515625,0.2059173583984375
1663861814019365600,0.40136572265625,-1.1824188232421875,-0.92584228515625,0.1835479736328125
1663861814029253400,0.41125341796875,-0.8489990234375,-1.00787353515625,0.254913330078125
1663861814039141000,0.42114111328125,-0.643402099609375,-1.162322998046875,0.439208984375
1663861814049028900,0.43102880859375,-0.537933349609375,-1.1815032958984375,0.687408447265625
1663861814058916600,0.44091650390625,-0.57415771484375,-1.1804351806640625,0.8173828125
1663861814068804000,0.45080419921875,-0.789337158203125,-1.2731170654296875,0.7545318603515625
1663861814078691800,0.46069189453125,-1.042877197265625,-1.3647308349609375,0.5872802734375
1663861814088549000,0.470549072265625,-1.1174468994140625,-1.2379608154296875,0.4115142822265625
1663861814098436900,0.480436767578125,-0.9874725341796875,-0.86724853515625,0.22296142578125
1663861814108324400,0.490324462890625,-0.77655029296875,-0.9002685546875,0.198455810546875
1663861814118212000,0.500212158203125,-0.5912017822265625,-1.1484832763671875,0.2985992431640625
1663861814128099800,0.510099853515625,-0.526214599609375,-1.324249267578125,0.3444061279296875
1663861814137987600,0.519987548828125,-0.5794830322265625,-1.22198486328125,0.24639892578125
1663861814147844600,0.5298447265625,-0.707305908203125,-1.006805419921875,0.0450592041015625
1663861814157732400,0.539732421875,-0.8095855712890625,-0.67230224609375,-0.153076171875
1663861814167620000,0.5496201171875,-0.7978668212890625,-0.20892333984375,-0.2851715087890625
1663861814177507800,0.5595078125,-0.6583099365234375,-0.0416717529296875,-0.3192596435546875
1663861814187395600,0.5693955078125,-0.5347442626953125,-0.11517333984375,-0.2894287109375
1663861814197283000,0.579282958984375,-0.53900146484375,-0.194000244140625,-0.2617340087890625
1663861814207140400,0.589140380859375,-0.60931396484375,-0.386810302734375,-0.243621826171875
1663861814217028000,0.599028076171875,-0.6242218017578125,-0.4869537353515625,-0.2372283935546875
1663861814226885000,0.608885009765625,-0.528350830078125,-0.312255859375,-0.2617340087890625
1663861814236772900,0.61877294921875,-0.36749267578125,-0.0864105224609375,-0.323516845703125
1663861814246630100,0.628630126953125,-0.2247467041015625,0.0840301513671875,-0.3852996826171875
1663861814256548400,0.63854833984375,-0.1246185302734375,0.08935546875,-0.382110595703125
1663861814266405400,0.6484052734375,-0.08306884765625,-0.1098480224609375,-0.278778076171875
1663861814276293000,0.658293212890625,-0.0766754150390625,-0.433685302734375,-0.09661865234375
1663861814286180900,0.668180908203125,-0.0330047607421875,-0.740478515625,0.0897979736328125
1663861814296068600,0.678068603515625,-0.003173828125,-0.934356689453125,0.18780517578125
1663861814305956400,0.687956298828125,-0.014892578125,-0.924774169921875,0.1718292236328125
1663861814315844000,0.697843994140625,-0.013824462890625,-0.800140380859375,0.095123291015625
1663861814325731600,0.707731689453125,0.019195556640625,-0.6584625244140625,0.0365447998046875
1663861814335619300,0.717619384765625,0.089508056640625,-0.65313720703125,0.0471954345703125
1663861814345507000,0.727507080078125,0.2194671630859375,-0.7926788330078125,0.175018310546875
1663861814355394800,0.737394775390625,0.45062255859375,-1.004669189453125,0.4221649169921875
1663861814365282600,0.747282470703125,0.76275634765625,-1.3135986328125,0.6980743408203125
1663861814375170000,0.757170166015625,1.024810791015625,-1.3892364501953125,0.9132537841796875
1663861814385057800,0.767057861328125,1.19525146484375,-1.152740478515625,1.031494140625
1663861814394915000,0.7769150390625,1.3134918212890625,-0.891754150390625,1.0357513427734375
1663861814404802800,0.786802734375,1.38592529296875,-0.813995361328125,0.95159912109375
1663861814414690300,0.796690185546875,1.4615631103515625,-1.053680419921875,0.8291015625
1663861814424578000,0.806578125,1.502044677734375,-1.5490264892578125,0.7609100341796875
1663861814434465800,0.8164658203125,1.4977874755859375,-2.07952880859375,0.7992706298828125
1663861814444324600,0.82632470703125,1.490325927734375,-2.5876617431640625,0.9239044189453125
1663861814454212400,0.83621240234375,1.54998779296875,-3.0776824951171875,1.090087890625
1663861814464100000,0.84610009765625,1.663970947265625,-3.4995269775390625,1.2637176513671875
1663861814473987800,0.85598779296875,1.7545166015625,-3.912841796875,1.441619873046875
1663861814483875600,0.86587548828125,1.7268218994140625,-4.4209747314453125,1.6173858642578125
1663861814493763000,0.87576318359375,1.5712890625,-5.09954833984375,1.747344970703125
1663861814503650800,0.88565087890625,1.4647674560546875,-5.64923095703125,1.7910308837890625
1663861814513538600,0.89553857421875,1.605377197265625,-5.4521484375,1.7452239990234375
1663861814523395800,0.905395751953125,2.0581207275390625,-4.5147247314453125,1.62591552734375
1663861814533283600,0.91528369140625,2.7132568359375,-3.420684814453125,1.4149932861328125
1663861814543171000,0.925171142578125,3.3343048095703125,-2.7644805908203125,1.008056640625
1663861814553058800,0.935058837890625,3.784912109375,-2.7197418212890625,0.3976593017578125
1663861814562946600,0.944946533203125,4.1439056396484375,-3.2012481689453125,-0.1232452392578125
1663861814572834300,0.954834228515625,4.54443359375,-3.8404083251953125,-0.311798095703125
1663861814582691300,0.96469140625,4.9428558349609375,-4.1312255859375,-0.2713165283203125
1663861814592579000,0.9745791015625,5.2464447021484375,-4.0428009033203125,-0.179718017578125
1663861814602466800,0.984466796875,5.3977203369140625,-3.8350830078125,-0.142425537109375
1663861814612354600,0.9943544921875,5.5212860107421875,-3.8063201904296875,-0.1456298828125
1663861814622242300,1.0042421875,5.7140960693359375,-3.9075164794921875,-0.0785064697265625
1663861814632129800,1.0141298828125,5.7844085693359375,-3.9522552490234375,0.0897979736328125
1663861814641987000,1.023987060546875,5.574554443359375,-3.7051239013671875,0.3614501953125
1663861814651874800,1.033874755859375,5.1825408935546875,-3.1330718994140625,0.6575927734375
1663861814661762600,1.043762451171875,4.7713470458984375,-2.4832611083984375,0.858917236328125
1663861814671650000,1.053650146484375,4.4389801025390625,-2.1519622802734375,0.952667236328125
1663861814681537800,1.063537841796875,4.2653350830078125,-2.2371826171875,1.030426025390625
1663861814691425500,1.073425537109375,4.1897125244140625,-2.417205810546875,1.1827545166015625
1663861814701313300,1.083313232421875,4.0395050048828125,-2.2659454345703125,1.4245758056640625
1663861814711170300,1.09317041015625,3.7209930419921875,-1.986846923828125,1.63336181640625
1663861814721058000,1.10305810546875,3.281036376953125,-1.8920440673828125,1.7537384033203125
1663861814730915300,1.112915283203125,2.7622528076171875,-1.8078765869140625,1.861328125
1663861814740803000,1.122802978515625,2.256256103515625,-1.530914306640625,2.0051422119140625
1663861814750690600,1.132690673828125,1.86956787109375,-1.2550048828125,2.1532135009765625
1663861814760578300,1.142578369140625,1.5755462646484375,-1.2038726806640625,2.322601318359375
1663861814770466000,1.152466064453125,1.276214599609375,-1.279510498046875,2.524993896484375
1663861814780353800,1.162353759765625,0.88525390625,-1.3210601806640625,2.6688079833984375
1663861814790211000,1.172211181640625,0.47833251953125,-1.403076171875,2.6773223876953125
1663861814800098600,1.1820986328125,0.167266845703125,-1.402008056640625,2.6208648681640625
1663861814809986300,1.191986328125,-0.0223541259765625,-1.3402252197265625,2.57293701171875
1663861814819874000,1.2018740234375,-0.093719482421875,-1.324249267578125,2.4951629638671875
1663861814829761800,1.21176171875,-0.0415191650390625,-1.437164306640625,2.310882568359375
1663861814839649500,1.2216494140625,0.0735321044921875,-1.5713958740234375,2.106353759765625
1663861814849537000,1.231537109375,0.0479583740234375,-1.4989471435546875,1.576904296875
1663861814859424800,1.2414248046875,-0.1224822998046875,-1.3082733154296875,0.393402099609375
1663861814869312500,1.2513125,-0.0074310302734375,-0.6669769287109375,-0.530181884765625
1663861814879200300,1.2612001953125,0.234375,-0.0320892333984375,-0.908355712890625
1663861814889057300,1.271057373046875,0.2269287109375,0.283233642578125,-0.94989013671875
1663861814898945000,1.280945068359375,0.102294921875,0.257659912109375,-0.7762603759765625
1663861814908832800,1.290832763671875,0.0032196044921875,-0.158843994140625,-0.528045654296875
1663861814918720500,1.300720458984375,0.2450408935546875,-0.84381103515625,-0.7379150390625
1663861814928608300,1.310608154296875,0.9374542236328125,-1.143157958984375,-1.202362060546875
1663861814938495700,1.320495849609375,1.7832794189453125,-0.6478118896484375,-1.2130126953125
1663861814948353000,1.33035302734375,2.17315673828125,-0.104522705078125,-0.9008941650390625
1663861814958240800,1.34024072265625,1.8045806884765625,-0.539154052734375,0.2144317626953125
1663861814968128500,1.35012841796875,0.8458404541015625,-1.91546630859375,1.498077392578125
1663861814978016000,1.36001611328125,0.1033477783203125,-2.9487762451171875,2.341766357421875
1663861814987903700,1.36990380859375,-0.0543060302734375,-2.5919189453125,1.8794403076171875
1663861814997791500,1.37979150390625,0.1843109130859375,-1.09735107421875,0.734283447265625
1663861815007679200,1.38967919921875,0.0799102783203125,0.07550048828125,0.0535888671875
1663861815017536500,1.39953662109375,-0.32061767578125,0.2651214599609375,-0.2947540283203125
1663861815027424000,1.409424072265625,-0.479339599609375,0.3439483642578125,-0.473724365234375
1663861815037311700,1.419311767578125,-0.0969085693359375,0.635833740234375,-0.54296875
1663861815047199500,1.429199462890625,0.726531982421875,0.8115997314453125,-0.5621337890625
1663861815057056800,1.439056884765625,1.28472900390625,0.885101318359375,-0.3874359130859375
1663861815066913800,1.448913818359375,1.628814697265625,-0.4954681396484375,0.0301513671875
1663861815076801500,1.458801513671875,2.1443939208984375,-2.372467041015625,0.5574493408203125
1663861815086689300,1.468689208984375,2.446929931640625,-3.2321319580078125,0.882354736328125
1663861815096546300,1.47854638671875,2.5555877685546875,-3.608184814453125,0.8013916015625
1663861815106434000,1.48843408203125,2.792083740234375,-3.958648681640625,0.4456024169921875
1663861815116352300,1.498352294921875,3.109527587890625,-3.834014892578125,0.3316192626953125
1663861815126209500,1.50820947265625,2.9902191162109375,-2.1540985107421875,0.915374755859375
1663861815136097300,1.51809716796875,2.3521270751953125,0.0254364013671875,1.931640625
1663861815145984800,1.52798486328125,1.832275390625,-0.537017822265625,2.56866455078125
1663861815155872500,1.53787255859375,2.1326751708984375,-1.402008056640625,1.8698577880859375
1663861815165760300,1.54776025390625,2.209381103515625,-1.918670654296875,0.62030029296875
1663861815175648000,1.55764794921875,1.6820831298828125,-1.77911376953125,0.0589141845703125
1663861815185535700,1.56753564453125,1.57342529296875,-0.75433349609375,0.4189605712890625
1663861815195423200,1.57742333984375,1.274078369140625,-0.3932037353515625,0.9782257080078125
1663861815205311000,1.58731103515625,1.0887298583984375,-1.190032958984375,0.5989990234375
1663861815215198700,1.59719873046875,1.1228179931640625,-0.322906494140625,-0.06573486328125
1663861815225086500,1.60708642578125,1.1324005126953125,1.0906982421875,-0.43963623046875
1663861815234974200,1.61697412109375,0.8714141845703125,1.493377685546875,-0.779449462890625
1663861815244862000,1.626862060546875,0.5507659912109375,1.5881805419921875,-1.0979766845703125
1663861815254749400,1.63674951171875,0.2077484130859375,1.458221435546875,-1.181060791015625
1663861815264606700,1.646606689453125,-0.0777435302734375,0.9948272705078125,-1.15655517578125
1663861815274494500,1.656494384765625,0.0373077392578125,0.532501220703125,-1.0947723388671875
1663861815284382200,1.66638232421875,0.1949615478515625,0.466461181640625,-0.80609130859375
1663861815294269700,1.676269775390625,0.303619384765625,0.228912353515625,-0.3672027587890625
1663861815304157400,1.686157470703125,0.291900634765625,-0.2344818115234375,0.0344085693359375
1663861815314045200,1.696045166015625,0.45489501953125,-0.68402099609375,0.3507843017578125
1663861815323902500,1.70590234375,0.6668853759765625,-1.1932220458984375,0.53082275390625
1663861815333790000,1.7157900390625,0.8213348388671875,-1.507476806640625,0.75665283203125
1663861815343677700,1.725677734375,0.85009765625,-1.3093414306640625,0.8567962646484375
1663861815353565400,1.7355654296875,0.7339935302734375,-0.845947265625,0.6479949951171875
1663861815363453200,1.745453125,0.592315673828125,-0.4880218505859375,0.356109619140625
1663861815373341000,1.7553408203125,0.78619384765625,-0.6510009765625,0.1909942626953125
1663861815383198000,1.765197998046875,1.3497161865234375,-1.6715240478515625,0.075958251953125
1663861815393085700,1.775085693359375,1.8248138427734375,-2.51947021484375,0.4104461669921875
1663861815402973400,1.784973388671875,2.303131103515625,-4.80340576171875,0.54998779296875
1663861815412861200,1.794861083984375,2.2477264404296875,-6.7496490478515625,0.973968505859375
1663861815422748700,1.804748779296875,1.971832275390625,-6.86895751953125,1.8144683837890625
1663861815432606000,1.81460595703125,1.459442138671875,-6.365081787109375,2.2565460205078125
1663861815442493700,1.82449365234375,1.1430511474609375,-5.65667724609375,2.2352447509765625
1663861815452381400,1.83438134765625,1.2335968017578125,-3.7455902099609375,1.62591552734375
1663861815462269000,1.84426904296875,1.7012481689453125,-1.462738037109375,0.972900390625
1663861815472156700,1.85415673828125,2.458648681640625,-0.5093231201171875,1.020843505859375
1663861815482014000,1.864013916015625,3.1169891357421875,-1.01531982421875,1.5747833251953125
1663861815491901700,1.873901611328125,3.1595916748046875,-2.10296630859375,2.356689453125
1663861815501789400,1.88378955078125,3.1020660400390625,-2.3192138671875,2.673065185546875
1663861815511677000,1.893677001953125,3.07757568359375,-1.5266571044921875,2.306610107421875
1663861815521564700,1.903564697265625,3.0360260009765625,-1.3199920654296875,1.5183258056640625
1663861815531452400,1.913452392578125,3.32684326171875,-2.2190704345703125,0.72149658203125
1663861815541340200,1.923340087890625,3.8445587158203125,-2.4470367431640625,0.6171112060546875
1663861815551228000,1.933227783203125,3.61126708984375,-1.6406402587890625,0.9899444580078125
1663861815561115400,1.943115478515625,2.8091278076171875,-0.5093231201171875,1.1625213623046875
1663861815570972700,1.95297265625,2.2519989013671875,0.669921875,1.190216064453125
1663861815580860400,1.9628603515625,1.3763427734375,0.623046875,1.544952392578125
1663861815590748200,1.972748046875,0.3004302978515625,0.1181182861328125,1.8826446533203125
1663861815600635600,1.9826357421875,-0.0340728759765625,-0.240875244140625,1.6653289794921875
1663861815610523400,1.9925234375,0.22479248046875,-0.74261474609375,1.1039276123046875
1663861815620411100,2.0024111328125,0.4996337890625,-1.1165313720703125,0.5989990234375
1663861815630268400,2.012268310546875,0.6285247802734375,-1.201751708984375,0.26556396484375
1663861815640156000,2.022156005859375,0.5145416259765625,-0.9098663330078125,0.1015167236328125
1663861815650043600,2.032043701171875,0.3100128173828125,-0.5103912353515625,-0.0124664306640625
1663861815659931400,2.041931396484375,0.237579345703125,-0.277099609375,-0.2415008544921875
1663861815669819100,2.051819091796875,0.30682373046875,-0.2003936767578125,-0.5227203369140625
1663861815679707000,2.061706787109375,0.4005584716796875,-0.262176513671875,-0.7261962890625
1663861815689594400,2.071594482421875,0.4825897216796875,-0.3473968505859375,-0.9030303955078125
1663861815699451600,2.08145166015625,0.5177459716796875,-0.4059906005859375,-1.0489654541015625
1663861815709339400,2.09133935546875,0.5038909912109375,-0.4070587158203125,-1.183197021484375
1663861815719227100,2.10122705078125,0.4730072021484375,-0.39215087890625,-1.340850830078125
1663861815729115000,2.111114990234375,0.44317626953125,-0.3719024658203125,-1.53472900390625
1663861815739002400,2.12100244140625,0.4580841064453125,-0.3410186767578125,-1.761627197265625
1663861815748890000,2.13089013671875,0.47833251953125,-0.3079833984375,-2.0311431884765625
1663861815758747400,2.140747314453125,0.108673095703125,-0.206787109375,-2.2942657470703125
1663861815768635100,2.15063525390625,-0.25457763671875,-0.026763916015625,-2.3144989013671875
1663861815778522600,2.160522705078125,-0.4591064453125,0.1319732666015625,-2.08013916015625
1663861815788380000,2.1703798828125,-0.5666961669921875,0.2757720947265625,-1.728607177734375
1663861815798237200,2.1802373046875,-0.117156982421875,0.3237152099609375,-1.3791961669921875
1663861815808155400,2.1901552734375,0.9694061279296875,0.123443603515625,-0.9594879150390625
1663861815818043000,2.20004296875,1.38592529296875,0.4344940185546875,-0.736846923828125
1663861815827930600,2.2099306640625,0.991790771484375,0.7583465576171875,-0.803955078125
1663861815837788000,2.219787841796875,0.590179443359375,0.4920196533203125,-0.9520263671875
1663861815847675600,2.229675537109375,0.5273284912109375,-0.001190185546875,-1.05535888671875
1663861815857563100,2.239563232421875,0.73931884765625,-0.28668212890625,-1.143768310546875
1663861815867451000,2.249450927734375,0.96728515625,-0.4773712158203125,-1.2002410888671875
1663861815877338600,2.259338623046875,1.013092041015625,-0.61798095703125,-1.1885223388671875
1663861815887226400,2.269226318359375,0.888458251953125,-0.7042694091796875,-1.0809173583984375
1663861815897114000,2.279114013671875,0.76275634765625,-0.753265380859375,-0.931793212890625
1663861815907001600,2.289001708984375,0.6977691650390625,-0.583892822265625,-0.8817138671875
1663861815916889300,2.298889404296875,0.599761962890625,-0.300537109375,-0.9285888671875
1663861815926777000,2.308777099609375,0.5529022216796875,-0.090667724609375,-1.0020904541015625
1663861815936664800,2.318664794921875,0.50921630859375,0.0829620361328125,-1.0937042236328125
1663861815946522000,2.328522216796875,0.4911041259765625,0.1852264404296875,-1.1629486083984375
1663861815956409600,2.33840966796875,0.48577880859375,0.1745758056640625,-1.19384765625
1663861815966297300,2.34829736328125,0.45489501953125,0.14794921875,-1.2066192626953125
1663861815976185000,2.35818505859375,0.4943084716796875,0.1660614013671875,-1.1650848388671875
1663861815986042400,2.36804248046875,0.553955078125,0.25872802734375,-1.1309967041015625
1663861815995929900,2.377929931640625,0.4815216064453125,0.2672576904296875,-1.091583251953125
1663861816005787100,2.387787109375,0.305755615234375,0.2661895751953125,-1.0340576171875
1663861816015675000,2.3976748046875,-0.0330047607421875,0.304534912109375,-0.943511962890625
1663861816025562600,2.407562744140625,-0.4537811279296875,0.341827392578125,-0.82952880859375
1663861816035450000,2.4174501953125,-0.8202362060546875,0.3343658447265625,-0.713409423828125
1663861816045307400,2.427307373046875,-1.087615966796875,0.34075927734375,-0.668670654296875
1663861816055225600,2.4372255859375,-1.256988525390625,0.2747039794921875,-0.7325897216796875
1663861816065113300,2.44711328125,-1.245269775390625,0.0627288818359375,-0.9019622802734375
1663861816074970400,2.456970458984375,-0.9981231689453125,-0.2579193115234375,-1.0585479736328125
1663861816084858000,2.466858154296875,-0.5432586669921875,-0.435821533203125,-1.1427154541015625
1663861816094745900,2.476745849609375,-0.11822509765625,-0.297332763671875,-1.26947021484375
1663861816104633600,2.486633544921875,0.214141845703125,-0.195068359375,-1.4132843017578125
1663861816114521300,2.496521240234375,0.45489501953125,-0.0512542724609375,-1.5613555908203125
1663861816124408800,2.506408935546875,0.3994903564453125,-0.0054473876953125,-1.648712158203125
1663861816134296600,2.516296630859375,0.3675384521484375,-0.24407958984375,-1.6519012451171875
1663861816144184300,2.526184326171875,0.535858154296875,-0.5689849853515625,-1.6572265625
1663861816154072000,2.536072021484375,0.6775360107421875,-0.868316650390625,-1.7009124755859375
1663861816163959800,2.545959716796875,0.7201385498046875,-0.9354248046875,-1.7925262451171875
1663861816173816800,2.55581689453125,0.6785888671875,-0.7724456787109375,-1.9022369384765625
1663861816183674000,2.565674072265625,0.59124755859375,-0.55938720703125,-1.9938507080078125
1663861816193561900,2.575561767578125,0.498565673828125,-0.457122802734375,-2.104644775390625
1663861816203449600,2.58544970703125,0.4037628173828125,-0.4880218505859375,-2.2069091796875
1663861816213337000,2.595337158203125,0.3536834716796875,-0.628631591796875,-2.299591064453125
1663861816223224800,2.605224853515625,0.3654022216796875,-0.857666015625,-2.34539794921875
1663861816233112600,2.615112548828125,0.3877716064453125,-0.9514007568359375,-2.3943939208984375
1663861816243000300,2.625000244140625,0.3515625,-0.901336669921875,-2.4529876708984375
1663861816252888000,2.63488818359375,0.284454345703125,-0.8512725830078125,-2.4881439208984375
1663861816262775600,2.644775634765625,0.1843109130859375,-0.763916015625,-2.5424652099609375
1663861816272663300,2.654663330078125,0.0809783935546875,-0.7095947265625,-2.57122802734375
1663861816282551000,2.664551025390625,0.033050537109375,-0.687225341796875,-2.5669708251953125
1663861816292438800,2.674438720703125,0.0373077392578125,-0.6211700439453125,-2.5765533447265625
1663861816302326500,2.684326416015625,0.102294921875,-0.6222381591796875,-2.569091796875
1663861816312183600,2.69418359375,0.145965576171875,-0.652069091796875,-2.539276123046875
1663861816322071300,2.7040712890625,0.099090576171875,-0.5796356201171875,-2.52862548828125
1663861816331959000,2.713958984375,0.028778076171875,-0.492279052734375,-2.501983642578125
1663861816341846800,2.7238466796875,-0.0298004150390625,-0.4794921875,-2.468963623046875
1663861816351734300,2.733734375,-0.03619384765625,-0.5338287353515625,-2.435943603515625
1663861816361622000,2.7436220703125,-0.00103759765625,-0.550872802734375,-2.4093170166015625
1663861816371509800,2.753509765625,0.077789306640625,-0.4837493896484375,-2.3954620361328125
1663861816381367000,2.763366943359375,0.167266845703125,-0.3484649658203125,-2.3613739013671875
1663861816391254500,2.773254638671875,0.2514190673828125,-0.1908111572265625,-2.35284423828125
1663861816401142300,2.783142333984375,0.305755615234375,-0.1354217529296875,-2.3283538818359375
1663861816411030000,2.793030029296875,0.307891845703125,-0.149261474609375,-2.2580413818359375
1663861816420917800,2.802917724609375,0.305755615234375,-0.1343536376953125,-2.19305419921875
1663861816430805500,2.812805419921875,0.3014984130859375,-0.0896148681640625,-2.128082275390625
1663861816440662500,2.82266259765625,0.2876434326171875,-0.0352783203125,-2.057769775390625
1663861816450550300,2.83255029296875,0.2865753173828125,-0.0395355224609375,-2.0194244384765625
1663861816460438000,2.84243798828125,0.29510498046875,-0.015045166015625,-2.00238037109375
1663861816470325800,2.85232568359375,0.2503662109375,0.0403594970703125,-2.0300750732421875
1663861816480213500,2.862213623046875,0.200286865234375,0.0520782470703125,-2.0865325927734375
1663861816490101000,2.87210107421875,0.1161346435546875,0.0350341796875,-2.11529541015625
1663861816499958300,2.881958251953125,0.0234527587890625,0.0467376708984375,-2.1089019775390625
1663861816509846000,2.891845947265625,-0.0330047607421875,0.0499420166015625,-2.0620269775390625
1663861816519733800,2.901733642578125,-0.1235504150390625,0.0030670166015625,-1.9746856689453125
1663861816529621200,2.911621337890625,-0.20770263671875,-0.01397705078125,-1.88519287109375
1663861816539509000,2.921509033203125,-0.2716217041015625,-0.03741455078125,-1.794647216796875
1663861816549396700,2.931396728515625,-0.3270111083984375,-0.0619049072265625,-1.691314697265625
1663861816559254000,2.94125390625,-0.333404541015625,0.07763671875,-1.703033447265625
1663861816569141500,2.9511416015625,-0.2460479736328125,0.0925445556640625,-1.71795654296875
1663861816579029200,2.961029296875,-0.2950592041015625,-0.130096435546875,-1.4931793212890625
1663861816588917000,2.9709169921875,-0.415435791015625,-0.1439361572265625,-1.2662811279296875
1663861816598804700,2.9808046875,-0.479339599609375,-0.114105224609375,-1.0947723388671875
1663861816608692500,2.9906923828125,-0.5123748779296875,-0.08428955078125,-0.939239501953125
1663861816618549500,3.000549560546875,-0.5358123779296875,-0.0619049072265625,-0.7879791259765625
1663861816628437200,3.010437255859375,-0.528350830078125,-0.0629730224609375,-0.666534423828125
1663861816638325000,3.020324951171875,-0.481475830078125,-0.0959930419921875,-0.5951690673828125
1663861816648212700,3.030212646484375,-0.4101104736328125,-0.1450042724609375,-0.555755615234375
1663861816658100500,3.0401005859375,-0.3483123779296875,-0.1993255615234375,-0.43963623046875
1663861816667988000,3.049988037109375,-0.2918548583984375,-0.277099609375,-0.2617340087890625
1663861816677875700,3.059875732421875,-0.24285888671875,-0.3719024658203125,-0.064666748046875
1663861816687733000,3.06973291015625,-0.2215576171875,-0.51678466796875,0.18780517578125
1663861816697620700,3.079620849609375,-0.1927947998046875,-0.6328887939453125,0.4551849365234375
1663861816707508200,3.08950830078125,-0.14910888671875,-0.5753631591796875,0.6277618408203125
1663861816717396000,3.09939599609375,-0.1246185302734375,-0.379364013671875,0.734283447265625
1663861816727283700,3.10928369140625,-0.1011810302734375,-0.139678955078125,0.792877197265625
1663861816737171500,3.11917138671875,-0.082000732421875,0.100006103515625,0.7641143798828125
1663861816747028500,3.129028564453125,-0.0766754150390625,0.228912353515625,0.6884765625
1663861816756916200,3.138916259765625,-0.0862579345703125,0.25872802734375,0.6618499755859375
1663861816766804000,3.148803955078125,-0.0926513671875,0.2672576904296875,0.656524658203125
1663861816776691700,3.158691650390625,-0.0809326171875,0.2864227294921875,0.609649658203125
1663861816786579500,3.168579345703125,-0.07135009765625,0.2981414794921875,0.53082275390625
1663861816796436500,3.1784365234375,-0.061767578125,0.2874908447265625,0.4349517822265625
1663861816806324200,3.18832421875,-0.046844482421875,0.2459564208984375,0.3412017822265625
1663861816816212000,3.1982119140625,-0.027679443359375,0.1724395751953125,0.2634429931640625
1663861816826099700,3.208099609375,-0.004241943359375,0.07763671875,0.2037811279296875
1663861816835987200,3.2179873046875,0.02239990234375,0.0052032470703125,0.1356048583984375
1663861816845875000,3.227875,0.052215576171875,0.008392333984375,0.0461273193359375
1663861816855762700,3.2377626953125,0.0831146240234375,0.076568603515625,-0.0401611328125
1663861816865620000,3.247619873046875,0.108673095703125,0.1607208251953125,-0.0987548828125
1663861816875507500,3.257507568359375,0.1289215087890625,0.224639892578125,-0.130706787109375
1663861816885364700,3.26736474609375,0.13531494140625,0.2544708251953125,-0.1466827392578125
1663861816895252500,3.27725244140625,0.122528076171875,0.2555389404296875,-0.142425537109375
1663861816905140200,3.28714013671875,0.110809326171875,0.2374267578125,-0.1285858154296875
1663861816915028000,3.297028076171875,0.108673095703125,0.2097320556640625,-0.12005615234375
1663861816924885000,3.306885009765625,0.1150665283203125,0.1990814208984375,-0.1275177001953125
1663861816934772700,3.316772705078125,0.1267852783203125,0.2108001708984375,-0.1392364501953125
1663861816944660500,3.326660400390625,0.134246826171875,0.2321014404296875,-0.14349365234375
1663861816954548200,3.33654833984375,0.1267852783203125,0.2534027099609375,-0.1264495849609375
1663861816964435700,3.346435791015625,0.1065521240234375,0.283233642578125,-0.0923614501953125
1663861816974323500,3.356323486328125,0.0863037109375,0.316253662109375,-0.0444183349609375
1663861816984211200,3.366211181640625,0.06500244140625,0.3545989990234375,0.0013885498046875
1663861816994068500,3.376068359375,0.0575408935546875,0.385498046875,0.0450592041015625
1663861817003956000,3.3859560546875,0.06500244140625,0.3908233642578125,0.08660888671875
1663861817013843700,3.39584375,0.0831146240234375,0.3897552490234375,0.1110992431640625
1663861817023731500,3.4057314453125,0.0959014892578125,0.4057464599609375,0.1164398193359375
1663861817033588700,3.415588623046875,0.089508056640625,0.432373046875,0.106842041015625
1663861817043476200,3.425476318359375,0.0713958740234375,0.4685821533203125,0.09619140625
1663861817053364000,3.435364013671875,0.042633056640625,0.489898681640625,0.0791473388671875
1663861817063251700,3.445251708984375,0.01812744140625,0.489898681640625,0.06103515625
1663861817073139500,3.455139404296875,0.0010833740234375,0.452606201171875,0.0450592041015625
1663861817083027200,3.465027099609375,-0.013824462890625,0.4036102294921875,0.038665771484375
1663861817092914700,3.474914794921875,-0.0223541259765625,0.3673858642578125,0.048248291015625
1663861817102772000,3.48477197265625,-0.026611328125,0.3237152099609375,0.064239501953125
1663861817112659700,3.49465966796875,-0.0287322998046875,0.2651214599609375,0.0770111083984375
1663861817122547500,3.50454736328125,-0.0223541259765625,0.212921142578125,0.0695648193359375
1663861817132435000,3.51443505859375,-0.013824462890625,0.1958770751953125,0.048248291015625
1663861817142292200,3.524292236328125,-0.01275634765625,0.1905517578125,0.02801513671875
1663861817152180000,3.534179931640625,-0.00531005859375,0.1745758056640625,0.0003204345703125
1663861817162067700,3.544067626953125,-0.003173828125,0.1543426513671875,-0.0337677001953125
1663861817171955500,3.55395556640625,-0.002105712890625,0.14794921875,-0.0550689697265625
1663861817181843000,3.563843017578125,-0.002105712890625,0.14794921875,-0.062530517578125
1663861817191730700,3.573730712890625,0.000030517578125,0.1394195556640625,-0.0667877197265625
1663861817201618400,3.583618408203125,0.000030517578125,0.13623046875,-0.0635986328125
1663861817211475700,3.593475830078125,-0.002105712890625,0.1266326904296875,-0.060394287109375
1663861817221363200,3.60336328125,-0.00531005859375,0.109588623046875,-0.0550689697265625
1663861817231251000,3.6132509765625,-0.003173828125,0.08721923828125,-0.05401611328125
1663861817241138700,3.623138671875,0.0149383544921875,0.0701751708984375,-0.0572052001953125
1663861817251026400,3.6330263671875,0.030914306640625,0.057403564453125,-0.064666748046875
1663861817260914200,3.6429140625,0.031982421875,0.0350341796875,-0.0774383544921875
1663861817270771200,3.652771240234375,0.0255889892578125,0.0158538818359375,-0.088104248046875
1663861817280689400,3.662689453125,0.008544921875,0.031829833984375,-0.0870361328125
1663861817290546700,3.672546630859375,-0.0106353759765625,0.0861663818359375,-0.074249267578125
1663861817300434400,3.682434326171875,-0.026611328125,0.1266326904296875,-0.0593414306640625
1663861817310322000,3.692322021484375,-0.039398193359375,0.1266326904296875,-0.0518798828125
1663861817320209700,3.702209716796875,-0.0553741455078125,0.1181182861328125,-0.05401611328125
1663861817330097400,3.712097412109375,-0.0745391845703125,0.1170501708984375,-0.05401611328125
1663861817339985200,3.721985107421875,-0.084136962890625,0.12451171875,-0.0444183349609375
1663861817349873000,3.731872802734375,-0.0766754150390625,0.1383514404296875,-0.027374267578125
1663861817359760400,3.741760498046875,-0.0457763671875,0.1511383056640625,-0.008209228515625
1663861817369648000,3.751648193359375,0.000030517578125,0.1649932861328125,0.01416015625
1663861817379536000,3.761535888671875,0.055419921875,0.16925048828125,0.0344085693359375
1663861817389393200,3.77139306640625,0.112945556640625,0.170318603515625,0.040802001953125
1663861817399281000,3.781281005859375,0.1598052978515625,0.17138671875,0.0429229736328125
1663861817409168400,3.79116845703125,0.1875152587890625,0.1511383056640625,0.0439910888671875
1663861817419056000,3.80105615234375,0.2109527587890625,0.111724853515625,0.0450592041015625
1663861817428944000,3.81094384765625,0.2311859130859375,0.06805419921875,0.0461273193359375
1663861817438831600,3.82083154296875,0.249298095703125,0.0360870361328125,0.0418701171875
1663861817448719400,3.83071923828125,0.2642059326171875,0.0115966796875,0.02801513671875
1663861817458606800,3.84060693359375,0.26953125,-0.0001220703125,0.0099029541015625
1663861817468494600,3.85049462890625,0.26953125,-0.0054473876953125,0.003509521484375
1663861817478382300,3.86038232421875,0.2631378173828125,-0.0086517333984375,0.003509521484375
1663861817488270000,3.87027001953125,0.2546234130859375,-0.0065155029296875,0.007781982421875
1663861817498127000,3.880127197265625,0.2450408935546875,0.0030670166015625,0.0109710693359375
1663861817508014800,3.890014892578125,0.227996826171875,0.008392333984375,0.017364501953125
1663861817517902600,3.899902587890625,0.204559326171875,0.0115966796875,0.0216217041015625
1663861817527790300,3.909790283203125,0.176849365234375,0.0169219970703125,0.026947021484375
1663861817537678000,3.919677978515625,0.148101806640625,0.0147857666015625,0.0322723388671875
1663861817547565600,3.929565673828125,0.1193389892578125,0.00732421875,0.0333404541015625
1663861817557422800,3.9394228515625,0.0937652587890625,0.0052032470703125,0.0333404541015625
1663861817567310600,3.949310546875,0.075653076171875,0.0062713623046875,0.0312042236328125
1663861817577198300,3.9591982421875,0.0607452392578125,0.00732421875,0.026947021484375
1663861817587085800,3.9690859375,0.0500946044921875,0.0062713623046875,0.019500732421875
1663861817596943000,3.978943115234375,0.0458221435546875,0.000946044921875,0.01629638671875
1663861817606830800,3.988830810546875,0.0458221435546875,0.0062713623046875,0.01416015625
1663861817616718600,3.998718505859375,0.044769287109375,0.01904296875,0.017364501953125
1663861817626606300,4.0086064453125,0.042633056640625,0.020111083984375,0.0237579345703125
1663861817636493800,4.018493896484375,0.0373077392578125,0.0158538818359375,0.0322723388671875
1663861817646381600,4.028381591796875,0.03411865234375,0.0147857666015625,0.040802001953125
1663861817656238800,4.03823876953125,0.03411865234375,0.010528564453125,0.048248291015625
1663861817666126600,4.048126708984375,0.0351715087890625,0.0126495361328125,0.05145263671875
1663861817675963100,4.057963134765625,0.04156494140625,0.0233154296875,0.052520751953125
1663861817685851000,4.067850830078125,0.0468902587890625,0.03289794921875,0.0557098388671875
1663861817695708200,4.077708251953125,0.0500946044921875,0.03289794921875,0.0578460693359375
1663861817705626400,4.08762646484375,0.055419921875,0.03289794921875,0.0567779541015625
1663861817715483400,4.0974833984375,0.0586090087890625,0.0275726318359375,0.0546417236328125
1663861817725401600,4.107401611328125,0.063934326171875,0.01904296875,0.04931640625
1663861817735289300,4.117289306640625,0.0713958740234375,0.0115966796875,0.0439910888671875
1663861817745146600,4.127146728515625,0.075653076171875,0.0147857666015625,0.03759765625
1663861817755034400,4.137034423828125,0.077789306640625,0.0169219970703125,0.0354766845703125
1663861817764921900,4.146921875,0.075653076171875,0.0115966796875,0.0333404541015625
1663861817774809600,4.1568095703125,0.0745849609375,0.008392333984375,0.0301513671875
1663861817784667000,4.1666669921875,0.0724639892578125,0.00732421875,0.02587890625
1663861817794585000,4.176585205078125,0.067138671875,0.0062713623046875,0.019500732421875
1663861817804442000,4.186442138671875,0.0618133544921875,0.0030670166015625,0.01416015625
1663861817814329900,4.196329833984375,0.0586090087890625,0.000946044921875,0.0120391845703125
1663861817824217600,4.206217529296875,0.055419921875,0.0030670166015625,0.0099029541015625
1663861817834105300,4.216105224609375,0.0511627197265625,0.0052032470703125,0.0120391845703125
1663861817843993000,4.2259931640625,0.0458221435546875,0.0052032470703125,0.015228271484375
1663861817853880600,4.235880615234375,0.0362396240234375,-0.00225830078125,0.019500732421875
1663861817863768300,4.245768310546875,0.02984619140625,-0.012908935546875,0.0226898193359375
1663861817873656000,4.255656005859375,0.0245208740234375,-0.0193023681640625,0.0226898193359375
1663861817883543800,4.265543701171875,0.01812744140625,-0.0203704833984375,0.0226898193359375
1663861817893431600,4.275431640625,0.009613037109375,-0.015045166015625,0.0216217041015625
1663861817903319300,4.2853193359375,0.00640869140625,-0.0065155029296875,0.0237579345703125
1663861817913206800,4.295206787109375,0.0042877197265625,-0.00225830078125,0.02587890625
1663861817923094500,4.305094482421875,0.0042877197265625,-0.003326416015625,0.02801513671875
1663861817932951800,4.314951904296875,0.0032196044921875,-0.0097198486328125,0.02801513671875
1663861817942839600,4.324839599609375,0.0032196044921875,-0.0214385986328125,0.0237579345703125
1663861817952727000,4.33472705078125,0.000030517578125,-0.0288848876953125,0.019500732421875
1663861817962584300,4.344584228515625,-0.00103759765625,-0.0278167724609375,0.01416015625
1663861817972441600,4.354441650390625,0.000030517578125,-0.022491455078125,0.0088348388671875
1663861817982359800,4.36435986328125,0.000030517578125,-0.0171661376953125,0.005645751953125
1663861817992247300,4.374247314453125,0.0032196044921875,-0.01611328125,0.0024566650390625
1663861818002135000,4.384135009765625,0.00640869140625,-0.0193023681640625,0.003509521484375
1663861818012022800,4.394022705078125,0.008544921875,-0.022491455078125,0.0067138671875
1663861818021910500,4.40391064453125,0.01068115234375,-0.02569580078125,0.0099029541015625
1663861818031798300,4.41379833984375,0.01068115234375,-0.022491455078125,0.0131072998046875
1663861818041685800,4.423685791015625,0.01068115234375,-0.01611328125,0.0131072998046875
1663861818051543000,4.43354296875,0.0149383544921875,-0.0065155029296875,0.0120391845703125
1663861818061430800,4.4434306640625,0.01812744140625,-0.00225830078125,0.0099029541015625
1663861818071318500,4.453318603515625,0.021331787109375,-0.0054473876953125,0.0099029541015625
1663861818081206000,4.4632060546875,0.021331787109375,-0.0075836181640625,0.0088348388671875
1663861818091093800,4.47309375,0.019195556640625,-0.0086517333984375,0.005645751953125
1663861818100981500,4.4829814453125,0.0149383544921875,-0.00439453125,0.00457763671875
1663861818110869200,4.492869140625,0.0117340087890625,0.0019989013671875,0.00457763671875
1663861818120726300,4.502726318359375,0.007476806640625,0.0041351318359375,0.0024566650390625
1663861818130614000,4.512614013671875,0.0032196044921875,0.0052032470703125,0.0003204345703125
1663861818140501800,4.522501708984375,-0.00103759765625,0.0030670166015625,0.0003204345703125
1663861818150389500,4.532389404296875,-0.0063629150390625,0.000946044921875,-0.0007476806640625
1663861818160246800,4.542246826171875,-0.0095672607421875,-0.001190185546875,-0.0028839111328125
1663861818170134300,4.55213427734375,-0.01275634765625,0.000946044921875,-0.0018157958984375
1663861818180022000,4.56202197265625,-0.014892578125,0.0052032470703125,0.0003204345703125
1663861818189909800,4.57190966796875,-0.013824462890625,0.00732421875,0.0024566650390625
1663861818199797500,4.581797607421875,-0.01275634765625,0.00946044921875,0.007781982421875
1663861818209685200,4.591685302734375,-0.0084991455078125,0.0115966796875,0.0131072998046875
1663861818219572700,4.60157275390625,0.000030517578125,0.020111083984375,0.0248260498046875
1663861818229460500,4.61146044921875,0.0128021240234375,0.0350341796875,0.038665771484375
1663861818239317800,4.62131787109375,0.02984619140625,0.0595245361328125,0.04931640625
1663861818249205500,4.63120556640625,0.0511627197265625,0.0861663818359375,0.050384521484375
1663861818259093000,4.641093017578125,0.0735321044921875,0.1053314208984375,0.0429229736328125
1663861818268980700,4.650980712890625,0.0926971435546875,0.109588623046875,0.0322723388671875
1663861818278868500,4.660868408203125,0.1065521240234375,0.100006103515625,0.019500732421875
1663861818288756200,4.670756103515625,0.120391845703125,0.0840301513671875,0.0131072998046875
1663861818298613200,4.68061328125,0.1331787109375,0.0701751708984375,0.0109710693359375
1663861818308501000,4.6905009765625,0.1417083740234375,0.05419921875,0.007781982421875
1663861818318358300,4.700358154296875,0.143829345703125,0.033966064453125,0.0013885498046875
1663861818328246000,4.71024609375,0.1374359130859375,0.022247314453125,-0.0018157958984375
1663861818338133500,4.720133544921875,0.1257171630859375,0.0179901123046875,-0.0050048828125
1663861818348021200,4.730021240234375,0.1065521240234375,0.0243682861328125,-0.006072998046875
1663861818357909000,4.739908935546875,0.0831146240234375,0.0265045166015625,-0.0103302001953125
1663861818367796700,4.749796630859375,0.056488037109375,0.0233154296875,-0.017791748046875
1663861818377684500,4.7596845703125,0.028778076171875,0.00946044921875,-0.02630615234375
1663861818387572200,4.769572265625,0.0021514892578125,-0.003326416015625,-0.0284423828125
1663861818397429200,4.77942919921875,-0.023406982421875,-0.0097198486328125,-0.029510498046875
1663861818407317000,4.78931689453125,-0.04791259765625,-0.0118408203125,-0.029510498046875
1663861818417204700,4.799204833984375,-0.0670928955078125,-0.0118408203125,-0.0284423828125
1663861818427092500,4.809092529296875,-0.0809326171875,-0.0097198486328125,-0.027374267578125
1663861818436980000,4.81897998046875,-0.0926513671875,-0.0097198486328125,-0.02630615234375
1663861818446837200,4.828837158203125,-0.0979766845703125,-0.0097198486328125,-0.0231170654296875
1663861818456725000,4.83872509765625,-0.1001129150390625,-0.010772705078125,-0.0231170654296875
1663861818466582000,4.84858203125,-0.1011810302734375,-0.0097198486328125,-0.0209808349609375
1663861818476469800,4.8584697265625,-0.0979766845703125,-0.0065155029296875,-0.017791748046875
1663861818486327000,4.8683271484375,-0.0883941650390625,-0.00225830078125,-0.0146026611328125
1663861818496245200,4.878245361328125,-0.073486328125,-0.0001220703125,-0.0092620849609375
1663861818506133000,4.888133056640625,-0.0574951171875,0.000946044921875,-0.0050048828125
1663861818516020500,4.8980205078125,-0.0415191650390625,-0.00439453125,-0.003936767578125
1663861818525877800,4.907877685546875,-0.027679443359375,-0.0075836181640625,-0.003936767578125
1663861818535796000,4.9177958984375,-0.0191497802734375,-0.0054473876953125,-0.0050048828125
1663861818545683700,4.92768359375,-0.0106353759765625,0.000946044921875,-0.00714111328125
1663861818555571500,4.937571533203125,-0.002105712890625,0.00732421875,-0.00714111328125
1663861818565459000,4.947458984375,0.0021514892578125,0.00732421875,-0.0050048828125
1663861818575346700,4.9573466796875,0.00640869140625,0.0030670166015625,-0.0050048828125
1663861818585234400,4.967234375,0.009613037109375,-0.00225830078125,-0.003936767578125
1663861818595091700,4.977091796875,0.008544921875,-0.0075836181640625,-0.0050048828125
1663861818604948700,4.98694873046875,0.0053558349609375,-0.0097198486328125,-0.00714111328125
1663861818614836500,4.99683642578125,-0.00103759765625,-0.0086517333984375,-0.0092620849609375
1663861818624724200,5.00672412109375,-0.0063629150390625,-0.0086517333984375,-0.0135345458984375
1663861818634612000,5.016612060546875,-0.011688232421875,-0.0065155029296875,-0.015655517578125
1663861818644469000,5.026468994140625,-0.01702880859375,-0.0065155029296875,-0.0135345458984375
1663861818654356700,5.036356689453125,-0.0212860107421875,-0.0075836181640625,-0.0135345458984375
1663861818664244500,5.046244384765625,-0.026611328125,-0.0086517333984375,-0.0135345458984375
1663861818674132200,5.05613232421875,-0.0319366455078125,-0.010772705078125,-0.0113983154296875
1663861818684020000,5.06602001953125,-0.038330078125,-0.012908935546875,-0.0135345458984375
1663861818693907500,5.075907470703125,-0.0425872802734375,-0.015045166015625,-0.0146026611328125
1663861818703764700,5.0857646484375,-0.04791259765625,-0.0118408203125,-0.0124664306640625
1663861818713683000,5.095682861328125,-0.048980712890625,-0.0086517333984375,-0.0124664306640625
1663861818723540200,5.105540283203125,-0.048980712890625,-0.0065155029296875,-0.0103302001953125
1663861818733427700,5.115427734375,-0.048980712890625,-0.00439453125,-0.008209228515625
1663861818743285000,5.125284912109375,-0.0457763671875,-0.0054473876953125,-0.006072998046875
1663861818753172700,5.1351728515625,-0.0404510498046875,-0.0054473876953125,-0.0050048828125
1663861818763060500,5.145060546875,-0.037261962890625,-0.0065155029296875,-0.0050048828125
1663861818772978700,5.154978759765625,-0.0319366455078125,-0.0086517333984375,-0.0050048828125
1663861818782866200,5.1648662109375,-0.026611328125,-0.00439453125,-0.006072998046875
1663861818792754000,5.17475390625,-0.0202178955078125,-0.00225830078125,-0.003936767578125
1663861818802611200,5.184611083984375,-0.011688232421875,-0.0001220703125,-0.0028839111328125
1663861818812499000,5.1944990234375,-0.004241943359375,-0.001190185546875,-0.0018157958984375
1663861818822386400,5.204386474609375,0.0042877197265625,-0.00225830078125,0.0003204345703125
1663861818832274200,5.214274169921875,0.01068115234375,-0.00225830078125,-0.0007476806640625
1663861818842162000,5.224161865234375,0.0138702392578125,-0.001190185546875,-0.0018157958984375
1663861818852049700,5.234049560546875,0.0160064697265625,0.000946044921875,-0.0018157958984375
1663861818861937400,5.2439375,0.019195556640625,0.0030670166015625,-0.0007476806640625
1663861818871825200,5.2538251953125,0.021331787109375,0.0019989013671875,-0.0007476806640625
1663861818881712600,5.263712646484375,0.021331787109375,-0.0001220703125,0.0013885498046875
1663861818891600400,5.273600341796875,0.020263671875,0.000946044921875,0.0013885498046875
1663861818901488000,5.283488037109375,0.01812744140625,0.0030670166015625,0.0013885498046875
1663861818911376000,5.2933759765625,0.0138702392578125,0.0030670166015625,0.0024566650390625
1663861818921233000,5.30323291015625,0.01068115234375,0.0019989013671875,0.0024566650390625
1663861818931120600,5.31312060546875,0.008544921875,0.000946044921875,0.0003204345703125
1663861818940978000,5.32297802734375,0.007476806640625,0.0030670166015625,0.0003204345703125
1663861818950865700,5.33286572265625,0.008544921875,0.0030670166015625,0.0013885498046875
1663861818960722700,5.34272265625,0.009613037109375,0.0041351318359375,0.003509521484375
1663861818970641000,5.352640869140625,0.0128021240234375,0.0019989013671875,0.005645751953125
1663861818980528600,5.362528564453125,0.0170745849609375,-0.001190185546875,0.0088348388671875
1663861818990416400,5.37241650390625,0.021331787109375,-0.001190185546875,0.0109710693359375
1663861819000304000,5.38230419921875,0.0255889892578125,-0.001190185546875,0.015228271484375
1663861819010191600,5.392191650390625,0.030914306640625,0.0030670166015625,0.01629638671875
1663861819020079400,5.402079345703125,0.0362396240234375,0.0062713623046875,0.017364501953125
1663861819029967000,5.411967041015625,0.0362396240234375,0.008392333984375,0.017364501953125
1663861819039824400,5.421824462890625,0.0394439697265625,0.0052032470703125,0.0131072998046875
1663861819049711900,5.4317119140625,0.042633056640625,0.0052032470703125,0.0109710693359375
1663861819059599600,5.441599609375,0.0479583740234375,0.00946044921875,0.0131072998046875
1663861819069487400,5.4514873046875,0.055419921875,0.010528564453125,0.0184326171875
1663861819079375000,5.461375,0.0618133544921875,0.008392333984375,0.0226898193359375
1663861819089262800,5.471262939453125,0.0703277587890625,0.0062713623046875,0.0248260498046875
1663861819099150600,5.481150634765625,0.075653076171875,0.0052032470703125,0.0237579345703125
1663861819109007600,5.491007568359375,0.075653076171875,0.0041351318359375,0.017364501953125
1663861819118895400,5.500895263671875,0.075653076171875,0.0062713623046875,0.01416015625
1663861819128783000,5.510783203125,0.0735321044921875,0.0169219970703125,0.0120391845703125
1663861819138670800,5.5206708984375,0.0703277587890625,0.0233154296875,0.0120391845703125
1663861819148558300,5.530558349609375,0.0692596435546875,0.0286407470703125,0.0184326171875
1663861819158446000,5.540446044921875,0.0713958740234375,0.0286407470703125,0.0237579345703125
1663861819168303400,5.550303466796875,0.0735321044921875,0.022247314453125,0.026947021484375
1663861819178191000,5.560191162109375,0.075653076171875,0.0169219970703125,0.0226898193359375
1663861819188078600,5.57007861328125,0.07672119140625,0.01904296875,0.019500732421875
1663861819197935900,5.579935791015625,0.0735321044921875,0.0254364013671875,0.0099029541015625
1663861819207823600,5.58982373046875,0.068206787109375,0.0265045166015625,0.00457763671875
1663861819217711400,5.59971142578125,0.067138671875,0.0265045166015625,0.0013885498046875
1663861819227598800,5.609598876953125,0.0628662109375,0.0179901123046875,0.0003204345703125
1663861819237486600,5.619486572265625,0.0596771240234375,0.008392333984375,0.0003204345703125
1663861819247374300,5.629374267578125,0.056488037109375,0.000946044921875,0.0013885498046875
1663861819257262000,5.639261962890625,0.056488037109375,-0.00439453125,0.0024566650390625
1663861819267149800,5.64914990234375,0.05328369140625,-0.0065155029296875,0.003509521484375
1663861819277037300,5.659037353515625,0.0479583740234375,-0.0065155029296875,0.0013885498046875
1663861819286925000,5.668925048828125,0.04156494140625,-0.0086517333984375,0.0003204345703125
1663861819296782300,5.6787822265625,0.0373077392578125,-0.0118408203125,-0.0018157958984375
1663861819306670000,5.688670166015625,0.033050537109375,-0.012908935546875,-0.0018157958984375
1663861819316557800,5.698557861328125,0.030914306640625,-0.012908935546875,-0.0018157958984375
1663861819326445300,5.7084453125,0.033050537109375,-0.0118408203125,0.0003204345703125
1663861819336302600,5.718302490234375,0.0362396240234375,-0.0118408203125,0.005645751953125
1663861819346190300,5.7281904296875,0.040496826171875,-0.0086517333984375,0.007781982421875
1663861819356047400,5.73804736328125,0.044769287109375,-0.0086517333984375,0.0099029541015625
1663861819365935000,5.74793505859375,0.0479583740234375,-0.0086517333984375,0.0120391845703125
1663861819375792400,5.75779248046875,0.052215576171875,-0.0086517333984375,0.0109710693359375
1663861819385710600,5.767710693359375,0.05328369140625,-0.010772705078125,0.0099029541015625
1663861819395567600,5.777567626953125,0.054351806640625,-0.0097198486328125,0.0088348388671875
1663861819405485800,5.78748583984375,0.054351806640625,-0.0097198486328125,0.0067138671875
1663861819415373600,5.79737353515625,0.05328369140625,-0.0097198486328125,0.005645751953125
1663861819425230800,5.80723095703125,0.052215576171875,-0.0086517333984375,0.00457763671875
1663861819435088000,5.817087890625,0.052215576171875,-0.0097198486328125,0.0013885498046875
1663861819445006000,5.827006103515625,0.0458221435546875,-0.0097198486328125,-0.0018157958984375
1663861819454893800,5.836893798828125,0.043701171875,-0.0086517333984375,-0.0018157958984375
1663861819464781600,5.846781494140625,0.0373077392578125,-0.0086517333984375,-0.0028839111328125
1663861819474669300,5.85666943359375,0.031982421875,-0.0097198486328125,-0.0018157958984375
1663861819484526300,5.8665263671875,0.0277252197265625,-0.012908935546875,-0.0007476806640625
1663861819494414000,5.8764140625,0.0245208740234375,-0.0182342529296875,-0.0018157958984375
1663861819504301800,5.8863017578125,0.02239990234375,-0.022491455078125,-0.0050048828125
1663861819514189600,5.896189453125,0.020263671875,-0.02569580078125,-0.00714111328125
1663861819524077300,5.906077392578125,0.01812744140625,-0.022491455078125,-0.006072998046875
1663861819533964800,5.91596484375,0.01812744140625,-0.0171661376953125,-0.0028839111328125
1663861819543822000,5.925822021484375,0.0170745849609375,-0.0203704833984375,-0.0028839111328125
1663861819553709800,5.935709716796875,0.0160064697265625,-0.024627685546875,-0.006072998046875
1663861819563597600,5.94559765625,0.01812744140625,-0.0299530029296875,-0.0113983154296875
1663861819573485300,5.9554853515625,0.0234527587890625,-0.0299530029296875,-0.0113983154296875
1663861819583342300,5.96534228515625,0.0266571044921875,-0.0320892333984375,-0.0113983154296875
1663861819593260500,5.975260498046875,0.02984619140625,-0.0331573486328125,-0.0113983154296875
1663861819603148300,5.985148193359375,0.03411865234375,-0.034210205078125,-0.0103302001953125
1663861819613036000,5.9950361328125,0.0351715087890625,-0.0320892333984375,-0.0050048828125
1663861819622923800,6.004923828125,0.0362396240234375,-0.0310211181640625,0.0013885498046875
1663861819632780800,6.01478076171875,0.0394439697265625,-0.0352783203125,0.0024566650390625
1663861819642638000,6.02463818359375,0.0383758544921875,-0.0331573486328125,-0.0018157958984375
1663861819652525800,6.03452587890625,0.0383758544921875,-0.026763916015625,-0.00714111328125
1663861819662444000,6.044444091796875,0.040496826171875,-0.0214385986328125,-0.0135345458984375
1663861819672331500,6.05433154296875,0.040496826171875,-0.0182342529296875,-0.0135345458984375
1663861819682219300,6.06421923828125,0.0394439697265625,-0.0214385986328125,-0.0135345458984375
1663861819692107000,6.07410693359375,0.044769287109375,-0.022491455078125,-0.0135345458984375
1663861819701994800,6.083994873046875,0.0500946044921875,-0.0235595703125,-0.0092620849609375
1663861819711882500,6.093882568359375,0.0586090087890625,-0.0171661376953125,-0.0050048828125
1663861819721770000,6.10377001953125,0.068206787109375,-0.00439453125,0.0013885498046875
1663861819731627300,6.113627197265625,0.077789306640625,0.00732421875,0.007781982421875
1663861819741484500,6.123484619140625,0.0863037109375,0.0126495361328125,0.007781982421875
1663861819751372000,6.1333720703125,0.0948333740234375,0.0137176513671875,0.00457763671875
1663861819761259800,6.143259765625,0.1065521240234375,0.010528564453125,0.0013885498046875
1663861819771147500,6.1531474609375,0.1172027587890625,0.0062713623046875,-0.0018157958984375
1663861819781004800,6.1630048828125,0.124664306640625,-0.0001220703125,-0.0050048828125
1663861819790892300,6.172892333984375,0.1278533935546875,-0.003326416015625,-0.0092620849609375
1663861819800780000,6.182780029296875,0.1257171630859375,-0.0001220703125,-0.0092620849609375
1663861819810667800,6.192667724609375,0.1161346435546875,0.0030670166015625,-0.00714111328125
1663861819820525000,6.202525146484375,0.1044158935546875,0.0062713623046875,-0.008209228515625
1663861819830443300,6.212443359375,0.0959014892578125,0.00946044921875,-0.00714111328125
1663861819840331000,6.2223310546875,0.0841827392578125,0.0062713623046875,-0.00714111328125
1663861819850218500,6.232218505859375,0.0703277587890625,-0.00439453125,-0.0092620849609375
1663861819860106200,6.242106201171875,0.054351806640625,-0.0171661376953125,-0.0146026611328125
1663861819869994000,6.251993896484375,0.03411865234375,-0.0235595703125,-0.0209808349609375
1663861819879881700,6.2618818359375,0.0128021240234375,-0.0235595703125,-0.031646728515625
1663861819889769500,6.27176953125,-0.0084991455078125,-0.022491455078125,-0.03802490234375
1663861819899657000,6.281656982421875,-0.0319366455078125,-0.0182342529296875,-0.03802490234375
1663861819909544700,6.291544677734375,-0.051116943359375,-0.01611328125,-0.0359039306640625
1663861819919402000,6.301402099609375,-0.0649566650390625,-0.0203704833984375,-0.03057861328125
1663861819929289700,6.311289794921875,-0.0777435302734375,-0.0299530029296875,-0.02630615234375
1663861819939177200,6.32117724609375,-0.0862579345703125,-0.036346435546875,-0.0220489501953125
1663861819949065000,6.33106494140625,-0.0926513671875,-0.034210205078125,-0.0220489501953125
1663861819958952700,6.34095263671875,-0.0990447998046875,-0.02569580078125,-0.02630615234375
1663861819968840400,6.35084033203125,-0.1043701171875,-0.0193023681640625,-0.031646728515625
1663861819978697500,6.360697509765625,-0.1118316650390625,-0.0182342529296875,-0.0326995849609375
1663861819988585200,6.370585205078125,-0.1128997802734375,-0.0203704833984375,-0.0284423828125
1663861819998473000,6.380472900390625,-0.1128997802734375,-0.02569580078125,-0.0241851806640625
1663861820008360700,6.390360595703125,-0.1118316650390625,-0.0278167724609375,-0.0241851806640625
1663861820018248400,6.40024853515625,-0.1128997802734375,-0.026763916015625,-0.0220489501953125
1663861820028136200,6.41013623046875,-0.1107635498046875,-0.0235595703125,-0.0220489501953125
1663861820037993200,6.4199931640625,-0.103302001953125,-0.0203704833984375,-0.041229248046875
1663861820047881000,6.429880859375,-0.103302001953125,-0.034210205078125,-0.064666748046875
1663861820057768700,6.439768798828125,-0.1086273193359375,-0.071502685546875,-0.0465545654296875
1663861820067656400,6.449656494140625,-0.117156982421875,-0.136474609375,0.0013885498046875
1663861820077544000,6.4595439453125,-0.1278076171875,-0.1801605224609375,0.0216217041015625
1663861820087431700,6.469431640625,-0.1320648193359375,-0.1641845703125,0.003509521484375
1663861820097319400,6.4793193359375,-0.1160888671875,-0.12689208984375,-0.0359039306640625
1663861820107176700,6.4891767578125,-0.093719482421875,-0.11517333984375,-0.072113037109375
1663861820117064200,6.499064208984375,-0.0670928955078125,-0.148193359375,-0.0934295654296875
1663861820126952000,6.508951904296875,-0.037261962890625,-0.1758880615234375,-0.0902252197265625
1663861820136839700,6.518839599609375,-0.003173828125,-0.151397705078125,-0.1019439697265625
1663861820146727400,6.5287275390625,0.0138702392578125,-0.136474609375,-0.1221923828125
1663861820156615200,6.538615234375,0.020263671875,-0.13861083984375,-0.1339111328125
1663861820166472200,6.54847216796875,0.020263671875,-0.1119842529296875,-0.1509552001953125
1663861820176360000,6.55835986328125,0.0245208740234375,-0.0874786376953125,-0.156280517578125
1663861820186247700,6.56824755859375,0.0383758544921875,-0.0981292724609375,-0.164794921875
1663861820196135400,6.578135498046875,0.0575408935546875,-0.11517333984375,-0.1839752197265625
1663861820206023000,6.58802294921875,0.0724639892578125,-0.106658935546875,-0.19781494140625
1663861820215880200,6.597880126953125,0.087371826171875,-0.081085205078125,-0.199951171875
1663861820225768000,6.607767822265625,0.108673095703125,-0.0512542724609375,-0.19036865234375
1663861820235655700,6.61765576171875,0.132110595703125,-0.0118408203125,-0.1711883544921875
1663861820245543200,6.627543212890625,0.1630096435546875,0.0243682861328125,-0.152008056640625
1663861820255400400,6.637400390625,0.1917724609375,0.04461669921875,-0.1371002197265625
1663861820265257700,6.6472578125,0.2183990478515625,0.0499420166015625,-0.118988037109375
1663861820275145500,6.6571455078125,0.2333221435546875,0.045684814453125,-0.095550537109375
1663861820285063700,6.667063720703125,0.23651123046875,0.0360870361328125,-0.0774383544921875
1663861820294951200,6.676951171875,0.234375,0.031829833984375,-0.0699920654296875
1663861820304839000,6.6868388671875,0.227996826171875,0.031829833984375,-0.052947998046875
1663861820314726700,6.6967265625,0.2109527587890625,0.043548583984375,-0.02630615234375
1663861820324614400,6.706614501953125,0.181121826171875,0.0478057861328125,0.00457763671875
1663861820334502100,6.716502197265625,0.143829345703125,0.041412353515625,0.0322723388671875
1663861820344389600,6.7263896484375,0.1044158935546875,0.0350341796875,0.0567779541015625
1663861820354247000,6.736246826171875,0.0628662109375,0.031829833984375,0.0802154541015625
1663861820364134700,6.746134765625,0.02239990234375,0.0350341796875,0.099395751953125
1663861820374022400,6.7560224609375,-0.02447509765625,0.0371551513671875,0.120697021484375
1663861820383910000,6.765909912109375,-0.0745391845703125,0.029693603515625,0.14093017578125
1663861820393797600,6.775797607421875,-0.11822509765625,0.0041351318359375,0.1569061279296875
1663861820403655000,6.785655029296875,-0.1565704345703125,-0.0193023681640625,0.167572021484375
1663861820413512000,6.795511962890625,-0.183197021484375,-0.0331573486328125,0.1739501953125
1663861820423399700,6.805399658203125,-0.2002410888671875,-0.0235595703125,0.17608642578125
1663861820433287400,6.815287353515625,-0.2023773193359375,-0.003326416015625,0.165435791015625
1663861820443175200,6.825175048828125,-0.1821441650390625,0.022247314453125,0.1388092041015625
1663861820453063000,6.83506298828125,-0.1448516845703125,0.0488739013671875,0.1015167236328125
1663861820462920000,6.844919921875,-0.107574462890625,0.0520782470703125,0.073822021484375
1663861820472807700,6.8548076171875,-0.079864501953125,0.0510101318359375,0.059967041015625
1663861820482665000,6.8646650390625,-0.07135009765625,0.0701751708984375,0.071685791015625
1663861820492583200,6.874583251953125,-0.0670928955078125,0.09893798828125,0.09619140625
1663861820502440200,6.884440185546875,-0.0447235107421875,0.121307373046875,0.1004486083984375
1663861820512358400,6.8943583984375,-0.004241943359375,0.137298583984375,0.062103271484375
1663861820522215700,6.904215576171875,0.02984619140625,0.102142333984375,0.0003204345703125
1663861820532134000,6.9141337890625,0.0479583740234375,0.0350341796875,-0.0476226806640625
1663861820542021600,6.924021728515625,0.04156494140625,0.0233154296875,-0.052947998046875
1663861820551909400,6.933909423828125,0.020263671875,0.0818939208984375,-0.019927978515625
1663861820561766400,6.943766357421875,0.0032196044921875,0.144744873046875,0.0226898193359375
1663861820571623700,6.953623779296875,-0.0095672607421875,0.17138671875,0.0546417236328125
1663861820581511400,6.963511474609375,-0.0191497802734375,0.1671142578125,0.0780792236328125
1663861820591429600,6.9734296875,-0.023406982421875,0.1436767578125,0.087677001953125
1663861820601317000,6.983317138671875,-0.0212860107421875,0.11279296875,0.0791473388671875
1663861820611204900,6.993204833984375,-0.0180816650390625,0.090423583984375,0.06103515625
1663861820621092600,7.003092529296875,-0.011688232421875,0.0808258056640625,0.03973388671875
1663861820630980400,7.01298046875,-0.002105712890625,0.07977294921875,0.01629638671875
1663861820640868000,7.0228681640625,0.007476806640625,0.0818939208984375,-0.0050048828125
1663861820650755600,7.032755615234375,0.020263671875,0.0808258056640625,-0.0231170654296875
1663861820660612900,7.04261279296875,0.031982421875,0.069122314453125,-0.0326995849609375
1663861820670470100,7.05247021484375,0.0351715087890625,0.0520782470703125,-0.0359039306640625
1663861820680357600,7.062357666015625,0.033050537109375,0.031829833984375,-0.031646728515625
1663861820690245400,7.072245361328125,0.0266571044921875,0.0126495361328125,-0.027374267578125
1663861820700133000,7.082133056640625,0.0160064697265625,-0.001190185546875,-0.019927978515625
1663861820710020900,7.092020751953125,0.0053558349609375,-0.00439453125,-0.0103302001953125
1663861820719878000,7.1018779296875,-0.0084991455078125,0.0019989013671875,-0.0018157958984375
1663861820729765600,7.111765625,-0.0223541259765625,0.0115966796875,0.00457763671875
1663861820739653400,7.1216533203125,-0.0340728759765625,0.0179901123046875,0.005645751953125
1663861820749510700,7.1315107421875,-0.0447235107421875,0.022247314453125,0.00457763671875
1663861820759398400,7.1413984375,-0.050048828125,0.0254364013671875,0.00457763671875
1663861820769316600,7.151316650390625,-0.0532379150390625,0.022247314453125,0.005645751953125
1663861820779204000,7.1612041015625,-0.0521697998046875,0.0179901123046875,0.0088348388671875
1663861820789091800,7.171091796875,-0.046844482421875,0.0147857666015625,0.0131072998046875
1663861820798979600,7.1809794921875,-0.039398193359375,0.00946044921875,0.01416015625
1663861820808836900,7.1908369140625,-0.0319366455078125,0.0052032470703125,0.01416015625
1663861820818694000,7.20069384765625,-0.02447509765625,0.0019989013671875,0.01416015625
1663861820828612000,7.210612060546875,-0.0202178955078125,-0.001190185546875,0.015228271484375
1663861820838499800,7.220499755859375,-0.0191497802734375,-0.001190185546875,0.01629638671875
1663861820848387600,7.2303876953125,-0.0180816650390625,0.0030670166015625,0.017364501953125
1663861820858275300,7.240275390625,-0.013824462890625,0.0052032470703125,0.0184326171875
1663861820868162800,7.250162841796875,-0.0095672607421875,0.0062713623046875,0.0184326171875
1663861820878050600,7.260050537109375,-0.004241943359375,0.0126495361328125,0.015228271484375
1663861820887938300,7.269938232421875,0.000030517578125,0.02117919921875,0.01629638671875
1663861820897826000,7.279825927734375,0.0053558349609375,0.0286407470703125,0.01629638671875
1663861820907713800,7.2897138671875,0.01068115234375,0.0286407470703125,0.0131072998046875
1663861820917570800,7.29957080078125,0.0138702392578125,0.0233154296875,0.0088348388671875
1663861820927458600,7.30945849609375,0.0160064697265625,0.020111083984375,0.003509521484375
1663861820937346300,7.31934619140625,0.019195556640625,0.01904296875,-0.0007476806640625
1663861820947234000,7.329234130859375,0.0255889892578125,0.0233154296875,0.0003204345703125
1663861820957121500,7.33912158203125,0.0362396240234375,0.033966064453125,0.0088348388671875
1663861820967009300,7.34900927734375,0.054351806640625,0.0467376708984375,0.019500732421875
1663861820976866600,7.358866455078125,0.075653076171875,0.053131103515625,0.0226898193359375
1663861820986754300,7.36875439453125,0.099090576171875,0.04461669921875,0.0216217041015625
1663861820996642000,7.37864208984375,0.120391845703125,0.03076171875,0.0184326171875
1663861821006529500,7.388529541015625,0.136383056640625,0.0233154296875,0.0109710693359375
1663861821016417300,7.398417236328125,0.1417083740234375,0.02117919921875,0.00457763671875
1663861821026305000,7.408304931640625,0.1395721435546875,0.03289794921875,-0.003936767578125
1663861821036162300,7.418162353515625,0.1257171630859375,0.041412353515625,-0.0092620849609375
1663861821046049800,7.4280498046875,0.1065521240234375,0.04461669921875,-0.0124664306640625
1663861821055937500,7.4379375,0.0820465087890625,0.041412353515625,-0.0167236328125
1663861821065825300,7.4478251953125,0.0479583740234375,0.029693603515625,-0.015655517578125
1663861821075713000,7.457713134765625,0.0053558349609375,0.010528564453125,-0.015655517578125
1663861821085600800,7.467600830078125,-0.038330078125,-0.0075836181640625,-0.0167236328125
1663861821095457800,7.477457763671875,-0.0788116455078125,-0.012908935546875,-0.0220489501953125
1663861821105345500,7.487345458984375,-0.117156982421875,-0.010772705078125,-0.0252532958984375
1663861821115202800,7.497202880859375,-0.1459197998046875,-0.0086517333984375,-0.02630615234375
1663861821125059800,7.507059814453125,-0.1682891845703125,-0.0075836181640625,-0.02630615234375
1663861821134947600,7.516947509765625,-0.1800079345703125,-0.0054473876953125,-0.027374267578125
1663861821144865800,7.52686572265625,-0.183197021484375,-0.0075836181640625,-0.03057861328125
1663861821154723000,7.53672314453125,-0.1810760498046875,-0.0054473876953125,-0.03057861328125
1663861821164610600,7.546610595703125,-0.175750732421875,0.0041351318359375,-0.027374267578125
1663861821174467800,7.5564677734375,-0.1661529541015625,0.0137176513671875,-0.0220489501953125
1663861821184386000,7.566385986328125,-0.15338134765625,0.0147857666015625,-0.017791748046875
1663861821194273800,7.576273681640625,-0.1437835693359375,0.008392333984375,-0.0146026611328125
1663861821204161500,7.58616162109375,-0.128875732421875,-0.0001220703125,-0.0124664306640625
1663861821214018600,7.5960185546875,-0.1160888671875,-0.0054473876953125,-0.0113983154296875
1663861821223906300,7.60590625,-0.107574462890625,-0.010772705078125,-0.0092620849609375
1663861821233794000,7.6157939453125,-0.1001129150390625,-0.012908935546875,-0.0103302001953125
1663861821243681800,7.625681884765625,-0.0969085693359375,-0.010772705078125,-0.0146026611328125
1663861821253569500,7.635569580078125,-0.0990447998046875,-0.0065155029296875,-0.01885986328125
1663861821263426600,7.645426513671875,-0.103302001953125,-0.003326416015625,-0.0220489501953125
1663861821273344800,7.6553447265625,-0.10650634765625,-0.0001220703125,-0.0231170654296875
1663861821283202000,7.6652021484375,-0.107574462890625,-0.001190185546875,-0.0209808349609375
1663861821293089800,7.67508984375,-0.1096954345703125,-0.003326416015625,-0.01885986328125
1663861821302977300,7.684977294921875,-0.1096954345703125,-0.010772705078125,-0.0167236328125
1663861821312834600,7.69483447265625,-0.105438232421875,-0.0182342529296875,-0.0124664306640625
1663861821322722300,7.704722412109375,-0.1011810302734375,-0.026763916015625,-0.0092620849609375
1663861821332640500,7.714640625,-0.093719482421875,-0.02569580078125,-0.0113983154296875
1663861821342497500,7.72449755859375,-0.0883941650390625,-0.0193023681640625,-0.0135345458984375
1663861821352385300,7.73438525390625,-0.08306884765625,-0.012908935546875,-0.0135345458984375
1663861821362242600,7.74424267578125,-0.0788116455078125,-0.0065155029296875,-0.0146026611328125
1663861821372160800,7.754160888671875,-0.0745391845703125,-0.003326416015625,-0.0113983154296875
1663861821382048500,7.764048583984375,-0.0681610107421875,-0.0054473876953125,-0.0135345458984375
1663861821391936000,7.77393603515625,-0.0638885498046875,-0.0097198486328125,-0.0113983154296875
1663861821401793300,7.783793212890625,-0.05963134765625,-0.01397705078125,-0.0092620849609375
1663861821411650600,7.793650634765625,-0.0564422607421875,-0.0171661376953125,-0.0092620849609375
1663861821421568800,7.80356884765625,-0.0532379150390625,-0.01611328125,-0.008209228515625
1663861821431456300,7.813456298828125,-0.0521697998046875,-0.015045166015625,-0.0113983154296875
1663861821441344000,7.823343994140625,-0.0521697998046875,-0.010772705078125,-0.0135345458984375
1663861821451231700,7.833231689453125,-0.050048828125,-0.0086517333984375,-0.0135345458984375
1663861821461089000,7.843089111328125,-0.0521697998046875,-0.010772705078125,-0.0146026611328125
1663861821470976800,7.852976806640625,-0.0543060302734375,-0.0118408203125,-0.015655517578125
1663861821480864300,7.8628642578125,-0.0564422607421875,-0.012908935546875,-0.0167236328125
1663861821490752000,7.872751953125,-0.0628204345703125,-0.01611328125,-0.0167236328125
1663861821500639700,7.8826396484375,-0.0681610107421875,-0.01611328125,-0.017791748046875
1663861821510497000,7.8924970703125,-0.0745391845703125,-0.01611328125,-0.019927978515625
1663861821520415200,7.902415283203125,-0.0809326171875,-0.012908935546875,-0.0209808349609375
1663861821530302700,7.912302734375,-0.0873260498046875,-0.0097198486328125,-0.0231170654296875
1663861821540190500,7.9221904296875,-0.09478759765625,-0.0097198486328125,-0.0241851806640625
1663861821550078200,7.932078125,-0.1011810302734375,-0.0097198486328125,-0.0241851806640625
1663861821559966000,7.941966064453125,-0.107574462890625,-0.010772705078125,-0.0252532958984375
1663861821569853700,7.951853759765625,-0.1128997802734375,-0.0118408203125,-0.0231170654296875
1663861821579741200,7.9617412109375,-0.115020751953125,-0.0118408203125,-0.0220489501953125
1663861821589629000,7.97162890625,-0.117156982421875,-0.0086517333984375,-0.0209808349609375
1663861821599486200,7.981486328125,-0.11822509765625,-0.0097198486328125,-0.0209808349609375
1663861821609374000,7.9913740234375,-0.1160888671875,-0.012908935546875,-0.01885986328125
1663861821619261400,8.001261474609375,-0.1118316650390625,-0.0097198486328125,-0.01885986328125
1663861821629149200,8.011149169921875,-0.1096954345703125,-0.0097198486328125,-0.01885986328125
1663861821639037000,8.021036865234375,-0.10650634765625,-0.010772705078125,-0.0167236328125
1663861821648924700,8.030924560546875,-0.1001129150390625,-0.0118408203125,-0.017791748046875
1663861821658781700,8.04078173828125,-0.09478759765625,-0.015045166015625,-0.017791748046875
1663861821668669400,8.05066943359375,-0.091583251953125,-0.01611328125,-0.01885986328125
1663861821678557200,8.06055712890625,-0.0862579345703125,-0.01397705078125,-0.017791748046875
1663861821688414500,8.07041455078125,-0.0809326171875,-0.01611328125,-0.01885986328125
1663861821698302200,8.08030224609375,-0.0777435302734375,-0.01397705078125,-0.01885986328125
1663861821708159200,8.0901591796875,-0.073486328125,-0.01611328125,-0.01885986328125
1663861821718077400,8.100077392578125,-0.0692138671875,-0.015045166015625,-0.019927978515625
1663861821727965200,8.109965087890625,-0.0681610107421875,-0.01611328125,-0.019927978515625
1663861821737853000,8.11985302734375,-0.0670928955078125,-0.01611328125,-0.019927978515625
1663861821747740700,8.12974072265625,-0.0649566650390625,-0.015045166015625,-0.017791748046875
1663861821757597700,8.13959765625,-0.061767578125,-0.012908935546875,-0.0124664306640625
1663861821767455000,8.149455078125,-0.060699462890625,-0.01397705078125,-0.0103302001953125
1663861821777342700,8.1593427734375,-0.058563232421875,-0.010772705078125,-0.0092620849609375
1663861821787230200,8.169230224609375,-0.05963134765625,-0.0097198486328125,-0.00714111328125
1663861821797118000,8.179117919921875,-0.060699462890625,-0.010772705078125,-0.0050048828125
1663861821806975200,8.188975341796874,-0.060699462890625,-0.010772705078125,-0.00714111328125
1663861821816893400,8.1988935546875,-0.05963134765625,-0.010772705078125,-0.0113983154296875
1663861821826750500,8.20875048828125,-0.0564422607421875,-0.0086517333984375,-0.0124664306640625
1663861821836638200,8.21863818359375,-0.0543060302734375,-0.0075836181640625,-0.0124664306640625
1663861821846526000,8.22852587890625,-0.0521697998046875,-0.0075836181640625,-0.0103302001953125
1663861821856383200,8.23838330078125,-0.050048828125,-0.0086517333984375,-0.0103302001953125
1663861821866270700,8.248270751953125,-0.051116943359375,-0.010772705078125,-0.0113983154296875
1663861821876189000,8.25818896484375,-0.051116943359375,-0.0118408203125,-0.0113983154296875
1663861821886076700,8.26807666015625,-0.051116943359375,-0.0097198486328125,-0.0124664306640625
1663861821895964400,8.27796435546875,-0.0532379150390625,-0.0097198486328125,-0.0135345458984375
1663861821905852200,8.28785205078125,-0.0543060302734375,-0.0086517333984375,-0.0135345458984375
1663861821915740000,8.297739990234374,-0.0543060302734375,-0.0097198486328125,-0.0124664306640625
1663861821925627600,8.307627685546874,-0.0543060302734375,-0.0097198486328125,-0.0135345458984375
1663861821935515100,8.31751513671875,-0.0532379150390625,-0.0086517333984375,-0.0135345458984375
1663861821945403000,8.32740283203125,-0.0521697998046875,-0.0097198486328125,-0.0135345458984375
1663861821955260200,8.33726025390625,-0.048980712890625,-0.0086517333984375,-0.0146026611328125
1663861821965148000,8.34714794921875,-0.048980712890625,-0.0086517333984375,-0.0135345458984375
1663861821975035400,8.357035400390625,-0.046844482421875,-0.0075836181640625,-0.0146026611328125
1663861821984923100,8.366923095703125,-0.0447235107421875,-0.0054473876953125,-0.0135345458984375
1663861821994811000,8.376810791015625,-0.0447235107421875,-0.0054473876953125,-0.0103302001953125
1663861822004698600,8.38669873046875,-0.0436553955078125,-0.00439453125,-0.0092620849609375
1663861822014586400,8.39658642578125,-0.0447235107421875,-0.00225830078125,-0.008209228515625
1663861822024473900,8.406473876953125,-0.0425872802734375,-0.00439453125,-0.00714111328125
1663861822034331100,8.4163310546875,-0.0404510498046875,-0.00439453125,-0.006072998046875
1663861822044219000,8.426218994140624,-0.037261962890625,-0.003326416015625,-0.00714111328125
1663861822054076000,8.436075927734375,-0.035125732421875,-0.003326416015625,-0.008209228515625
1663861822063963600,8.445963623046875,-0.0330047607421875,-0.0054473876953125,-0.00714111328125
1663861822073851400,8.455851318359375,-0.0298004150390625,-0.003326416015625,-0.006072998046875
1663861822083708700,8.465708740234374,-0.026611328125,-0.003326416015625,-0.0050048828125
1663861822093596200,8.47559619140625,-0.02447509765625,-0.00439453125,-0.003936767578125
1663861822103453400,8.485453369140625,-0.0212860107421875,-0.00439453125,-0.003936767578125
1663861822113341200,8.495341064453125,-0.0202178955078125,-0.00439453125,-0.0050048828125
1663861822123229000,8.50522900390625,-0.0191497802734375,-0.00439453125,-0.0050048828125
1663861822133147100,8.515147216796874,-0.0180816650390625,-0.00439453125,-0.006072998046875
1663861822143004200,8.525004150390625,-0.01702880859375,-0.003326416015625,-0.006072998046875
1663861822152892000,8.534891845703125,-0.015960693359375,-0.00439453125,-0.0050048828125
1663861822162779600,8.544779541015625,-0.01702880859375,-0.0054473876953125,-0.0050048828125
1663861822172636700,8.55463671875,-0.015960693359375,-0.0054473876953125,-0.0050048828125
1663861822182524400,8.5645244140625,-0.01702880859375,-0.0075836181640625,-0.0050048828125
1663861822192442600,8.574442626953125,-0.013824462890625,-0.0075836181640625,-0.0050048828125
1663861822202300000,8.5842998046875,-0.014892578125,-0.0054473876953125,-0.00714111328125
1663861822212187600,8.594187744140624,-0.013824462890625,-0.0054473876953125,-0.006072998046875
1663861822222075400,8.604075439453124,-0.013824462890625,-0.003326416015625,-0.006072998046875
1663861822231963000,8.613962890625,-0.011688232421875,-0.00225830078125,-0.006072998046875
1663861822241850600,8.6238505859375,-0.0106353759765625,-0.001190185546875,-0.003936767578125
1663861822251708000,8.6337080078125,-0.0095672607421875,-0.0001220703125,-0.0028839111328125
1663861822261595600,8.643595703125,-0.0106353759765625,-0.00225830078125,-0.0018157958984375
1663861822271513900,8.653513916015624,-0.0074310302734375,-0.00225830078125,-0.0007476806640625
1663861822281401300,8.6634013671875,-0.004241943359375,0.000946044921875,-0.0018157958984375
1663861822291289000,8.6732890625,-0.003173828125,-0.0001220703125,-0.0007476806640625
1663861822301146400,8.683146484375,-0.003173828125,0.000946044921875,0.0003204345703125
1663861822311034000,8.6930341796875,-0.002105712890625,-0.0001220703125,-0.0007476806640625
1663861822320921600,8.702921630859375,0.0010833740234375,0.0019989013671875,-0.0018157958984375
1663861822330809300,8.712809326171875,0.0010833740234375,-0.0001220703125,-0.0018157958984375
1663861822340697000,8.722697021484375,0.0021514892578125,-0.00225830078125,-0.0018157958984375
1663861822350584800,8.732584716796875,0.0042877197265625,-0.001190185546875,-0.0007476806640625
1663861822360441900,8.74244189453125,0.0021514892578125,-0.003326416015625,-0.0007476806640625
1663861822370329600,8.75232958984375,0.0042877197265625,-0.00439453125,-0.0018157958984375
1663861822380217300,8.76221728515625,0.0042877197265625,-0.00439453125,-0.0028839111328125
1663861822390105000,8.77210498046875,0.0053558349609375,-0.00439453125,-0.0018157958984375
1663861822399962000,8.781962158203125,0.0042877197265625,-0.00225830078125,-0.0018157958984375
1663861822409849900,8.791849853515625,0.0042877197265625,-0.001190185546875,0.0013885498046875
1663861822419737600,8.801737548828125,0.0042877197265625,-0.0001220703125,0.00457763671875
1663861822429625300,8.811625244140625,0.0042877197265625,-0.0001220703125,0.0067138671875
1663861822439513000,8.82151318359375,0.0042877197265625,-0.0001220703125,0.007781982421875
1663861822449400800,8.83140087890625,0.0032196044921875,0.0019989013671875,0.005645751953125
1663861822459288300,8.841288330078125,0.0010833740234375,-0.001190185546875,0.00457763671875
1663861822469176000,8.851176025390625,0.0021514892578125,-0.0001220703125,0.003509521484375
1663861822479063800,8.861063720703125,0.0032196044921875,0.0019989013671875,0.0024566650390625
1663861822488951600,8.87095166015625,0.0053558349609375,-0.0001220703125,0.0024566650390625
1663861822498808600,8.88080859375,0.007476806640625,-0.00225830078125,0.00457763671875
1663861822508696300,8.8906962890625,0.008544921875,-0.0054473876953125,0.003509521484375
1663861822518584000,8.900583984375,0.007476806640625,-0.00439453125,0.00457763671875
1663861822528471800,8.910471923828124,0.00640869140625,-0.003326416015625,0.003509521484375
1663861822538359600,8.920359619140624,0.0053558349609375,0.000946044921875,0.0013885498046875
1663861822548247000,8.9302470703125,0.00640869140625,0.0030670166015625,0.0003204345703125
1663861822558134800,8.940134765625,0.0032196044921875,0.0030670166015625,0.0003204345703125
1663861822568022500,8.9500224609375,0.0032196044921875,0.0019989013671875,0.0013885498046875
1663861822577879800,8.9598798828125,0.0021514892578125,-0.001190185546875,0.0024566650390625
1663861822587767300,8.969767333984375,0.0032196044921875,-0.003326416015625,0.003509521484375
1663861822597624600,8.97962451171875,0.0042877197265625,-0.003326416015625,0.0013885498046875
1663861822607512300,8.98951220703125,0.0042877197265625,-0.00225830078125,-0.0007476806640625
1663861822617400000,8.999400146484374,0.0042877197265625,-0.0001220703125,-0.0018157958984375
1663861822627287600,9.00928759765625,0.0042877197265625,0.0019989013671875,-0.0028839111328125
1663861822637175300,9.01917529296875,0.0053558349609375,0.000946044921875,-0.0007476806640625
1663861822647063000,9.02906298828125,0.0053558349609375,0.0019989013671875,-0.0007476806640625
1663861822656950800,9.03895068359375,0.0053558349609375,0.0019989013671875,0.0013885498046875
1663861822666838500,9.048838623046874,0.0042877197265625,0.0030670166015625,0.0013885498046875
1663861822676726300,9.058726318359374,0.0021514892578125,0.000946044921875,0.0024566650390625
1663861822686613800,9.06861376953125,0.0021514892578125,-0.0001220703125,0.0024566650390625
1663861822696501500,9.07850146484375,0.0021514892578125,0.0019989013671875,0.0024566650390625
1663861822706389200,9.08838916015625,0.0010833740234375,0.0019989013671875,0.0003204345703125
1663861822716246500,9.09824658203125,0.000030517578125,0.0030670166015625,0.0003204345703125
1663861822726134000,9.108134033203125,0.000030517578125,0.0019989013671875,0.0003204345703125
1663861822736021800,9.118021728515625,0.0010833740234375,-0.0001220703125,0.0013885498046875
1663861822745879000,9.127879150390624,0.0010833740234375,0.000946044921875,0.0013885498046875
1663861822755736000,9.137736083984375,0.000030517578125,-0.0001220703125,0.0013885498046875
1663861822765654300,9.147654296875,0.000030517578125,-0.0001220703125,0.0013885498046875
1663861822775542000,9.1575419921875,0.000030517578125,0.0019989013671875,0.0003204345703125
1663861822785429800,9.1674296875,0.0010833740234375,0.0030670166015625,0.0003204345703125
1663861822795287000,9.177287109375,0.000030517578125,0.0019989013671875,0.0003204345703125
1663861822805174500,9.187174560546875,-0.002105712890625,0.000946044921875,0.0003204345703125
1663861822815062300,9.197062255859375,0.000030517578125,-0.0001220703125,0.0003204345703125
1663861822824919600,9.20691943359375,0.000030517578125,-0.001190185546875,-0.0007476806640625
1663861822834807300,9.216807373046874,-0.002105712890625,-0.00225830078125,-0.0007476806640625
1663861822844664300,9.226664306640625,-0.002105712890625,-0.0001220703125,-0.0007476806640625
1663861822854552000,9.236552001953125,-0.003173828125,-0.001190185546875,-0.0007476806640625
1663861822864470300,9.24647021484375,-0.002105712890625,-0.00225830078125,-0.0018157958984375
1663861822874327600,9.25632763671875,-0.003173828125,-0.001190185546875,-0.0018157958984375
1663861822884245800,9.266245849609374,-0.004241943359375,-0.0001220703125,-0.0007476806640625
1663861822894102800,9.276102783203125,-0.00531005859375,-0.00225830078125,-0.0007476806640625
1663861822903990500,9.285990478515625,-0.0063629150390625,-0.001190185546875,0.0013885498046875
1663861822913878300,9.295878173828125,-0.00531005859375,-0.0001220703125,0.0013885498046875
1663861822923735600,9.305735595703124,-0.004241943359375,0.000946044921875,-0.0007476806640625
1663861822933623000,9.315623046875,-0.003173828125,-0.00225830078125,-0.0018157958984375
1663861822943510800,9.3255107421875,-0.004241943359375,-0.001190185546875,0.0003204345703125
1663861822953398500,9.3353984375,-0.00531005859375,-0.0001220703125,0.0003204345703125
1663861822963316700,9.345316650390625,-0.00531005859375,0.000946044921875,-0.0007476806640625
1663861822973174000,9.355174072265624,-0.00531005859375,-0.001190185546875,-0.0007476806640625
1663861822983061500,9.3650615234375,-0.0063629150390625,-0.00225830078125,0.0003204345703125
1663861822992949200,9.37494921875,-0.0063629150390625,0.000946044921875,-0.0007476806640625
1663861823002806500,9.384806640625,-0.004241943359375,-0.00225830078125,-0.0018157958984375
1663861823012694300,9.3946943359375,-0.00531005859375,-0.00225830078125,-0.0018157958984375
1663861823022581800,9.404581787109375,-0.00531005859375,-0.0001220703125,-0.0028839111328125
1663861823032469500,9.414469482421875,-0.003173828125,-0.0001220703125,-0.0028839111328125
1663861823042357200,9.424357177734375,-0.003173828125,-0.001190185546875,-0.0050048828125
1663861823052245000,9.434244873046875,-0.003173828125,-0.00225830078125,-0.0018157958984375
1663861823062132700,9.4441328125,-0.004241943359375,-0.0001220703125,0.0003204345703125
1663861823072020200,9.454020263671875,-0.003173828125,-0.0001220703125,0.003509521484375
1663861823081877500,9.46387744140625,-0.003173828125,-0.0001220703125,0.00457763671875
1663861823091734800,9.47373486328125,-0.003173828125,0.0019989013671875,0.0067138671875
1663861823101622300,9.483622314453125,-0.004241943359375,0.000946044921875,0.0067138671875
1663861823111510000,9.493510009765625,-0.00531005859375,-0.001190185546875,0.003509521484375
1663861823121397800,9.503397705078125,-0.00531005859375,-0.00225830078125,0.0024566650390625
1663861823131316000,9.51331591796875,-0.004241943359375,0.000946044921875,0.0003204345703125
1663861823141203700,9.52320361328125,-0.003173828125,0.000946044921875,0.0003204345703125
1663861823151091500,9.533091552734374,-0.003173828125,-0.001190185546875,0.0013885498046875
1663861823160979200,9.542979248046874,-0.003173828125,-0.00225830078125,0.0013885498046875
1663861823170866700,9.55286669921875,-0.003173828125,-0.00225830078125,0.0024566650390625
1663861823180754400,9.56275439453125,-0.004241943359375,-0.0001220703125,0.0013885498046875
1663861823190642200,9.57264208984375,-0.003173828125,0.000946044921875,-0.0007476806640625
1663861823200530000,9.582530029296874,-0.003173828125,0.0019989013671875,-0.0007476806640625
1663861823210387000,9.592386962890625,-0.00531005859375,0.0019989013671875,0.0003204345703125
1663861823220274700,9.602274658203125,-0.00531005859375,-0.0001220703125,0.0003204345703125
1663861823230162400,9.612162353515625,-0.004241943359375,-0.001190185546875,0.0013885498046875
1663861823240050200,9.62205029296875,-0.003173828125,-0.00225830078125,0.0003204345703125
1663861823249938000,9.63193798828125,-0.003173828125,-0.003326416015625,-0.0018157958984375
1663861823259825400,9.641825439453125,-0.002105712890625,-0.00225830078125,-0.003936767578125
1663861823269713200,9.651713134765625,-0.002105712890625,-0.001190185546875,-0.0050048828125
1663861823279570400,9.6615703125,-0.00103759765625,-0.0001220703125,-0.003936767578125
1663861823289427500,9.671427490234375,-0.003173828125,0.000946044921875,-0.0028839111328125
1663861823299315200,9.681315185546875,-0.00103759765625,0.0019989013671875,-0.0007476806640625
1663861823309203000,9.691202880859375,-0.002105712890625,0.0030670166015625,-0.0007476806640625
1663861823319090700,9.701090576171875,-0.003173828125,0.0030670166015625,-0.0007476806640625
1663861823328978400,9.710978515625,-0.002105712890625,0.0019989013671875,0.0003204345703125
1663861823338866200,9.7208662109375,-0.002105712890625,0.000946044921875,0.0013885498046875
1663861823348753700,9.730753662109375,-0.00103759765625,0.000946044921875,0.0013885498046875
1663861823358611000,9.74061083984375,-0.00103759765625,0.0019989013671875,0.0003204345703125
1663861823368498700,9.750498779296874,-0.002105712890625,0.0019989013671875,0.0013885498046875
1663861823378386400,9.760386474609374,-0.003173828125,0.0019989013671875,0.0013885498046875
1663861823388274000,9.77027392578125,-0.002105712890625,0.000946044921875,0.0013885498046875
1663861823398131200,9.780131103515625,-0.002105712890625,-0.0001220703125,0.0013885498046875
1663861823408019000,9.79001904296875,-0.00103759765625,-0.001190185546875,0.0003204345703125
1663861823417906700,9.79990673828125,-0.00103759765625,-0.001190185546875,0.0003204345703125
1663861823427794200,9.809794189453125,-0.00103759765625,-0.001190185546875,-0.0007476806640625
1663861823437682000,9.819681884765625,-0.00103759765625,-0.001190185546875,0.0003204345703125
1663861823447569700,9.829569580078125,0.000030517578125,-0.0001220703125,0.0003204345703125
1663861823457457400,9.83945751953125,0.000030517578125,-0.001190185546875,0.0003204345703125
1663861823467345200,9.84934521484375,-0.002105712890625,-0.0001220703125,-0.0018157958984375
1663861823477232600,9.859232666015625,-0.002105712890625,-0.001190185546875,-0.0007476806640625
1663861823487120400,9.869120361328125,-0.00103759765625,-0.00225830078125,-0.0007476806640625
1663861823497008000,9.879008056640625,-0.00103759765625,-0.00225830078125,-0.0018157958984375
1663861823506896000,9.888895751953125,-0.00103759765625,-0.0001220703125,-0.0018157958984375
1663861823516753000,9.8987529296875,-0.002105712890625,-0.001190185546875,-0.0007476806640625
1663861823526640600,9.908640625,-0.002105712890625,-0.00225830078125,-0.0007476806640625
1663861823536528400,9.9185283203125,-0.003173828125,-0.001190185546875,-0.0007476806640625
1663861823546416000,9.928416015625,-0.003173828125,-0.0001220703125,-0.0018157958984375
1663861823556304000,9.938303955078124,-0.002105712890625,-0.001190185546875,0.0003204345703125
1663861823566191400,9.94819140625,-0.00103759765625,-0.001190185546875,0.0003204345703125
1663861823576079000,9.9580791015625,-0.00103759765625,0.000946044921875,0.0003204345703125
1663861823585966800,9.967966796875,-0.002105712890625,0.0019989013671875,0.0003204345703125
1663861823595824000,9.97782421875,-0.00103759765625,0.0019989013671875,0.0013885498046875
1663861823605712000,9.9877119140625,-0.00103759765625,0.000946044921875,0.0003204345703125
1663861823615599400,9.997599365234375,-0.002105712890625,0.0030670166015625,-0.0007476806640625
1663861823625487000,10.007487060546875,-0.003173828125,0.0019989013671875,0.0003204345703125
1663861823635374800,10.017374755859375,-0.002105712890625,0.000946044921875,-0.0018157958984375
1663861823645262600,10.0272626953125,-0.00103759765625,-0.0001220703125,-0.0007476806640625
1663861823655119600,10.03711962890625,-0.003173828125,-0.001190185546875,0.0003204345703125
1663861823665007400,10.04700732421875,-0.00103759765625,-0.001190185546875,-0.003936767578125
1663861823674895000,10.05689501953125,0.0010833740234375,-0.00225830078125,-0.0028839111328125
1663861823684782800,10.066782958984374,0.000030517578125,-0.00225830078125,-0.0028839111328125
1663861823694670600,10.076670654296874,-0.00103759765625,-0.001190185546875,-0.0028839111328125
1663861823704558000,10.08655810546875,-0.00103759765625,-0.00225830078125,-0.0028839111328125
1663861823714415400,10.096415283203125,0.000030517578125,-0.00225830078125,-0.0028839111328125
1663861823724303000,10.10630322265625,0.000030517578125,-0.00225830078125,-0.0007476806640625
1663861823734160100,10.11616015625,-0.00103759765625,-0.001190185546875,0.0024566650390625
1663861823744047900,10.1260478515625,0.000030517578125,-0.0001220703125,0.005645751953125
1663861823753935600,10.135935546875,-0.002105712890625,-0.00225830078125,0.00457763671875
1663861823763823400,10.1458232421875,-0.00103759765625,-0.001190185546875,0.005645751953125
1663861823773711000,10.155711181640624,-0.002105712890625,-0.0001220703125,0.00457763671875
1663861823783598600,10.1655986328125,-0.003173828125,0.000946044921875,0.0013885498046875
1663861823793486300,10.175486328125,-0.00103759765625,0.0030670166015625,0.0003204345703125
1663861823803374000,10.1853740234375,-0.00103759765625,0.0019989013671875,-0.0007476806640625
1663861823813261800,10.19526171875,-0.00103759765625,-0.0001220703125,0.0013885498046875
1663861823823149600,10.205149658203124,-0.002105712890625,-0.001190185546875,0.0024566650390625
1663861823833006600,10.215006591796875,-0.00103759765625,-0.00225830078125,0.0024566650390625
1663861823842894300,10.224894287109375,-0.00103759765625,-0.0001220703125,0.0013885498046875
1663861823852751600,10.234751708984374,-0.00103759765625,-0.00225830078125,-0.0007476806640625
1663861823862639400,10.244639404296874,-0.002105712890625,0.000946044921875,-0.0018157958984375
1663861823872496400,10.254496337890625,-0.00103759765625,0.000946044921875,-0.0007476806640625
1663861823882414600,10.26441455078125,-0.00103759765625,-0.001190185546875,-0.0018157958984375
1663861823892302300,10.27430224609375,-0.002105712890625,-0.001190185546875,-0.0007476806640625
1663861823902190000,10.284190185546874,-0.002105712890625,-0.00439453125,-0.0018157958984375
1663861823912077800,10.294077880859374,-0.002105712890625,-0.00439453125,-0.0018157958984375
1663861823921965300,10.30396533203125,-0.00103759765625,-0.003326416015625,-0.003936767578125
1663861823931853000,10.31385302734375,-0.00103759765625,-0.00225830078125,-0.0028839111328125
1663861823941710300,10.32371044921875,-0.002105712890625,-0.001190185546875,-0.0028839111328125
1663861823951598000,10.33359814453125,-0.00103759765625,-0.001190185546875,-0.003936767578125
1663861823961455000,10.343455078125,-0.00103759765625,-0.001190185546875,-0.003936767578125
1663861823971342800,10.3533427734375,-0.00103759765625,0.000946044921875,-0.0007476806640625
1663861823981230600,10.363230712890624,-0.002105712890625,0.0019989013671875,-0.0007476806640625
1663861823991118300,10.373118408203124,-0.00103759765625,0.000946044921875,0.0003204345703125
1663861824000975400,10.382975341796875,-0.00103759765625,0.000946044921875,0.0013885498046875
1663861824010863000,10.392863037109375,-0.003173828125,0.000946044921875,0.0003204345703125
1663861824020750800,10.402750732421875,-0.00103759765625,0.0019989013671875,0.0003204345703125
1663861824030638600,10.412638671875,0.000030517578125,0.000946044921875,-0.0007476806640625
1663861824040526000,10.422526123046875,-0.00103759765625,-0.00225830078125,-0.0018157958984375
1663861824050383400,10.43238330078125,0.0010833740234375,-0.00225830078125,-0.0028839111328125
1663861824060301600,10.442301513671875,0.0010833740234375,-0.00225830078125,-0.003936767578125
1663861824070189300,10.452189208984375,0.0021514892578125,-0.00439453125,-0.0050048828125
1663861824080077000,10.4620771484375,0.0021514892578125,-0.0065155029296875,-0.0050048828125
1663861824089964800,10.47196484375,0.000030517578125,-0.0075836181640625,-0.0050048828125
1663861824099852300,10.481852294921875,0.0021514892578125,-0.0054473876953125,-0.006072998046875
1663861824109740000,10.491739990234375,0.0042877197265625,-0.0065155029296875,-0.006072998046875
1663861824119627800,10.501627685546875,0.0021514892578125,-0.0065155029296875,-0.00714111328125
1663861824129515500,10.511515625,0.0021514892578125,-0.0075836181640625,-0.00714111328125
1663861824139403300,10.5214033203125,0.0032196044921875,-0.0075836181640625,-0.006072998046875
1663861824149260300,10.53126025390625,0.0032196044921875,-0.0065155029296875,-0.00714111328125
1663861824159148000,10.54114794921875,0.0010833740234375,-0.0054473876953125,-0.00714111328125
1663861824169005300,10.55100537109375,0.0021514892578125,-0.0054473876953125,-0.006072998046875
1663861824178892800,10.560892822265625,0.0010833740234375,-0.0054473876953125,-0.0050048828125
1663861824188780500,10.570780517578125,0.0021514892578125,-0.0054473876953125,-0.003936767578125
1663861824198668300,10.580668212890625,-0.00103759765625,-0.003326416015625,-0.003936767578125
1663861824208556000,10.59055615234375,-0.00103759765625,-0.00225830078125,-0.003936767578125
1663861824218443800,10.60044384765625,0.0010833740234375,-0.00225830078125,-0.0028839111328125
1663861824228331300,10.610331298828125,0.0010833740234375,-0.003326416015625,-0.0028839111328125
1663861824238219000,10.620218994140625,0.0010833740234375,-0.00439453125,-0.003936767578125
1663861824248106800,10.630106689453125,0.000030517578125,-0.003326416015625,-0.0018157958984375
1663861824257994500,10.639994384765625,0.0010833740234375,-0.00439453125,-0.0018157958984375
1663861824267882200,10.64988232421875,0.0032196044921875,-0.003326416015625,-0.0018157958984375
1663861824277739300,10.6597392578125,0.0021514892578125,-0.00439453125,-0.0018157958984375
1663861824287627000,10.669626953125,0.0021514892578125,-0.001190185546875,-0.0018157958984375
1663861824297514800,10.6795146484375,0.0032196044921875,-0.003326416015625,-0.0018157958984375
1663861824307402500,10.689402587890624,0.0021514892578125,-0.003326416015625,-0.0018157958984375
1663861824317290200,10.699290283203124,0.0021514892578125,-0.001190185546875,-0.0028839111328125
1663861824327177700,10.709177734375,0.0010833740234375,-0.00225830078125,-0.0018157958984375
1663861824337035000,10.719034912109375,0.000030517578125,-0.00439453125,-0.0018157958984375
1663861824346922800,10.7289228515625,0.000030517578125,-0.00439453125,-0.0018157958984375
1663861824356810500,10.738810546875,0.000030517578125,-0.0054473876953125,-0.0018157958984375
1663861824366667500,10.74866748046875,0.0010833740234375,-0.00439453125,-0.0028839111328125
1663861824376524800,10.75852490234375,0.0032196044921875,-0.00439453125,-0.006072998046875
1663861824386443000,10.768443115234374,0.0032196044921875,-0.00439453125,-0.003936767578125
1663861824396330800,10.778330810546874,0.0042877197265625,-0.0065155029296875,-0.0050048828125
1663861824406218200,10.78821826171875,0.0042877197265625,-0.0075836181640625,-0.003936767578125
1663861824416106000,10.79810595703125,0.0042877197265625,-0.0075836181640625,-0.0028839111328125
1663861824425993700,10.80799365234375,0.0021514892578125,-0.0065155029296875,0.0024566650390625
1663861824435881500,10.817881591796874,0.0032196044921875,-0.00225830078125,0.00457763671875
1663861824445769200,10.827769287109374,0.0032196044921875,-0.0001220703125,0.005645751953125
1663861824455656700,10.83765673828125,0.0032196044921875,0.000946044921875,0.005645751953125
1663861824465514000,10.847513916015625,0.0032196044921875,-0.0001220703125,0.005645751953125
1663861824475401700,10.857401611328125,0.0021514892578125,-0.0001220703125,0.00457763671875
1663861824485258800,10.8672587890625,0.0032196044921875,0.0019989013671875,0.003509521484375
1663861824495146500,10.877146484375,0.0042877197265625,0.000946044921875,0.0013885498046875
1663861824505034200,10.8870341796875,0.0042877197265625,-0.0001220703125,0.0024566650390625
1663861824514922000,10.896921875,0.0053558349609375,-0.0001220703125,0.0024566650390625
1663861824524809700,10.906809814453124,0.0042877197265625,-0.00225830078125,0.0003204345703125
1663861824534697500,10.916697509765624,0.0032196044921875,-0.003326416015625,-0.0018157958984375
1663861824544585000,10.9265849609375,0.0010833740234375,-0.003326416015625,-0.003936767578125
1663861824554472700,10.93647265625,0.000030517578125,-0.001190185546875,-0.003936767578125
1663861824564330000,10.946330078125,0.000030517578125,-0.001190185546875,-0.003936767578125
1663861824574187000,10.95618701171875,-0.00103759765625,-0.00225830078125,-0.0028839111328125
1663861824584105200,10.966105224609375,-0.00103759765625,-0.00225830078125,-0.003936767578125
1663861824593962500,10.97596240234375,0.000030517578125,-0.00225830078125,-0.0028839111328125
1663861824603850200,10.985850341796874,0.0010833740234375,-0.00439453125,-0.003936767578125
1663861824613738000,10.995738037109374,0.0021514892578125,-0.003326416015625,-0.0050048828125
1663861824623625500,11.00562548828125,0.0042877197265625,-0.00225830078125,-0.0050048828125
1663861824633482800,11.015482666015625,0.0042877197265625,-0.0001220703125,-0.003936767578125
1663861824643401000,11.02540087890625,0.0032196044921875,0.000946044921875,-0.0028839111328125
1663861824653288700,11.035288818359374,0.0021514892578125,0.0019989013671875,-0.0018157958984375
1663861824663176400,11.045176513671874,0.0021514892578125,0.0041351318359375,-0.0007476806640625
1663861824673033500,11.055033447265625,0.000030517578125,0.0030670166015625,0.0003204345703125
1663861824682921200,11.064921142578125,0.000030517578125,0.0019989013671875,0.0013885498046875
1663861824692778500,11.074778564453124,0.0010833740234375,0.000946044921875,-0.0007476806640625
1663861824702696700,11.08469677734375,0.000030517578125,-0.0001220703125,-0.0007476806640625
1663861824712553700,11.0945537109375,0.000030517578125,0.000946044921875,0.0003204345703125
1663861824722441500,11.10444140625,0.000030517578125,0.000946044921875,0.0013885498046875
1663861824732329200,11.1143291015625,0.0010833740234375,-0.0001220703125,0.0003204345703125
1663861824742217000,11.124217041015624,0.000030517578125,-0.00225830078125,-0.0007476806640625
1663861824752104400,11.1341044921875,0.000030517578125,-0.00439453125,-0.0007476806640625
1663861824761961700,11.143961669921875,-0.00103759765625,-0.001190185546875,-0.0007476806640625
1663861824771880000,11.1538798828125,0.000030517578125,-0.0001220703125,-0.0018157958984375
1663861824781767700,11.163767578125,0.000030517578125,-0.001190185546875,-0.003936767578125
1663861824791655400,11.173655517578124,-0.003173828125,-0.00225830078125,-0.0018157958984375
1663861824801543200,11.183543212890624,-0.003173828125,-0.00225830078125,-0.0028839111328125
1663861824811430700,11.1934306640625,-0.003173828125,-0.00225830078125,-0.0028839111328125
1663861824821288000,11.203287841796875,-0.002105712890625,-0.00225830078125,-0.0028839111328125
1663861824831175700,11.21317578125,-0.004241943359375,-0.00225830078125,-0.0018157958984375
1663861824841032700,11.22303271484375,-0.0063629150390625,-0.003326416015625,-0.0018157958984375
1663861824850920400,11.23292041015625,-0.0063629150390625,-0.0001220703125,-0.0028839111328125
1663861824860808200,11.24280810546875,-0.0063629150390625,-0.0001220703125,-0.0018157958984375
1663861824870665500,11.25266552734375,-0.0074310302734375,0.0019989013671875,-0.0018157958984375
1663861824880553000,11.262552978515625,-0.00531005859375,0.000946044921875,-0.0018157958984375
1663861824890440700,11.272440673828125,-0.00531005859375,-0.0001220703125,-0.0007476806640625
1663861824900328400,11.282328369140625,-0.00531005859375,0.0019989013671875,0.0003204345703125
1663861824910216200,11.29221630859375,-0.004241943359375,0.0019989013671875,0.0003204345703125
1663861824920073200,11.3020732421875,-0.004241943359375,0.0019989013671875,0.0003204345703125
1663861824929991400,11.311991455078125,-0.004241943359375,0.0019989013671875,-0.0007476806640625
1663861824939879200,11.321879150390625,-0.003173828125,0.000946044921875,-0.0007476806640625
1663861824949767000,11.331766845703125,-0.003173828125,-0.001190185546875,0.0003204345703125
1663861824959654700,11.341654541015625,-0.003173828125,0.000946044921875,-0.0007476806640625
1663861824969511700,11.35151171875,-0.003173828125,0.000946044921875,0.0003204345703125
1663861824979399400,11.3613994140625,-0.004241943359375,0.000946044921875,-0.0007476806640625
1663861824989287200,11.371287109375,-0.003173828125,0.000946044921875,-0.0007476806640625
1663861824999175000,11.3811748046875,-0.004241943359375,0.000946044921875,0.0003204345703125
1663861825009062700,11.391062744140624,-0.004241943359375,-0.0001220703125,0.0003204345703125
1663861825018950400,11.400950439453124,-0.004241943359375,0.000946044921875,0.0003204345703125
1663861825028838000,11.410837890625,-0.00531005859375,-0.0001220703125,-0.0018157958984375
1663861825038725600,11.4207255859375,-0.004241943359375,-0.001190185546875,-0.0018157958984375
1663861825048613400,11.43061328125,-0.002105712890625,-0.0001220703125,-0.0018157958984375
1663861825058501000,11.440501220703124,-0.003173828125,-0.0001220703125,-0.0007476806640625
1663861825068388900,11.450388916015624,-0.002105712890625,-0.00225830078125,-0.0028839111328125
1663861825078246000,11.460245849609375,-0.003173828125,-0.00439453125,-0.003936767578125
1663861825088133600,11.470133544921875,-0.003173828125,-0.003326416015625,-0.0018157958984375
1663861825098021400,11.480021484375,-0.002105712890625,-0.001190185546875,0.0013885498046875
1663861825107878400,11.48987841796875,-0.003173828125,0.000946044921875,0.003509521484375
1663861825117735700,11.499735595703125,-0.003173828125,0.0019989013671875,0.0067138671875
1663861825127623400,11.50962353515625,-0.004241943359375,0.000946044921875,0.0067138671875
1663861825137541600,11.519541748046874,-0.003173828125,0.0019989013671875,0.005645751953125
1663861825147429400,11.529429443359374,-0.004241943359375,0.0030670166015625,0.0067138671875
1663861825157316900,11.53931689453125,-0.004241943359375,0.0030670166015625,0.00457763671875
1663861825167174100,11.549174072265625,-0.00531005859375,-0.0001220703125,0.003509521484375
1663861825177031400,11.559031494140624,-0.004241943359375,-0.0001220703125,0.0024566650390625
1663861825186949600,11.56894970703125,-0.003173828125,-0.0001220703125,0.0024566650390625
1663861825196837000,11.578837158203125,-0.003173828125,-0.001190185546875,0.0024566650390625
1663861825206724900,11.588724853515625,-0.003173828125,-0.00225830078125,0.00457763671875
1663861825216582100,11.59858203125,-0.003173828125,-0.001190185546875,0.0024566650390625
1663861825226470000,11.608469970703124,-0.002105712890625,0.0019989013671875,0.0003204345703125
1663861825236357400,11.618357421875,-0.004241943359375,0.0019989013671875,-0.0007476806640625
1663861825246245000,11.6282451171875,-0.004241943359375,0.0030670166015625,0.0003204345703125
1663861825256132900,11.6381328125,-0.004241943359375,0.000946044921875,0.0003204345703125
1663861825266020600,11.6480205078125,-0.004241943359375,-0.00225830078125,-0.0007476806640625
1663861825275908400,11.657908447265624,-0.00531005859375,-0.003326416015625,0.0003204345703125
1663861825285796000,11.667796142578124,-0.00531005859375,-0.003326416015625,-0.0007476806640625
1663861825295683600,11.67768359375,-0.004241943359375,-0.00225830078125,-0.0018157958984375
1663861825305571300,11.6875712890625,-0.00103759765625,-0.0001220703125,-0.0007476806640625
1663861825315428600,11.6974287109375,-0.002105712890625,0.0030670166015625,-0.0018157958984375
1663861825325316400,11.70731640625,-0.003173828125,0.0052032470703125,-0.0018157958984375
1663861825335173400,11.71717333984375,-0.002105712890625,0.0041351318359375,-0.0028839111328125
1663861825345061000,11.72706103515625,-0.003173828125,0.0041351318359375,-0.0007476806640625
1663861825354918400,11.73691845703125,-0.003173828125,0.0052032470703125,0.0003204345703125
1663861825364836600,11.746836669921874,-0.004241943359375,0.0030670166015625,0.0013885498046875
1663861825374724000,11.75672412109375,-0.003173828125,0.000946044921875,0.0024566650390625
1663861825384611800,11.76661181640625,-0.00531005859375,0.0041351318359375,0.0024566650390625
1663861825394499600,11.77649951171875,-0.003173828125,0.0030670166015625,0.0024566650390625
1663861825404387300,11.78638720703125,-0.003173828125,0.0030670166015625,0.0003204345703125
1663861825414244400,11.796244384765625,-0.002105712890625,0.0041351318359375,-0.0018157958984375
1663861825424132000,11.806132080078125,-0.003173828125,0.0041351318359375,-0.0007476806640625
1663861825433989400,11.8159892578125,-0.002105712890625,-0.0001220703125,-0.0018157958984375
1663861825443907600,11.825907470703125,-0.003173828125,-0.0001220703125,-0.0018157958984375
1663861825453795300,11.83579541015625,-0.003173828125,0.000946044921875,-0.0007476806640625
1663861825463682800,11.845682861328125,-0.002105712890625,0.000946044921875,0.0003204345703125
1663861825473540000,11.8555400390625,-0.002105712890625,0.000946044921875,0.0003204345703125
1663861825483427800,11.865427734375,-0.002105712890625,-0.0001220703125,0.0013885498046875
1663861825493285000,11.87528515625,0.000030517578125,-0.0001220703125,-0.0007476806640625
1663861825503203300,11.885203369140624,-0.00103759765625,-0.0001220703125,-0.0007476806640625
1663861825513090800,11.8950908203125,-0.00103759765625,-0.001190185546875,0.0003204345703125
1663861825522978600,11.904978515625,-0.00103759765625,-0.00225830078125,0.0003204345703125
1663861825532866300,11.9148662109375,-0.002105712890625,0.000946044921875,0.0003204345703125
1663861825542754000,11.924754150390624,-0.002105712890625,0.000946044921875,-0.0018157958984375
1663861825552641800,11.934641845703124,-0.002105712890625,0.000946044921875,-0.0007476806640625
1663861825562529300,11.944529296875,-0.004241943359375,0.000946044921875,-0.0007476806640625
1663861825572417000,11.9544169921875,-0.004241943359375,0.0030670166015625,-0.0007476806640625
1663861825582274300,11.9642744140625,-0.004241943359375,0.000946044921875,0.0003204345703125
1663861825592162000,11.974162109375,-0.00531005859375,0.000946044921875,0.0003204345703125
1663861825602049500,11.984049560546875,-0.002105712890625,-0.001190185546875,-0.0018157958984375
1663861825611937300,11.993937255859375,-0.002105712890625,-0.001190185546875,-0.0018157958984375
1663861825621825000,12.003824951171875,-0.004241943359375,-0.001190185546875,-0.0028839111328125
1663861825631712800,12.013712646484375,-0.003173828125,-0.0001220703125,-0.0007476806640625
1663861825641600500,12.0236005859375,-0.003173828125,-0.0001220703125,-0.0007476806640625
1663861825651457500,12.03345751953125,-0.003173828125,-0.0001220703125,0.0003204345703125
1663861825661314800,12.043314697265625,-0.002105712890625,-0.0001220703125,0.0003204345703125
1663861825671202600,12.05320263671875,-0.004241943359375,0.0019989013671875,-0.0007476806640625
1663861825681090000,12.063090087890625,-0.004241943359375,0.000946044921875,-0.0007476806640625
1663861825690977800,12.072977783203125,-0.004241943359375,-0.0001220703125,-0.0007476806640625
1663861825700865500,12.082865478515625,-0.003173828125,-0.0001220703125,0.0003204345703125
1663861825710722800,12.092722900390624,-0.003173828125,-0.0001220703125,-0.0018157958984375
1663861825720610300,12.1026103515625,-0.002105712890625,-0.0001220703125,-0.0018157958984375
1663861825730498000,12.112498046875,-0.002105712890625,-0.00225830078125,-0.0007476806640625
1663861825740355300,12.122355224609375,-0.004241943359375,-0.001190185546875,-0.0007476806640625
1663861825750273500,12.1322734375,-0.004241943359375,-0.001190185546875,-0.0007476806640625
1663861825760130800,12.142130859375,-0.003173828125,-0.0001220703125,-0.0007476806640625
1663861825770049000,12.152049072265624,-0.002105712890625,-0.00225830078125,-0.0018157958984375
1663861825779936500,12.1619365234375,-0.00103759765625,-0.00225830078125,-0.0028839111328125
1663861825789824300,12.17182421875,-0.00103759765625,-0.001190185546875,-0.0028839111328125
1663861825799712000,12.1817119140625,-0.002105712890625,-0.001190185546875,-0.0007476806640625
1663861825809569300,12.1915693359375,-0.002105712890625,-0.00225830078125,0.0013885498046875
1663861825819456800,12.201456787109375,-0.00103759765625,-0.001190185546875,0.003509521484375
1663861825829344500,12.211344482421875,-0.002105712890625,-0.001190185546875,0.00457763671875
1663861825839232300,12.221232177734375,-0.003173828125,-0.0001220703125,0.005645751953125
1663861825849120000,12.2311201171875,-0.004241943359375,-0.0001220703125,0.0067138671875
1663861825858977000,12.24097705078125,-0.003173828125,-0.001190185546875,0.003509521484375
1663861825868864800,12.25086474609375,-0.004241943359375,-0.0001220703125,0.0003204345703125
1663861825878752500,12.26075244140625,-0.002105712890625,0.0019989013671875,0.0013885498046875
1663861825888640300,12.27064013671875,-0.002105712890625,0.0019989013671875,0.0013885498046875
1663861825898528000,12.280528076171874,-0.002105712890625,-0.00225830078125,0.0024566650390625
1663861825908385000,12.290385009765625,-0.002105712890625,-0.00225830078125,0.003509521484375
1663861825918272800,12.300272705078125,-0.002105712890625,-0.003326416015625,0.003509521484375
1663861825928160500,12.310160400390625,-0.002105712890625,-0.00225830078125,-0.0007476806640625
1663861825938048300,12.32004833984375,-0.003173828125,0.000946044921875,0.0003204345703125
1663861825947935700,12.329935791015625,-0.003173828125,0.000946044921875,-0.0018157958984375
1663861825957823500,12.339823486328125,-0.002105712890625,-0.0001220703125,-0.0007476806640625
1663861825967680800,12.3496806640625,-0.003173828125,-0.001190185546875,-0.0018157958984375
1663861825977568500,12.359568603515624,-0.004241943359375,-0.00225830078125,-0.0007476806640625
1663861825987456300,12.369456298828124,-0.004241943359375,-0.003326416015625,-0.0018157958984375
1663861825997343700,12.37934375,-0.003173828125,-0.001190185546875,-0.0028839111328125
1663861826007231500,12.3892314453125,-0.003173828125,-0.0001220703125,-0.0018157958984375
1663861826017119200,12.399119140625,-0.00103759765625,0.000946044921875,-0.0007476806640625
1663861826027007000,12.409007080078124,-0.00103759765625,0.000946044921875,0.0024566650390625
1663861826036894700,12.418894775390624,-0.002105712890625,0.0019989013671875,0.0003204345703125
1663861826046782200,12.4287822265625,0.000030517578125,0.0030670166015625,0.0003204345703125
1663861826056639500,12.438639404296875,0.000030517578125,0.000946044921875,0.0013885498046875
1663861826066527200,12.44852734375,-0.00103759765625,0.0019989013671875,0.0024566650390625
1663861826076415000,12.4584150390625,-0.00103759765625,0.0019989013671875,0.0024566650390625
1663861826086302500,12.468302490234375,-0.00103759765625,0.0019989013671875,0.0024566650390625
1663861826096190200,12.478190185546875,-0.002105712890625,0.0030670166015625,0.003509521484375
1663861826106078000,12.488077880859375,-0.002105712890625,0.0030670166015625,0.0024566650390625
1663861826115935200,12.497935302734374,-0.00103759765625,0.0041351318359375,0.0024566650390625
1663861826125822700,12.50782275390625,0.000030517578125,0.0041351318359375,0.0013885498046875
1663861826135710500,12.51771044921875,-0.00103759765625,-0.0001220703125,0.0003204345703125
1663861826145598200,12.52759814453125,-0.003173828125,-0.0001220703125,0.0003204345703125
1663861826155455500,12.53745556640625,0.000030517578125,-0.0001220703125,0.0013885498046875
1663861826165343000,12.547343017578125,0.0010833740234375,-0.001190185546875,0.0003204345703125
1663861826175200300,12.5572001953125,0.000030517578125,-0.001190185546875,0.0003204345703125
1663861826185088000,12.567087890625,0.0010833740234375,-0.0001220703125,0.0003204345703125
1663861826195006200,12.577006103515625,0.0010833740234375,-0.001190185546875,0.0003204345703125
1663861826204863500,12.586863525390624,0.000030517578125,-0.001190185546875,0.0003204345703125
1663861826214751000,12.5967509765625,-0.002105712890625,-0.00225830078125,0.0003204345703125
1663861826224638700,12.606638671875,-0.00103759765625,-0.001190185546875,0.0003204345703125
1663861826234526500,12.6165263671875,-0.00103759765625,-0.001190185546875,-0.0007476806640625
1663861826244414200,12.626414306640624,-0.003173828125,-0.0001220703125,-0.0007476806640625
1663861826254271200,12.636271240234375,-0.002105712890625,0.000946044921875,-0.0018157958984375
1663861826264189400,12.646189453125,-0.002105712890625,-0.0001220703125,-0.0028839111328125
1663861826274077200,12.6560771484375,-0.002105712890625,-0.00225830078125,-0.0028839111328125
1663861826283965000,12.66596484375,-0.003173828125,-0.001190185546875,-0.0028839111328125
1663861826293852700,12.675852783203124,-0.00103759765625,-0.001190185546875,-0.0028839111328125
1663861826303740400,12.685740478515624,-0.00103759765625,-0.003326416015625,-0.003936767578125
1663861826313628000,12.6956279296875,-0.00103759765625,-0.003326416015625,-0.0018157958984375
1663861826323515600,12.705515625,-0.003173828125,-0.001190185546875,-0.0018157958984375
1663861826333373000,12.715373046875,-0.002105712890625,-0.0001220703125,-0.003936767578125
1663861826343230000,12.72522998046875,0.000030517578125,-0.001190185546875,-0.0028839111328125
1663861826353087200,12.735087158203125,-0.002105712890625,-0.00225830078125,-0.0018157958984375
1663861826363005400,12.74500537109375,0.000030517578125,-0.0001220703125,-0.0028839111328125
1663861826372862700,12.75486279296875,-0.00103759765625,-0.003326416015625,-0.0018157958984375
1663861826382750200,12.764750244140625,0.000030517578125,-0.003326416015625,-0.0028839111328125
1663861826392668400,12.77466845703125,0.000030517578125,-0.00439453125,-0.0018157958984375
1663861826402525700,12.784525634765625,0.0010833740234375,-0.0054473876953125,-0.003936767578125
1663861826412413400,12.794413330078125,0.0010833740234375,-0.0054473876953125,-0.00714111328125
1663861826422301200,12.80430126953125,0.0010833740234375,-0.00439453125,-0.008209228515625
1663861826432189000,12.81418896484375,0.0010833740234375,-0.0075836181640625,-0.008209228515625
1663861826442076400,12.824076416015625,0.0021514892578125,-0.0086517333984375,-0.0092620849609375
1663861826451933700,12.83393359375,0.0010833740234375,-0.0075836181640625,-0.0103302001953125
1663861826461821400,12.843821533203124,-0.002105712890625,-0.0086517333984375,-0.008209228515625
1663861826471709200,12.853709228515624,-0.002105712890625,-0.0097198486328125,-0.0092620849609375
1663861826481566200,12.863566162109375,-0.00103759765625,-0.0097198486328125,-0.0103302001953125
1663861826491484400,12.873484375,0.000030517578125,-0.0097198486328125,-0.0103302001953125
1663861826501341700,12.883341796875,0.0010833740234375,-0.0075836181640625,-0.0124664306640625
1663861826511260000,12.893260009765624,0.000030517578125,-0.0086517333984375,-0.0124664306640625
1663861826521147600,12.903147705078124,0.0010833740234375,-0.0075836181640625,-0.0092620849609375
1663861826531035100,12.91303515625,0.0021514892578125,-0.00439453125,-0.008209228515625
1663861826540923000,12.9229228515625,0.0010833740234375,-0.0065155029296875,-0.008209228515625
1663861826550780200,12.9327802734375,0.0010833740234375,-0.0054473876953125,-0.0050048828125
1663861826560637200,12.94263720703125,0.0021514892578125,-0.00225830078125,-0.003936767578125
1663861826570555400,12.952555419921875,0.000030517578125,0.0030670166015625,-0.0050048828125
1663861826580412700,12.96241259765625,-0.00103759765625,0.0062713623046875,-0.0050048828125
1663861826590300400,12.972300537109374,0.000030517578125,0.008392333984375,-0.008209228515625
1663861826600188200,12.982188232421874,0.0010833740234375,0.0030670166015625,-0.0092620849609375
1663861826610075600,12.99207568359375,0.0010833740234375,-0.00439453125,-0.00714111328125
1663861826619963400,13.00196337890625,0.0032196044921875,-0.0075836181640625,-0.006072998046875
1663861826629851100,13.01185107421875,0.0042877197265625,-0.0086517333984375,-0.0007476806640625
