time,seconds_elapsed,z,y,x
1663861813850908700,0.23290869140625,-88.9129638671875,-64.13116455078125,76.5472412109375
1663861813870867200,0.2528671875,-89.4622802734375,-61.4044189453125,75.64544677734375
1663861813890886700,0.27288671875,-89.92462158203125,-61.57379150390625,73.663330078125
1663861813910845200,0.29284521484375,-91.7724609375,-62.34130859375,73.199462890625
1663861813930864600,0.31286474609375,-88.726806640625,-62.4908447265625,72.7447509765625
1663861813950853600,0.332853515625,-89.788818359375,-62.19482421875,71.98333740234375
1663861813970843000,0.3528427734375,-89.3280029296875,-62.04376220703125,71.832275390625
1663861813990831900,0.372831787109375,-89.068603515625,-64.02740478515625,70.90911865234375
1663861814010820900,0.39282080078125,-91.77093505859375,-62.07427978515625,68.78204345703125
1663861814030809900,0.412809814453125,-91.7572021484375,-61.5997314453125,71.0693359375
1663861814050798800,0.432798828125,-89.80865478515625,-62.97760009765625,69.38934326171875
1663861814070787800,0.452787841796875,-91.49017333984375,-63.14697265625,67.7093505859375
1663861814090746400,0.472746337890625,-91.18499755859375,-63.1439208984375,68.0145263671875
1663861814110765800,0.492765869140625,-90.91796875,-64.8162841796875,67.85430908203125
1663861814130754800,0.5127548828125,-90.5975341796875,-64.06402587890625,66.79229736328125
1663861814150743800,0.532743896484375,-90.9027099609375,-64.0716552734375,66.02935791015625
1663861814170732800,0.55273291015625,-91.67327880859375,-64.3829345703125,65.264892578125
1663861814190721800,0.5727216796875,-90.73028564453125,-63.16070556640625,65.88134765625
1663861814210711000,0.5927109375,-91.1773681640625,-62.70751953125,65.5792236328125
1663861814230700000,0.612699951171875,-89.324951171875,-61.64398193359375,65.12908935546875
1663861814250963700,0.632963623046875,-91.607666015625,-61.4959716796875,65.27862548828125
1663861814270891500,0.6528916015625,-91.888427734375,-60.43548583984375,64.97955322265625
1663861814290667000,0.6726669921875,-91.1407470703125,-61.04736328125,64.36767578125
1663861814310656000,0.692656005859375,-92.37060546875,-61.50054931640625,64.97344970703125
1663861814330675500,0.712675537109375,-91.8975830078125,-60.7513427734375,63.45367431640625
1663861814350634000,0.732634033203125,-92.51556396484375,-61.06719970703125,62.23297119140625
1663861814370653400,0.7526533203125,-92.3919677734375,-62.29095458984375,61.31134033203125
1663861814390642700,0.772642578125,-91.85333251953125,-65.350341796875,58.8592529296875
1663861814410601000,0.79260107421875,-91.864013671875,-65.802001953125,59.31396484375
1663861814430590000,0.81258984375,-90.63262939453125,-65.2099609375,57.18536376953125
1663861814450580700,0.832580810546875,-90.62957763671875,-64.935302734375,53.52783203125
1663861814470569700,0.85256982421875,-89.86968994140625,-64.95819091796875,50.63323974609375
1663861814490559000,0.87255908203125,-88.0767822265625,-66.37115478515625,44.83795166015625
1663861814510548000,0.8925478515625,-84.59014892578125,-67.15240478515625,41.48406982421875
1663861814530537000,0.912536865234375,-82.97271728515625,-69.61212158203125,37.664794921875
1663861814550526000,0.93252587890625,-81.89239501953125,-68.8873291015625,33.2489013671875
1663861814570515000,0.952514892578125,-79.254150390625,-66.64276123046875,28.53851318359375
1663861814590504000,0.97250390625,-75.81024169921875,-62.56103515625,25.0579833984375
1663861814610584600,0.99258447265625,-73.7518310546875,-59.09423828125,21.1151123046875
1663861814630482000,1.01248193359375,-70.9442138671875,-56.09588623046875,15.4937744140625
1663861814650471000,1.032470947265625,-67.45758056640625,-50.30975341796875,15.98358154296875
1663861814670460000,1.0524599609375,-64.306640625,-45.7611083984375,13.8763427734375
1663861814690449000,1.072448974609375,-62.835693359375,-41.3604736328125,12.8326416015625
1663861814710438000,1.09243798828125,-59.60540771484375,-40.13824462890625,12.689208984375
1663861814730427100,1.11242724609375,-59.07745361328125,-36.9537353515625,11.7919921875
1663861814750416100,1.132416015625,-56.8939208984375,-34.81903076171875,12.109375
1663861814770405000,1.152405029296875,-54.45098876953125,-34.67254638671875,10.89324951171875
1663861814790394000,1.17239404296875,-54.266357421875,-33.29620361328125,11.81488037109375
1663861814810383000,1.192383056640625,-54.42657470703125,-33.60595703125,11.2030029296875
1663861814830372000,1.2123720703125,-51.98822021484375,-33.6029052734375,10.90087890625
1663861814850330600,1.23233056640625,-51.10015869140625,-34.81597900390625,11.04888916015625
1663861814870350000,1.25235009765625,-50.61798095703125,-33.75091552734375,11.05499267578125
1663861814890339000,1.272339111328125,-49.10430908203125,-34.20562744140625,10.90240478515625
1663861814910297600,1.292297607421875,-50.46234130859375,-33.599853515625,10.90240478515625
1663861814930317000,1.312317138671875,-48.65570068359375,-34.65423583984375,11.66229248046875
1663861814950306000,1.33230615234375,-48.14300537109375,-32.2174072265625,12.13226318359375
1663861814970295300,1.35229541015625,-49.359130859375,-32.0709228515625,11.67449951171875
1663861814990284300,1.3722841796875,-45.81298828125,-30.37567138671875,13.66729736328125
1663861815010669800,1.392669921875,-44.27032470703125,-29.4921875,9.86328125
1663861815030262300,1.41226220703125,-46.53472900390625,-28.56903076171875,11.846923828125
1663861815050251300,1.432251220703125,-44.1375732421875,-30.39398193359375,11.077880859375
1663861815070270700,1.452270751953125,-45.6695556640625,-30.69610595703125,11.6851806640625
1663861815090229200,1.472229248046875,-43.4814453125,-28.4027099609375,12.7655029296875
1663861815110218200,1.49221826171875,-40.69061279296875,-26.416015625,13.3880615234375
1663861815130543000,1.512543212890625,-38.800048828125,-23.81744384765625,14.77508544921875
1663861815150471000,1.532470947265625,-37.50457763671875,-20.4620361328125,15.7073974609375
1663861815170246400,1.552246337890625,-39.15863037109375,-19.537353515625,17.6910400390625
1663861815190205000,1.572204833984375,-39.25628662109375,-17.1142578125,16.7877197265625
1663861815210194000,1.59219384765625,-38.1622314453125,-16.021728515625,19.842529296875
1663861815230152400,1.61215234375,-37.55035400390625,-15.87982177734375,18.4722900390625
1663861815250141400,1.632141357421875,-39.35394287109375,-14.81170654296875,19.54193115234375
1663861815270130400,1.65213037109375,-39.05029296875,-14.8162841796875,18.93310546875
1663861815290119400,1.672119384765625,-36.17706298828125,-15.87066650390625,19.23675537109375
1663861815310108400,1.6921083984375,-37.98980712890625,-15.11688232421875,18.93310546875
1663861815330097400,1.712097412109375,-37.98065185546875,-14.794921875,21.06781005859375
1663861815350086400,1.73208642578125,-36.7340087890625,-13.5833740234375,20.31402587890625
1663861815370075400,1.752075439453125,-36.60125732421875,-14.49432373046875,20.4620361328125
1663861815390064400,1.772064453125,-35.797119140625,-12.6617431640625,21.234130859375
1663861815410053400,1.792053466796875,-35.51788330078125,-13.8580322265625,23.5137939453125
1663861815430042400,1.81204248046875,-32.06329345703125,-9.576416015625,25.82550048828125
1663861815450031600,1.832031494140625,-29.78973388671875,-10.30120849609375,29.48150634765625
1663861815470051000,1.852051025390625,-28.192138671875,-7.23724365234375,31.9366455078125
1663861815490009600,1.872009521484375,-29.3548583984375,-4.78515625,34.69085693359375
1663861815509998600,1.89199853515625,-29.59747314453125,-2.17742919921875,37.59918212890625
1663861815529987600,1.911987548828125,-29.12445068359375,-1.678466796875,42.63153076171875
1663861815549976600,1.9319765625,-30.46722412109375,-0.45013427734375,44.464111328125
1663861815569996000,1.95199609375,-31.0577392578125,0.32501220703125,46.44927978515625
1663861815589954600,1.97195458984375,-33.489990234375,0.63323974609375,47.51434326171875
1663861815609943600,1.991943603515625,-34.85565185546875,0.80108642578125,49.64752197265625
1663861815629932500,2.0119326171875,-34.81597900390625,2.618408203125,48.89373779296875
1663861815649921500,2.031921630859375,-34.088134765625,1.10015869140625,48.88763427734375
1663861815669910800,2.051910888671875,-36.04583740234375,2.032470703125,51.9378662109375
1663861815689899800,2.071899658203125,-34.23004150390625,1.422119140625,51.1749267578125
1663861815709888800,2.091888671875,-31.0455322265625,0.67291259765625,51.6326904296875
1663861815729877800,2.111877685546875,-31.94122314453125,1.5716552734375,50.26397705078125
1663861815749866800,2.13186669921875,-30.438232421875,0.52642822265625,52.08892822265625
1663861815769855700,2.151855712890625,-27.2369384765625,0.52337646484375,51.02691650390625
1663861815789844700,2.1718447265625,-26.1749267578125,0.2349853515625,52.54974365234375
1663861815809833700,2.191833740234375,-26.50299072265625,-0.82244873046875,53.30657958984375
1663861815829822700,2.21182275390625,-25.4364013671875,-0.8270263671875,52.545166015625
1663861815849811700,2.231811767578125,-23.193359375,-2.79083251953125,53.45306396484375
1663861815869800700,2.25180078125,-22.69439697265625,-0.96282958984375,53.76739501953125
1663861815889789700,2.271789794921875,-21.83380126953125,-3.38592529296875,54.67071533203125
1663861815909779000,2.291779052734375,-20.43304443359375,-2.16064453125,55.43975830078125
1663861815929768000,2.311767822265625,-20.294189453125,-2.76947021484375,55.28564453125
1663861815949757000,2.3317568359375,-20.458984375,-3.36761474609375,56.50177001953125
1663861815969746000,2.351745849609375,-18.8262939453125,-5.33447265625,57.10296630859375
1663861815989735000,2.37173486328125,-17.45758056640625,-5.61981201171875,58.9324951171875
1663861816009724000,2.391723876953125,-17.913818359375,-5.48095703125,57.56072998046875
1663861816030018000,2.41201806640625,-16.2506103515625,-6.0882568359375,57.10296630859375
1663861816049793500,2.43179345703125,-16.131591796875,-7.60498046875,57.55157470703125
1663861816069691000,2.45169091796875,-15.0360107421875,-6.25,55.731201171875
1663861816089680000,2.471679931640625,-14.90478515625,-7.16552734375,55.2703857421875
1663861816109668900,2.4916689453125,-13.42010498046875,-8.98284912109375,55.56793212890625
1663861816129657900,2.511657958984375,-12.4969482421875,-8.660888671875,57.55157470703125
1663861816149647000,2.531647216796875,-12.078857421875,-10.3424072265625,56.32476806640625
1663861816169636000,2.551635986328125,-10.87799072265625,-11.236572265625,57.99713134765625
1663861816189625000,2.571625,-9.5428466796875,-12.90740966796875,57.83843994140625
1663861816209614000,2.591614013671875,-7.77740478515625,-15.78521728515625,58.587646484375
1663861816229603000,2.61160302734375,-8.23516845703125,-15.78521728515625,58.587646484375
1663861816249592000,2.631592041015625,-6.29730224609375,-17.7490234375,59.4940185546875
1663861816269581000,2.6515810546875,-4.64935302734375,-19.1009521484375,61.0137939453125
1663861816289570000,2.671570068359375,-4.43267822265625,-23.04229736328125,62.21466064453125
1663861816309559000,2.69155908203125,-2.62603759765625,-24.0936279296875,63.2781982421875
1663861816329548000,2.711548095703125,-2.691650390625,-26.9805908203125,63.262939453125
1663861816349506600,2.731506591796875,-1.66473388671875,-28.7994384765625,63.56048583984375
1663861816369526000,2.751526123046875,-0.34027099609375,-30.91888427734375,64.312744140625
1663861816389515300,2.771515380859375,-0.21820068359375,-32.2845458984375,64.459228515625
1663861816409473500,2.7914736328125,-0.457763671875,-36.0931396484375,63.525390625
1663861816429493200,2.8114931640625,1.19171142578125,-37.30621337890625,63.3697509765625
1663861816449482200,2.831482177734375,-0.41656494140625,-40.9576416015625,63.34991455078125
1663861816469471200,2.85147119140625,-0.86822509765625,-40.79132080078125,65.02685546875
1663861816489460200,2.871460205078125,-0.18463134765625,-44.2840576171875,65.16265869140625
1663861816509449200,2.89144921875,0.07476806640625,-46.2615966796875,65.00091552734375
1663861816529407700,2.91140771484375,-0.87890625,-47.9461669921875,63.6199951171875
1663861816549427200,2.93142724609375,1.22528076171875,-49.29962158203125,64.8345947265625
1663861816569416200,2.951416259765625,-0.6439208984375,-51.11846923828125,65.8905029296875
1663861816589405200,2.9714052734375,-0.9765625,-52.20489501953125,63.29345703125
1663861816609394200,2.991394287109375,-0.87738037109375,-54.62188720703125,64.95819091796875
1663861816629383400,3.011383544921875,-1.6265869140625,-54.01763916015625,64.80865478515625
1663861816649372400,3.031372314453125,-1.2237548828125,-56.44378662109375,65.25421142578125
1663861816669361400,3.051361328125,-1.50299072265625,-55.3741455078125,66.02020263671875
1663861816689350400,3.071350341796875,-1.812744140625,-55.6610107421875,68.15338134765625
1663861816709339400,3.09133935546875,-1.1871337890625,-54.91180419921875,66.78619384765625
1663861816729328400,3.111328369140625,-1.0467529296875,-55.499267578125,69.06890869140625
1663861816749317400,3.1313173828125,-1.94549560546875,-54.75311279296875,67.7001953125
1663861816769306400,3.151306396484375,-1.14593505859375,-53.08685302734375,66.7938232421875
1663861816789295400,3.17129541015625,-0.6622314453125,-51.88140869140625,65.4296875
1663861816809284400,3.191284423828125,-0.81024169921875,-51.72271728515625,66.34368896484375
1663861816829273300,3.2112734375,-0.0244140625,-50.66680908203125,65.283203125
1663861816849262600,3.2312626953125,-1.263427734375,-51.5594482421875,67.71697998046875
1663861816869220900,3.251220947265625,-0.49591064453125,-51.26800537109375,66.04156494140625
1663861816889240600,3.271240478515625,-0.3753662109375,-52.6458740234375,64.8162841796875
1663861816909473500,3.2914736328125,0.07781982421875,-52.93426513671875,66.644287109375
1663861816929371100,3.31137109375,-0.67901611328125,-52.63824462890625,65.88287353515625
1663861816949207600,3.33120751953125,-0.37994384765625,-52.9388427734375,66.1865234375
1663861816969196500,3.351196533203125,-0.07476806640625,-52.79998779296875,64.5111083984375
1663861816989185500,3.371185546875,0.1007080078125,-51.8798828125,65.4296875
1663861817009205000,3.391205078125,-0.35858154296875,-51.885986328125,64.8193359375
1663861817029194000,3.411194091796875,0.37841796875,-52.95867919921875,63.59710693359375
1663861817049152500,3.431152587890625,1.7364501953125,-53.57208251953125,62.6800537109375
1663861817069172200,3.451172119140625,0.86212158203125,-51.88446044921875,64.82086181640625
1663861817089161200,3.4711611328125,-0.05035400390625,-51.74102783203125,63.9068603515625
1663861817109150200,3.491150146484375,-0.04119873046875,-51.29547119140625,62.689208984375
1663861817129139200,3.51113916015625,0.2349853515625,-52.51312255859375,62.37945556640625
1663861817149097700,3.53109765625,1.141357421875,-52.960205078125,63.29193115234375
1663861817169117200,3.5511171875,-0.8453369140625,-53.12652587890625,62.0697021484375
1663861817189106200,3.571106201171875,-0.97198486328125,-51.922607421875,60.70404052734375
1663861817209064700,3.591064697265625,0.2349853515625,-52.520751953125,61.61651611328125
1663861817229053700,3.6110537109375,0.1983642578125,-54.18243408203125,62.67547607421875
1663861817249042700,3.631042724609375,-0.1007080078125,-53.887939453125,61.61041259765625
1663861817269062100,3.651062255859375,0.37689208984375,-52.98004150390625,61.1572265625
1663861817289020700,3.671020751953125,0.531005859375,-52.83203125,60.54840087890625
1663861817309009700,3.691009765625,-0.360107421875,-51.90582275390625,62.5335693359375
1663861817328999000,3.7109990234375,-0.68511962890625,-52.68402099609375,60.39581298828125
1663861817348988000,3.73098779296875,-0.99639892578125,-52.98614501953125,60.699462890625
1663861817368977000,3.750976806640625,-1.4251708984375,-51.75933837890625,62.0758056640625
1663861817388966000,3.7709658203125,0.21820068359375,-53.143310546875,59.78546142578125
1663861817408955000,3.790954833984375,0.1007080078125,-51.62811279296875,59.3353271484375
1663861817428913400,3.810913330078125,0.50048828125,-54.2022705078125,60.23712158203125
1663861817448932900,3.830932861328125,-0.97503662109375,-51.9378662109375,58.87603759765625
1663861817468921900,3.850921875,-0.7049560546875,-53.4637451171875,58.10546875
1663861817488910800,3.870910888671875,0.5218505859375,-53.15399169921875,58.4136962890625
1663861817508899800,3.89089990234375,0.3814697265625,-52.691650390625,59.33074951171875
1663861817528888800,3.910888916015625,1.2939453125,-52.83050537109375,60.5499267578125
1663861817548847400,3.930847412109375,0.4058837890625,-51.617431640625,60.40191650390625
1663861817568867000,3.9508671875,0.982666015625,-53.13568115234375,60.54840087890625
1663861817588856000,3.97085595703125,-0.96588134765625,-51.61895751953125,60.70556640625
1663861817608814600,3.990814697265625,1.300048828125,-52.5360107421875,59.48486328125
1663861817628834000,4.010833984375,-0.07781982421875,-52.83050537109375,60.85357666015625
1663861817648823000,4.030822998046875,-0.37078857421875,-52.239990234375,58.87451171875
1663861817668812000,4.05081201171875,-0.5615234375,-53.91082763671875,59.0179443359375
1663861817688780500,4.070780517578125,-0.7171630859375,-54.0557861328125,59.93194580078125
1663861817708769500,4.09076953125,0.97198486328125,-53.5919189453125,60.54534912109375
1663861817728758500,4.110758544921875,0.0762939453125,-52.691650390625,59.33074951171875
1663861817748717000,4.130717041015625,0.0518798828125,-53.76129150390625,58.563232421875
1663861817768736800,4.15073681640625,0.2410888671875,-52.0904541015625,58.41827392578125
1663861817789000400,4.17100048828125,0.531005859375,-52.838134765625,59.7869873046875
1663861817808928300,4.19092822265625,1.318359375,-51.77001953125,60.2508544921875
1663861817828703700,4.210703857421875,0.96435546875,-53.90167236328125,59.78240966796875
1663861817848692700,4.230692626953125,1.3092041015625,-52.08587646484375,58.7249755859375
1663861817868681700,4.250681640625,-0.9796142578125,-52.22930908203125,60.3973388671875
1663861817888670700,4.270670654296875,-0.054931640625,-51.7730712890625,60.24932861328125
1663861817908659700,4.29065966796875,0.39215087890625,-52.22625732421875,60.39886474609375
1663861817928618200,4.3106181640625,1.16119384765625,-51.93328857421875,58.8775634765625
1663861817948637700,4.3306376953125,0.8148193359375,-53.7506103515625,59.62982177734375
1663861817968626700,4.350626708984375,1.91497802734375,-52.23846435546875,58.5723876953125
1663861817988615700,4.37061572265625,0.4058837890625,-51.62506103515625,59.6405029296875
1663861818008605000,4.39060498046875,0.88043212890625,-50.8636474609375,59.64508056640625
1663861818028594000,4.410593994140625,0.50506591796875,-53.912353515625,58.71429443359375
1663861818048583000,4.4305830078125,-1.00860595703125,-53.4515380859375,59.62982177734375
1663861818068572000,4.450572021484375,0.8636474609375,-51.62353515625,59.6405029296875
1663861818088561000,4.470560791015625,-0.042724609375,-51.31072998046875,60.8612060546875
1663861818108550000,4.4905498046875,-0.518798828125,-52.081298828125,59.7900390625
1663861818128508400,4.51050830078125,0.84991455078125,-52.22930908203125,59.942626953125
1663861818148527900,4.53052783203125,1.44805908203125,-52.6947021484375,58.5693359375
1663861818168516900,4.550516845703125,0.12054443359375,-50.84991455078125,61.47308349609375
1663861818188505900,4.570505859375,-0.08544921875,-53.1402587890625,60.24169921875
1663861818208494800,4.590494873046875,-1.13983154296875,-52.54058837890625,59.4818115234375
1663861818228484000,4.610484130859375,0.244140625,-52.07366943359375,60.552978515625
1663861818248473000,4.63047314453125,-0.06103515625,-52.07061767578125,60.85662841796875
1663861818268462000,4.650462158203125,-1.617431640625,-53.4454345703125,60.3912353515625
1663861818288451000,4.670451171875,1.3275146484375,-51.324462890625,59.033203125
1663861818308440000,4.690440185546875,-0.543212890625,-53.14483642578125,59.783935546875
1663861818328429000,4.710428955078125,0.3814697265625,-52.691650390625,59.33074951171875
1663861818348418000,4.73041796875,1.7669677734375,-52.0782470703125,59.4879150390625
1663861818368407000,4.750406982421875,0.396728515625,-51.94091796875,58.1146240234375
1663861818388396000,4.77039599609375,0.52337646484375,-53.1494140625,59.0240478515625
1663861818408385000,4.790385009765625,1.7730712890625,-51.78070068359375,58.72650146484375
1663861818428374000,4.8103740234375,0.05950927734375,-53.448486328125,59.63134765625
1663861818448332500,4.83033251953125,0.11138916015625,-51.171875,59.33685302734375
1663861818468352300,4.850352294921875,1.14288330078125,-52.69622802734375,58.5693359375
1663861818488341200,4.87034130859375,0.19378662109375,-54.2144775390625,59.0179443359375
1663861818508330200,4.890330322265625,0.26702880859375,-51.0223388671875,59.033203125
1663861818528319200,4.9103193359375,0.84991455078125,-52.22930908203125,59.942626953125
1663861818548308200,4.93030810546875,-1.28631591796875,-52.24456787109375,58.5693359375
1663861818568297200,4.950297119140625,0.40435791015625,-51.63421630859375,58.57391357421875
1663861818588286200,4.9702861328125,0.2655029296875,-51.02386474609375,58.72955322265625
1663861818608244700,4.99024462890625,-0.32958984375,-50.41046142578125,59.64508056640625
1663861818628264200,5.01026416015625,0.21820068359375,-53.1494140625,59.02252197265625
1663861818648253200,5.030253173828125,1.16729736328125,-51.629638671875,58.87908935546875
1663861818668578000,5.050578125,-0.35552978515625,-51.617431640625,60.70709228515625
1663861818688475400,5.070475341796875,-1.33819580078125,-54.51812744140625,59.320068359375
1663861818708251000,5.0902509765625,2.24456787109375,-51.17034912109375,58.88214111328125
1663861818728209400,5.11020947265625,0.23345947265625,-52.5360107421875,59.78851318359375
1663861818748228900,5.130228759765625,0.55389404296875,-51.78375244140625,58.7249755859375
1663861818768187400,5.1501875,1.12152099609375,-53.741455078125,60.69793701171875
1663861818788146000,5.17014599609375,-0.054931640625,-51.7730712890625,60.24932861328125
1663861818808165400,5.190165283203125,1.13677978515625,-52.9876708984375,59.9395751953125
1663861818828154400,5.210154296875,0.8392333984375,-52.685546875,59.94110107421875
1663861818848173800,5.230173828125,1.16729736328125,-51.62506103515625,59.33685302734375
1663861818868132400,5.25013232421875,2.3834228515625,-51.78070068359375,58.72802734375
1663861818888152000,5.270152099609375,0.96435546875,-53.89862060546875,60.24017333984375
1663861818908110300,5.2901103515625,0.83160400390625,-52.9937744140625,59.3292236328125
1663861818928099300,5.310099365234375,0.3814697265625,-52.6947021484375,58.87298583984375
1663861818948088600,5.330088623046875,-0.823974609375,-52.0782470703125,60.24627685546875
1663861818968077600,5.35007763671875,-0.84075927734375,-52.8350830078125,60.546875
1663861818988036000,5.3700361328125,-0.39825439453125,-53.44696044921875,59.93499755859375
1663861819008055600,5.3900556640625,1.300048828125,-52.532958984375,59.7900390625
1663861819028044500,5.41004443359375,0.250244140625,-51.77154541015625,60.24932861328125
1663861819048003000,5.430003173828125,0.09918212890625,-51.64031982421875,57.81097412109375
1663861819068022500,5.4500224609375,1.7669677734375,-52.08587646484375,58.7249755859375
1663861819088011500,5.470011474609375,0.07781982421875,-52.6824951171875,60.3973388671875
1663861819108000500,5.49000048828125,1.44195556640625,-52.996826171875,58.87298583984375
1663861819127989500,5.509989501953125,-0.52947998046875,-52.53753662109375,59.7869873046875
1663861819147978500,5.529978515625,2.52532958984375,-52.24151611328125,58.11614990234375
1663861819167967500,5.549967529296875,1.4251708984375,-53.75213623046875,59.326171875
1663861819187956700,5.569956787109375,0.8392333984375,-52.685546875,59.94110107421875
1663861819207945700,5.58994580078125,1.3153076171875,-51.788330078125,57.965087890625
1663861819227934700,5.609934814453125,0.10986328125,-51.1749267578125,58.880615234375
1663861819247923700,5.629923828125,0.0701904296875,-52.9937744140625,59.63287353515625
1663861819267912700,5.64991259765625,1.0040283203125,-52.0843505859375,59.02862548828125
1663861819287901700,5.669901611328125,1.16729736328125,-51.6357421875,58.11767578125
1663861819307890700,5.689890625,0.06866455078125,-53.00140380859375,58.5662841796875
1663861819327879700,5.709879638671875,-0.70953369140625,-53.7567138671875,59.32464599609375
1663861819347868700,5.72986865234375,0.5462646484375,-52.0904541015625,58.4197998046875
1663861819367857700,5.749857666015625,-0.7049560546875,-53.45916748046875,58.563232421875
1663861819387846700,5.7698466796875,-0.0640869140625,-52.09197998046875,58.41827392578125
1663861819407835600,5.789835693359375,-0.6439208984375,-50.8575439453125,60.71014404296875
1663861819427825000,5.809824951171875,1.75018310546875,-52.838134765625,59.48333740234375
1663861819447814000,5.82981396484375,-0.08697509765625,-53.1463623046875,59.48028564453125
1663861819467803000,5.849802978515625,0.872802734375,-51.17645263671875,58.57696533203125
1663861819487791900,5.8697919921875,-0.37078857421875,-52.239990234375,58.87451171875
1663861819507780900,5.88978076171875,-0.543212890625,-53.14788818359375,59.48028564453125
1663861819527769900,5.909769775390625,1.46026611328125,-52.227783203125,59.94415283203125
1663861819547758800,5.9297587890625,-1.61895751953125,-53.46221923828125,58.56170654296875
1663861819568083500,5.95008349609375,1.7669677734375,-52.08282470703125,59.0301513671875
1663861819587828500,5.969828369140625,1.275634765625,-53.60565185546875,58.71734619140625
1663861819607725800,5.989725830078125,1.77459716796875,-51.77459716796875,59.48944091796875
1663861819627714800,6.00971484375,-0.48980712890625,-50.72021484375,59.03472900390625
1663861819647704000,6.0297041015625,-0.08697509765625,-53.1463623046875,59.48028564453125
1663861819667693000,6.049693115234375,-0.6927490234375,-52.996826171875,59.32769775390625
1663861819687651300,6.0696513671875,1.0345458984375,-50.72784423828125,57.66448974609375
1663861819707671000,6.089671142578125,-0.37078857421875,-52.239990234375,58.87451171875
1663861819727660000,6.109659912109375,-0.079345703125,-52.84576416015625,59.0240478515625
1663861819747679500,6.129679443359375,1.49993896484375,-50.4150390625,58.58154296875
1663861819767638000,6.149637939453125,0.396728515625,-51.94091796875,58.1146240234375
1663861819787627000,6.169626953125,0.5523681640625,-51.78985595703125,57.96356201171875
1663861819807616000,6.189615966796875,1.16119384765625,-51.92718505859375,59.6405029296875
1663861819827605000,6.20960498046875,0.55389404296875,-51.78680419921875,58.42132568359375
1663861819847594000,6.229593994140625,0.0457763671875,-54.05731201171875,59.6282958984375
1663861819867583000,6.2495830078125,1.94854736328125,-50.8544921875,60.40802001953125
1663861819887572200,6.269572265625,0.21820068359375,-53.1494140625,59.02252197265625
1663861819907561200,6.289561279296875,-0.3631591796875,-51.93023681640625,59.637451171875
1663861819927550200,6.30955029296875,0.41656494140625,-51.17034912109375,59.33837890625
1663861819947539200,6.329539306640625,1.93023681640625,-51.62200927734375,59.64202880859375
1663861819967528200,6.349528076171875,1.16424560546875,-51.90582275390625,62.2314453125
1663861819987517200,6.36951708984375,0.10986328125,-51.18408203125,57.81402587890625
1663861820007506200,6.389506103515625,2.2216796875,-52.23541259765625,58.8775634765625
1663861820027495200,6.4094951171875,1.0284423828125,-51.025390625,58.42437744140625
1663861820047484200,6.429484130859375,0.8392333984375,-52.68707275390625,59.63592529296875
1663861820067442700,6.449442626953125,1.75018310546875,-52.83660888671875,59.78851318359375
1663861820087462100,6.469462158203125,-0.848388671875,-53.14788818359375,59.478759765625
1663861820107451100,6.489451171875,0.39825439453125,-51.9287109375,59.63897705078125
1663861820127409700,6.50940966796875,1.1688232421875,-51.6143798828125,60.7086181640625
1663861820147429400,6.529429443359375,0.53253173828125,-52.83050537109375,60.85357666015625
1663861820167418400,6.54941845703125,1.007080078125,-52.06298828125,61.61956787109375
1663861820187377000,6.569376953125,1.74407958984375,-53.13568115234375,60.2447509765625
1663861820207396400,6.589396240234375,1.9073486328125,-52.679443359375,60.39886474609375
1663861820227385300,6.60938525390625,-0.38604736328125,-52.9815673828125,61.1572265625
1663861820247343900,6.62934375,-0.41046142578125,-54.04510498046875,61.151123046875
1663861820267363300,6.64936328125,-1.019287109375,-54.0435791015625,61.456298828125
1663861820287352300,6.669352294921875,-1.2847900390625,-52.23541259765625,59.63592529296875
1663861820307341300,6.68934130859375,0.02899169921875,-54.81109619140625,60.38665771484375
1663861820327330300,6.709330322265625,0.8148193359375,-53.7506103515625,59.62982177734375
1663861820347319300,6.7293193359375,0.506591796875,-53.9031982421875,59.78240966796875
1663861820367308500,6.74930859375,0.2197265625,-53.1341552734375,60.85205078125
1663861820387297500,6.769297607421875,1.275634765625,-53.59649658203125,59.783935546875
1663861820407256000,6.789256103515625,-0.84075927734375,-52.8350830078125,60.546875
1663861820427275500,6.809275634765625,1.1138916015625,-54.04815673828125,60.3912353515625
1663861820447539200,6.829539306640625,0.51422119140625,-53.5980224609375,59.783935546875
1663861820467406000,6.849406005859375,0.555419921875,-51.77154541015625,60.24932861328125
1663861820487242500,6.869242431640625,-0.97808837890625,-52.22015380859375,61.4654541015625
1663861820507231500,6.8892314453125,1.32904052734375,-51.31378173828125,60.25238037109375
1663861820527220500,6.909220458984375,1.74407958984375,-53.13568115234375,60.2447509765625
1663861820547209500,6.92920947265625,0.83160400390625,-52.99072265625,59.6343994140625
1663861820567229200,6.949229248046875,-0.079345703125,-52.84576416015625,59.0240478515625
1663861820587187500,6.9691875,1.47247314453125,-51.62200927734375,59.64202880859375
1663861820607146000,6.98914599609375,1.40838623046875,-54.510498046875,59.62677001953125
1663861820627165700,7.009165771484375,0.994873046875,-52.54058837890625,59.027099609375
1663861820647154700,7.02915478515625,-0.8392333984375,-52.8289794921875,61.309814453125
1663861820667113200,7.04911328125,0.41351318359375,-51.18408203125,57.81402587890625
1663861820687132700,7.069132568359375,-1.14898681640625,-52.85797119140625,57.9559326171875
1663861820707121700,7.08912158203125,-0.537109375,-52.8472900390625,59.0240478515625
1663861820727110700,7.109110595703125,1.74407958984375,-53.1402587890625,59.7869873046875
1663861820747099600,7.129099609375,-0.3875732421875,-52.9937744140625,59.63287353515625
1663861820767088600,7.149088623046875,-1.26190185546875,-51.1810302734375,58.57391357421875
1663861820787077600,7.16907763671875,-1.287841796875,-52.25067138671875,57.806396484375
1663861820807066600,7.189066650390625,0.82244873046875,-53.4454345703125,59.9365234375
1663861820827055900,7.209055908203125,-0.67596435546875,-52.24151611328125,58.87451171875
1663861820847044900,7.229044921875,1.7425537109375,-53.1463623046875,59.02557373046875
1663861820867033900,7.249033935546875,0.537109375,-52.54364013671875,58.721923828125
1663861820887022800,7.26902294921875,0.994873046875,-52.54058837890625,59.027099609375
1663861820907011800,7.28901171875,1.27410888671875,-53.61175537109375,57.9559326171875
1663861820927000800,7.309000732421875,0.970458984375,-53.6041259765625,59.02252197265625
1663861820946989800,7.32898974609375,-0.4241943359375,-54.53338623046875,57.3394775390625
1663861820966978800,7.348978759765625,1.287841796875,-53.1341552734375,60.54840087890625
1663861820986937300,7.368937255859375,-0.52032470703125,-52.09197998046875,58.41827392578125
1663861821006956800,7.388956787109375,0.06866455078125,-52.99530029296875,59.3292236328125
1663861821026945800,7.40894580078125,0.24261474609375,-52.08282470703125,59.48638916015625
1663861821046934800,7.428934814453125,-0.07476806640625,-52.5543212890625,57.65380859375
1663861821066924000,7.448924072265625,0.9796142578125,-53.15093994140625,58.7188720703125
1663861821086913000,7.4689130859375,-0.4119873046875,-54.06494140625,58.8653564453125
1663861821106902000,7.488902099609375,0.20904541015625,-53.59954833984375,59.78240966796875
1663861821126891000,7.50889111328125,0.970458984375,-53.607177734375,58.71734619140625
1663861821146880000,7.5288798828125,0.79498291015625,-54.53033447265625,57.34100341796875
1663861821166869000,7.548868896484375,-0.88348388671875,-54.6722412109375,59.014892578125
1663861821186858000,7.56885791015625,-0.07171630859375,-52.5360107421875,59.78851318359375
1663861821206847000,7.588846923828125,0.83160400390625,-52.99835205078125,58.87298583984375
1663861821226836000,7.6088359375,-0.531005859375,-52.5482177734375,58.41522216796875
1663861821246825000,7.628824951171875,2.03704833984375,-53.60260009765625,59.02252197265625
1663861821266814000,7.64881396484375,0.35552978515625,-53.76739501953125,57.80181884765625
1663861821286803000,7.668802978515625,2.06146240234375,-52.54058837890625,58.72344970703125
1663861821306792200,7.688792236328125,-0.54473876953125,-53.15399169921875,58.71734619140625
1663861821327056000,7.709055908203125,0.25787353515625,-51.33514404296875,57.965087890625
1663861821346983700,7.728983642578125,2.0721435546875,-52.08282470703125,59.0301513671875
1663861821366759200,7.74875927734375,0.20599365234375,-53.61480712890625,57.95440673828125
1663861821386778600,7.768778564453125,0.37994384765625,-52.703857421875,57.806396484375
1663861821406737200,7.788737060546875,0.94146728515625,-54.9591064453125,60.53924560546875
1663861821426695700,7.80869580078125,0.20294189453125,-53.8970947265625,60.5438232421875
1663861821446715100,7.828715087890625,0.98114013671875,-53.14483642578125,59.4818115234375
1663861821466704100,7.8487041015625,0.8148193359375,-53.7506103515625,59.62982177734375
1663861821486693000,7.868693115234375,0.23193359375,-52.53753662109375,59.48333740234375
1663861821506682000,7.88868212890625,1.4251708984375,-53.7506103515625,59.63134765625
1663861821526671000,7.908671142578125,-0.08544921875,-53.1402587890625,60.24169921875
1663861821546660400,7.928660400390625,0.86212158203125,-51.6326904296875,58.57391357421875
1663861821566649300,7.9486494140625,0.341796875,-54.50592041015625,60.38818359375
1663861821586638300,7.968638427734375,-0.848388671875,-53.14788818359375,59.478759765625
1663861821606627300,7.98862744140625,1.31683349609375,-51.776123046875,59.4879150390625
1663861821626616300,8.0086162109375,-0.85906982421875,-53.60107421875,59.78240966796875
1663861821646605300,8.028605224609375,0.994873046875,-52.5360107421875,59.48486328125
1663861821666594300,8.04859423828125,0.8209228515625,-53.45306396484375,58.86993408203125
1663861821686552800,8.068552734375,-0.11138916015625,-54.21905517578125,58.4075927734375
1663861821706572300,8.088572265625,1.4312744140625,-53.448486328125,59.32769775390625
1663861821726561300,8.108561279296875,1.727294921875,-53.900146484375,59.783935546875
1663861821746550300,8.12855029296875,1.27105712890625,-53.887939453125,61.3067626953125
1663861821766539300,8.148539306640625,-0.04730224609375,-51.33514404296875,57.965087890625
1663861821786528500,8.168528564453124,0.4058837890625,-51.6265869140625,59.3353271484375
1663861821806517500,8.188517578125,-0.6683349609375,-51.9287109375,59.942626953125
1663861821826506500,8.208506591796874,0.05340576171875,-53.74603271484375,60.3912353515625
1663861821846495500,8.22849560546875,-0.3814697265625,-52.69317626953125,59.3292236328125
1663861821866484500,8.248484375,1.1199951171875,-53.7445068359375,60.39276123046875
1663861821886473500,8.268473388671875,-0.4058837890625,-53.7567138671875,59.32464599609375
1663861821906462500,8.28846240234375,-0.4058837890625,-53.7567138671875,59.32464599609375
1663861821926421000,8.3084208984375,0.0701904296875,-52.9937744140625,59.63287353515625
1663861821946440400,8.3284404296875,2.07977294921875,-51.77459716796875,59.48944091796875
1663861821966429400,8.348429443359375,-0.5035400390625,-51.3275146484375,59.03167724609375
1663861821986388000,8.368387939453125,0.531005859375,-52.8350830078125,60.2447509765625
1663861822006407700,8.38840771484375,0.23193359375,-52.53753662109375,59.48333740234375
1663861822026396700,8.408396728515624,-0.10986328125,-54.20379638671875,60.23712158203125
1663861822046355000,8.42835498046875,0.38299560546875,-52.6824951171875,60.3973388671875
1663861822066374700,8.448374755859374,-0.4119873046875,-54.0557861328125,59.93194580078125
1663861822086363600,8.46836376953125,1.11236572265625,-54.05731201171875,59.32464599609375
1663861822106352600,8.4883525390625,0.0762939453125,-52.68707275390625,59.9395751953125
1663861822126341600,8.508341552734375,1.71966552734375,-54.20379638671875,59.78240966796875
1663861822146330600,8.52833056640625,0.39215087890625,-52.23541259765625,59.332275390625
1663861822166319600,8.548319580078125,0.37384033203125,-52.99835205078125,58.8714599609375
1663861822186308600,8.56830859375,0.94757080078125,-54.65240478515625,60.845947265625
1663861822206633500,8.588633544921874,0.23345947265625,-52.52685546875,60.8551025390625
1663861822226561300,8.608561279296875,0.81329345703125,-53.759765625,58.563232421875
1663861822246336800,8.628336669921875,0.3662109375,-53.4393310546875,60.69793701171875
1663861822266264800,8.648264892578124,1.7578125,-52.52532958984375,60.55145263671875
1663861822286253800,8.66825390625,-0.579833984375,-54.67681884765625,58.404541015625
1663861822306242800,8.688242919921874,-0.68511962890625,-52.6885986328125,59.9395751953125
1663861822326231800,8.708231689453125,-0.3692626953125,-52.227783203125,60.39886474609375
1663861822346220800,8.728220703125,0.52337646484375,-53.14483642578125,59.48028564453125
1663861822366209800,8.748209716796875,-0.09613037109375,-53.59344482421875,60.54534912109375
1663861822386198800,8.76819873046875,-0.41046142578125,-54.05120849609375,60.38970947265625
1663861822406187800,8.788187744140625,-0.396728515625,-53.44390869140625,60.39276123046875
1663861822426176800,8.8081767578125,0.22430419921875,-52.84881591796875,58.72039794921875
1663861822446165800,8.828165771484375,0.54931640625,-52.0751953125,60.247802734375
1663861822466154800,8.84815478515625,0.5126953125,-53.6102294921875,58.41217041015625
1663861822486144000,8.86814404296875,-0.53558349609375,-52.8350830078125,60.54840087890625
1663861822506133000,8.888133056640624,0.8148193359375,-53.75823974609375,58.868408203125
1663861822526122000,8.9081220703125,1.28631591796875,-53.13720703125,60.24322509765625
1663861822546111000,8.928111083984374,0.2197265625,-53.1341552734375,60.85205078125
1663861822566100000,8.948099853515625,0.82244873046875,-53.4454345703125,59.9365234375
1663861822586058500,8.96805859375,0.8331298828125,-52.98919677734375,59.9395751953125
1663861822606078000,8.988077880859375,0.0762939453125,-52.68707275390625,59.9395751953125
1663861822626067000,9.00806689453125,1.89056396484375,-53.4393310546875,60.39581298828125
1663861822646056000,9.028055908203125,-0.5401611328125,-53.12347412109375,62.3748779296875
1663861822666045000,9.048044921875,0.3753662109375,-52.99224853515625,59.6343994140625
1663861822686034000,9.068033935546875,-0.08544921875,-53.13720703125,60.546875
1663861822706023000,9.08802294921875,1.43280029296875,-53.4332275390625,61.1572265625
1663861822726012200,9.10801220703125,1.0223388671875,-51.3275146484375,58.72802734375
1663861822746001200,9.128001220703124,-0.79345703125,-50.7171630859375,59.490966796875
1663861822765990100,9.147990234375,0.03662109375,-54.50439453125,60.693359375
1663861822785979100,9.167979248046874,-0.84686279296875,-53.13262939453125,61.30828857421875
1663861822805968100,9.187968017578125,-0.68511962890625,-52.6885986328125,59.9395751953125
1663861822825957000,9.20795703125,0.85601806640625,-51.93023681640625,59.3353271484375
1663861822845946000,9.227946044921875,0.982666015625,-53.13568115234375,60.54840087890625
1663861822865935000,9.24793505859375,0.52490234375,-53.13873291015625,60.24322509765625
1663861822885924000,9.267924072265625,1.275634765625,-53.59954833984375,59.478759765625
1663861822905913000,9.2879130859375,-0.09613037109375,-53.59954833984375,59.78240966796875
1663861822925902000,9.307902099609375,-1.5838623046875,-51.93328857421875,59.637451171875
1663861822945891000,9.32789111328125,0.82244873046875,-53.44696044921875,59.63134765625
1663861822965880300,9.34788037109375,-0.1007080078125,-53.887939453125,61.61041259765625
1663861822985869300,9.367869384765624,0.06256103515625,-53.4271240234375,62.2222900390625
1663861823005858300,9.3878583984375,-0.39825439453125,-53.44696044921875,59.93499755859375
1663861823025847300,9.407847412109374,-0.10223388671875,-53.900146484375,60.2386474609375
1663861823045836300,9.427836181640625,-0.08697509765625,-53.1463623046875,59.48028564453125
1663861823065794800,9.447794921875,1.40838623046875,-54.5013427734375,60.69488525390625
1663861823085814300,9.467814208984375,1.13677978515625,-52.99072265625,59.6343994140625
1663861823106139000,9.488138916015625,0.03509521484375,-54.51507568359375,59.32159423828125
1663861823125914400,9.507914306640625,-0.10223388671875,-53.8970947265625,60.5438232421875
1663861823145781200,9.52778125,0.20294189453125,-53.900146484375,60.2386474609375
1663861823165739800,9.54773974609375,-0.0946044921875,-53.59039306640625,60.8489990234375
1663861823185759200,9.56775927734375,0.99639892578125,-52.520751953125,61.3128662109375
1663861823205748500,9.58774853515625,-0.86517333984375,-53.89862060546875,60.54229736328125
1663861823225706800,9.607706787109375,-0.0946044921875,-53.59039306640625,60.8489990234375
1663861823245726500,9.6277265625,0.07171630859375,-52.98004150390625,61.1572265625
1663861823265685000,9.64768505859375,0.970458984375,-53.5980224609375,59.783935546875
1663861823285704400,9.667704345703125,0.3814697265625,-52.6885986328125,59.63592529296875
1663861823305693400,9.687693359375,1.70135498046875,-54.96978759765625,59.01641845703125
1663861823325652000,9.70765185546875,1.9073486328125,-52.679443359375,60.39886474609375
1663861823345671400,9.72767138671875,-0.6927490234375,-52.99224853515625,59.93804931640625
1663861823365660400,9.747660400390625,-0.09765625,-53.60870361328125,58.7158203125
1663861823385619000,9.767618896484375,0.85601806640625,-51.92718505859375,59.63897705078125
1663861823405638400,9.787638427734375,0.07171630859375,-52.98004150390625,61.1572265625
1663861823425627600,9.807627685546874,0.0885009765625,-52.2247314453125,60.70404052734375
1663861823445616600,9.82761669921875,-0.09613037109375,-53.59344482421875,60.54534912109375
1663861823465605600,9.847605712890624,-0.08697509765625,-53.1524658203125,58.71734619140625
1663861823485594600,9.8675947265625,0.82244873046875,-53.4454345703125,59.9365234375
1663861823505583600,9.88758349609375,-0.54473876953125,-53.15093994140625,59.02252197265625
1663861823525572600,9.907572509765625,-1.03302001953125,-54.52117919921875,58.8623046875
1663861823545561600,9.9275615234375,-0.50201416015625,-51.3153076171875,60.5560302734375
1663861823565550600,9.947550537109375,1.12762451171875,-53.44085693359375,60.394287109375
1663861823585509000,9.967509033203125,0.3753662109375,-52.98614501953125,60.39581298828125
1663861823605528600,9.987528564453125,0.1953125,-54.20379638671875,60.23712158203125
1663861823625517600,10.007517578125,0.23345947265625,-52.53143310546875,60.2447509765625
1663861823645506600,10.027506591796875,-1.02081298828125,-54.05731201171875,59.93194580078125
1663861823665495800,10.047495849609374,1.312255859375,-52.06451416015625,61.31591796875
1663861823685454000,10.0674541015625,-0.07781982421875,-52.83050537109375,60.85357666015625
1663861823705473800,10.087473876953124,0.37384033203125,-52.99835205078125,58.8714599609375
1663861823725462800,10.107462890625,0.2197265625,-53.1402587890625,60.24322509765625
1663861823745421300,10.12742138671875,-0.6927490234375,-52.99530029296875,59.63287353515625
1663861823765440800,10.147440673828125,0.341796875,-54.50592041015625,60.38818359375
1663861823785429800,10.1674296875,-0.85906982421875,-53.5980224609375,60.2386474609375
1663861823805418800,10.187418701171875,-0.701904296875,-53.44390869140625,60.39276123046875
1663861823825407700,10.20740771484375,1.1016845703125,-54.5135498046875,59.32159423828125
1663861823845396700,10.227396728515625,0.04730224609375,-54.04815673828125,60.69488525390625
1663861823865385700,10.2473857421875,0.3509521484375,-54.0557861328125,59.6282958984375
1663861823885374700,10.267374755859375,-1.0223388671875,-54.058837890625,59.62677001953125
1663861823905364000,10.287364013671874,-0.86517333984375,-53.90625,59.7808837890625
1663861823925353000,10.30735302734375,0.506591796875,-53.9093017578125,59.01947021484375
1663861823945342000,10.327342041015624,1.275634765625,-53.59954833984375,59.478759765625
1663861823965331000,10.3473310546875,-0.70953369140625,-53.75213623046875,59.9334716796875
1663861823985564200,10.367564208984374,0.8087158203125,-54.052734375,59.9334716796875
1663861824005461500,10.38746142578125,0.3997802734375,-51.922607421875,60.400390625
1663861824025328400,10.407328369140625,1.4434814453125,-52.98309326171875,60.3973388671875
1663861824045317400,10.4273173828125,0.958251953125,-54.2022705078125,60.2386474609375
1663861824065276000,10.44727587890625,0.98114013671875,-53.14178466796875,59.78546142578125
1663861824085265000,10.467264892578125,-0.86669921875,-53.91387939453125,58.7127685546875
1663861824105254000,10.48725390625,0.06866455078125,-52.99530029296875,59.3292236328125
1663861824125243000,10.507242919921875,-0.079345703125,-52.83966064453125,59.7869873046875
1663861824145232100,10.527232177734374,1.73492431640625,-53.59039306640625,60.546875
1663861824165221000,10.54722119140625,1.1383056640625,-52.984619140625,60.3973388671875
1663861824185210000,10.567210205078124,0.33416748046875,-54.8095703125,60.38665771484375
1663861824205168600,10.587168701171874,1.43585205078125,-53.41796875,62.9852294921875
1663861824225188000,10.60718798828125,1.88140869140625,-53.75213623046875,59.32769775390625
1663861824245177000,10.627177001953125,-0.537109375,-52.8472900390625,59.0240478515625
1663861824265166000,10.647166015625,1.15509033203125,-52.2308349609375,59.63897705078125
1663861824285155000,10.667155029296875,0.506591796875,-53.9031982421875,59.78240966796875
1663861824305144000,10.68714404296875,0.1953125,-54.20379638671875,60.23712158203125
1663861824325133000,10.707133056640625,1.42059326171875,-54.03594970703125,61.76300048828125
1663861824345122000,10.7271220703125,0.3570556640625,-53.75213623046875,59.62982177734375
1663861824365111000,10.747111083984375,0.3753662109375,-52.99224853515625,59.6343994140625
1663861824385100300,10.767100341796874,0.51422119140625,-53.59039306640625,60.85052490234375
1663861824405089300,10.78708935546875,-0.4119873046875,-54.0557861328125,59.93194580078125
1663861824425078300,10.807078369140624,-0.3875732421875,-52.99072265625,59.93804931640625
1663861824445067300,10.8270673828125,1.129150390625,-53.4332275390625,61.15570068359375
1663861824465025800,10.84702587890625,1.15509033203125,-52.2308349609375,59.63897705078125
1663861824485045200,10.867045166015625,1.72576904296875,-53.9093017578125,58.7158203125
1663861824505034200,10.8870341796875,1.287841796875,-53.1341552734375,60.54840087890625
1663861824525023200,10.907023193359375,1.4312744140625,-53.448486328125,59.32769775390625
1663861824545012200,10.92701220703125,-0.3875732421875,-52.9937744140625,59.63287353515625
1663861824565001200,10.947001220703125,0.3753662109375,-52.99224853515625,59.6343994140625
1663861824584990200,10.966990234375,0.57373046875,-51.00555419921875,60.86273193359375
1663861824604979500,10.9869794921875,1.2939453125,-52.83355712890625,60.2447509765625
1663861824624968400,11.006968505859374,0.19378662109375,-54.2144775390625,59.0179443359375
1663861824644957400,11.02695751953125,1.1444091796875,-52.68402099609375,59.94110107421875
1663861824664946400,11.046946533203124,-0.09613037109375,-53.59954833984375,59.78240966796875
1663861824684935400,11.066935302734375,0.2685546875,-51.00860595703125,60.55755615234375
1663861824704924400,11.08692431640625,0.5218505859375,-53.15399169921875,58.4136962890625
1663861824724913400,11.106913330078125,0.0457763671875,-54.05426025390625,59.9334716796875
1663861824744902400,11.12690234375,1.8829345703125,-53.73992919921875,60.69793701171875
1663861824764891400,11.146891357421875,1.77459716796875,-51.77459716796875,59.48944091796875
1663861824784880400,11.16688037109375,0.49896240234375,-54.20989990234375,59.4757080078125
1663861824804869400,11.186869384765625,0.20751953125,-53.60565185546875,59.02099609375
1663861824824858400,11.2068583984375,0.52642822265625,-53.1280517578125,61.614990234375
1663861824844847600,11.22684765625,2.05535888671875,-52.8350830078125,59.78851318359375
1663861824865111000,11.247111083984375,0.079345703125,-52.67333984375,61.46392822265625
1663861824885039000,11.2670390625,-0.07781982421875,-52.82745361328125,61.309814453125
1663861824904814600,11.286814697265624,0.81024169921875,-54.04052734375,61.45782470703125
1663861824924803600,11.306803466796875,-0.38604736328125,-52.9815673828125,61.1572265625
1663861824944792600,11.32679248046875,0.50811767578125,-53.88946533203125,61.30523681640625
1663861824964781600,11.346781494140625,0.39215087890625,-52.22625732421875,60.39886474609375
1663861824984770600,11.3667705078125,0.48980712890625,-54.66461181640625,59.47265625
1663861825004759600,11.386759521484375,1.8890380859375,-53.4423828125,59.93804931640625
1663861825024718000,11.406718017578125,1.23443603515625,-55.42755126953125,59.01336669921875
1663861825044737500,11.426737548828125,-0.40435791015625,-53.7506103515625,59.9334716796875
1663861825064726500,11.4467265625,0.555419921875,-51.77764892578125,59.4879150390625
1663861825084685000,11.46668505859375,0.3570556640625,-53.74908447265625,59.93499755859375
1663861825104704800,11.486704833984374,0.23345947265625,-52.52838134765625,60.5499267578125
1663861825124693800,11.50669384765625,-0.39825439453125,-53.45306396484375,59.326171875
1663861825144682800,11.526682861328124,1.1444091796875,-52.68402099609375,59.94110107421875
1663861825164671700,11.546671630859375,1.27716064453125,-53.59344482421875,60.24169921875
1663861825184660700,11.56666064453125,-1.1627197265625,-53.5980224609375,60.2386474609375
1663861825204649700,11.586649658203125,0.37384033203125,-52.99530029296875,59.3292236328125
1663861825224638700,11.606638671875,0.8392333984375,-52.685546875,59.94110107421875
1663861825244627700,11.626627685546875,0.83160400390625,-52.99072265625,59.6343994140625
1663861825264616700,11.64661669921875,-0.848388671875,-53.1463623046875,59.783935546875
1663861825284605700,11.666605712890625,-0.84686279296875,-53.13720703125,60.85052490234375
1663861825304594700,11.6865947265625,-0.55999755859375,-53.90167236328125,60.23712158203125
1663861825324584000,11.706583984375,1.275634765625,-53.59954833984375,59.478759765625
1663861825344573000,11.726572998046874,1.1383056640625,-52.984619140625,60.3973388671875
1663861825364562000,11.74656201171875,0.8331298828125,-52.98309326171875,60.70098876953125
1663861825384551000,11.766551025390624,-0.08697509765625,-53.1524658203125,58.71734619140625
1663861825404540000,11.786539794921875,0.37384033203125,-53.00445556640625,58.11004638671875
1663861825424498400,11.80649853515625,0.958251953125,-54.2022705078125,60.2386474609375
1663861825444518000,11.826517822265625,0.2105712890625,-53.5858154296875,61.3067626953125
1663861825464507000,11.8465068359375,1.1199951171875,-53.753662109375,59.326171875
1663861825484496000,11.866495849609375,1.26953125,-53.8970947265625,60.24017333984375
1663861825504484900,11.88648486328125,0.38299560546875,-52.679443359375,60.7025146484375
1663861825524473900,11.906473876953125,-0.8575439453125,-53.5919189453125,60.8489990234375
1663861825544462800,11.926462890625,-0.08544921875,-53.143310546875,59.78546142578125
1663861825564452000,11.9464521484375,-1.00860595703125,-53.45306396484375,59.32464599609375
1663861825584441000,11.966441162109374,-0.40435791015625,-53.74755859375,60.3912353515625
1663861825604430000,11.98643017578125,-1.13067626953125,-52.08892822265625,59.027099609375
1663861825624419000,12.006419189453124,-1.3275146484375,-54.06646728515625,58.86383056640625
1663861825644408000,12.026407958984375,-0.537109375,-52.8472900390625,59.0240478515625
1663861825664397000,12.04639697265625,0.98876953125,-52.83355712890625,60.2447509765625
1663861825684386000,12.066385986328125,0.34942626953125,-54.06341552734375,58.86688232421875
1663861825704375000,12.086375,0.36773681640625,-53.4271240234375,62.2222900390625
1663861825724364000,12.106364013671875,-0.1007080078125,-53.887939453125,61.61041259765625
1663861825744689000,12.12668896484375,0.35858154296875,-53.74603271484375,60.39276123046875
1663861825764616700,12.14661669921875,1.385498046875,-55.56182861328125,61.14654541015625
1663861825784392200,12.16639208984375,0.18463134765625,-54.6600341796875,60.235595703125
1663861825804320300,12.1863203125,1.275634765625,-53.6041259765625,59.02252197265625
1663861825824309200,12.206309326171874,1.73492431640625,-53.58734130859375,60.85205078125
1663861825844298200,12.22629833984375,0.5126953125,-53.60107421875,59.478759765625
1663861825864287200,12.246287353515624,-0.5340576171875,-52.825927734375,61.614990234375
1663861825884276200,12.266276123046875,0.8575439453125,-51.91802978515625,60.70709228515625
1663861825904265200,12.28626513671875,-0.08087158203125,-52.84881591796875,58.7188720703125
1663861825924223700,12.3062236328125,-0.99639892578125,-52.98309326171875,61.15570068359375
1663861825944243200,12.3262431640625,0.35858154296875,-53.73992919921875,61.1541748046875
1663861825964232200,12.346232177734375,0.52490234375,-53.13873291015625,60.24322509765625
1663861825984190700,12.366190673828125,0.3814697265625,-52.685546875,59.9395751953125
1663861826004210200,12.386210205078125,0.970458984375,-53.5980224609375,59.783935546875
1663861826024199400,12.406199462890624,1.26953125,-53.8970947265625,60.24017333984375
1663861826044157700,12.42615771484375,0.38299560546875,-52.67486572265625,61.15875244140625
1663861826064177400,12.446177490234374,0.0946044921875,-51.9195556640625,60.70556640625
1663861826084166400,12.46616650390625,1.12152099609375,-53.7384033203125,61.15570068359375
1663861826104125000,12.486125,0.84991455078125,-52.2247314453125,60.400390625
1663861826124144400,12.506144287109375,0.5645751953125,-51.32598876953125,59.033203125
1663861826144133400,12.52613330078125,-0.68511962890625,-52.69012451171875,59.6343994140625
1663861826164122400,12.546122314453125,0.3509521484375,-54.0496826171875,60.3912353515625
1663861826184111400,12.566111328125,1.73492431640625,-53.59039306640625,60.546875
1663861826204100400,12.586100341796875,0.5157470703125,-53.582763671875,61.6119384765625
1663861826224089300,12.60608935546875,1.44195556640625,-52.99072265625,59.6343994140625
1663861826244078300,12.626078369140625,0.81634521484375,-53.7384033203125,61.1541748046875
1663861826264067600,12.646067626953124,0.52947998046875,-52.84576416015625,59.02557373046875
1663861826284056600,12.666056640625,1.4434814453125,-52.9754638671875,61.46392822265625
1663861826304045600,12.686045654296874,0.21820068359375,-53.1463623046875,59.48028564453125
1663861826324034600,12.70603466796875,0.05950927734375,-53.4423828125,60.39276123046875
1663861826344023600,12.7260234375,0.37384033203125,-53.00140380859375,58.5662841796875
1663861826364012500,12.746012451171875,-0.69122314453125,-52.9876708984375,60.394287109375
1663861826384001500,12.76600146484375,0.05035400390625,-53.765869140625,58.10546875
1663861826403990500,12.785990478515625,0.37841796875,-52.7069091796875,57.3486328125
1663861826423979500,12.8059794921875,0.5157470703125,-53.582763671875,61.6119384765625
1663861826443968500,12.825968505859375,0.95672607421875,-54.205322265625,59.7808837890625
1663861826463957500,12.84595751953125,0.55694580078125,-51.75933837890625,61.62109375
1663861826483946500,12.865946533203125,0.36468505859375,-53.4454345703125,59.9365234375
1663861826503935700,12.885935791015624,0.225830078125,-52.83966064453125,59.7869873046875
1663861826523924700,12.9059248046875,-0.09765625,-53.61175537109375,58.41064453125
1663861826543913700,12.925913818359374,0.50811767578125,-53.89556884765625,60.5438232421875
1663861826563902700,12.94590283203125,0.3753662109375,-52.98614501953125,60.39581298828125
1663861826583891700,12.9658916015625,0.3570556640625,-53.75823974609375,58.868408203125
1663861826603880700,12.985880615234375,1.42669677734375,-53.741455078125,60.69793701171875
1663861826623869700,13.00586962890625,0.24261474609375,-52.07977294921875,59.7900390625
1663861826644194300,13.0261943359375,1.708984375,-54.6600341796875,59.77935791015625
1663861826663969800,13.0459697265625,1.89971923828125,-52.99224853515625,59.33074951171875
1663861826683836700,13.065836669921875,1.4251708984375,-53.75213623046875,59.326171875
1663861826703825700,13.08582568359375,0.537109375,-52.53753662109375,59.48333740234375
1663861826723845400,13.105845458984374,-0.41046142578125,-54.05120849609375,60.38970947265625
1663861826743834400,13.12583447265625,-0.52642822265625,-52.5146484375,62.3779296875
1663861826763793000,13.14579296875,1.27105712890625,-53.8818359375,62.06817626953125
1663861826783782000,13.165781982421874,1.27716064453125,-53.5888671875,60.85052490234375
1663861826803771000,13.18577099609375,0.36468505859375,-53.4515380859375,59.326171875
1663861826823760000,13.205759765625,-0.72784423828125,-54.51507568359375,59.625244140625
1663861826843718400,13.225718505859374,2.17132568359375,-54.5013427734375,60.38970947265625
1663861826863737900,13.24573779296875,-0.396728515625,-53.43780517578125,61.1541748046875
1663861826883726800,13.265726806640625,-0.70343017578125,-53.45306396484375,59.326171875
1663861826903715800,13.2857158203125,0.34942626953125,-54.06494140625,58.56170654296875
1663861826923704800,13.305704833984375,-0.81634521484375,-51.77154541015625,60.552978515625
1663861826943693800,13.32569384765625,-0.43487548828125,-55.11474609375,60.3851318359375
1663861826963682800,13.345682861328125,0.51422119140625,-53.5919189453125,60.54534912109375
1663861826983672000,13.365672119140624,-0.39825439453125,-53.45001220703125,59.63134765625
1663861827003661000,13.3856611328125,1.25274658203125,-54.6539306640625,60.540771484375
1663861827023650000,13.405650146484374,0.054931640625,-53.73687744140625,61.45782470703125
1663861827043639000,13.42563916015625,-0.84991455078125,-53.15399169921875,58.71734619140625
1663861827063628000,13.4456279296875,0.82244873046875,-53.44085693359375,60.394287109375
1663861827083617000,13.465616943359375,1.74407958984375,-53.13568115234375,60.2447509765625
1663861827103606000,13.48560595703125,-0.09613037109375,-53.59649658203125,60.24017333984375
1663861827123595000,13.505594970703125,-0.701904296875,-53.4423828125,60.6964111328125
1663861827143584000,13.525583984375,0.5126953125,-53.60107421875,59.478759765625
1663861827163573000,13.545572998046875,0.84991455078125,-52.22930908203125,59.942626953125
1663861827183562000,13.56556201171875,0.3509521484375,-54.0557861328125,59.6282958984375
1663861827203520500,13.5855205078125,0.506591796875,-53.9093017578125,59.01947021484375
1663861827223540200,13.605540283203124,-0.11138916015625,-54.2144775390625,59.0179443359375
1663861827243529200,13.625529296875,-0.10986328125,-54.2022705078125,60.54229736328125
1663861827263487700,13.64548779296875,0.20904541015625,-53.59039306640625,60.85052490234375
1663861827283507200,13.665507080078125,-0.52947998046875,-52.5299072265625,60.5499267578125
1663861827303496200,13.68549609375,0.53863525390625,-52.53143310546875,60.24627685546875
1663861827323485200,13.705485107421875,0.22735595703125,-52.825927734375,61.31134033203125
1663861827343474200,13.72547412109375,-1.13983154296875,-52.54058837890625,59.4818115234375
1663861827363463200,13.745463134765625,0.341796875,-54.50592041015625,60.38818359375
1663861827383452200,13.7654521484375,0.970458984375,-53.60107421875,59.478759765625
1663861827403441200,13.785441162109375,0.36468505859375,-53.4423828125,60.394287109375
1663861827423430100,13.80543017578125,0.36468505859375,-53.4515380859375,59.326171875
1663861827443449900,13.825449951171874,1.29547119140625,-52.82440185546875,61.31134033203125
1663861827463408400,13.845408447265624,-0.87127685546875,-54.20074462890625,60.845947265625
1663861827483397400,13.8653974609375,1.40228271484375,-54.80499267578125,60.693359375
1663861827503386400,13.885386474609374,0.35858154296875,-53.74603271484375,60.39276123046875
1663861827523619600,13.90561962890625,0.3326416015625,-54.8187255859375,59.320068359375
1663861827543517000,13.925516845703125,0.3753662109375,-52.98614501953125,60.39581298828125
1663861827563353300,13.945353271484375,0.201416015625,-53.9093017578125,59.01947021484375
1663861827583372800,13.965372802734375,0.96435546875,-53.89862060546875,60.24017333984375
1663861827603331300,13.985331298828125,-1.27716064453125,-51.922607421875,60.70404052734375
1663861827623289900,14.005289794921875,-0.11138916015625,-54.217529296875,58.7127685546875
1663861827643309300,14.025309326171875,1.46636962890625,-51.92413330078125,59.9456787109375
1663861827663298300,14.04529833984375,-0.7171630859375,-54.058837890625,59.62677001953125
1663861827683306800,14.065306640625,1.75933837890625,-52.51922607421875,61.31439208984375
1663861827703295700,14.085295654296875,0.81634521484375,-53.7384033203125,61.1541748046875
1663861827723284700,14.10528466796875,0.48980712890625,-54.656982421875,60.540771484375
1663861827743273700,14.125273681640625,0.02899169921875,-54.81414794921875,59.92889404296875
1663861827763293200,14.145293212890625,0.20904541015625,-53.59954833984375,59.78240966796875
1663861827783251700,14.165251708984375,1.10321044921875,-54.50439453125,60.38970947265625
1663861827803240700,14.18524072265625,1.8585205078125,-54.8126220703125,59.62677001953125
1663861827823229700,14.205229736328125,0.01220703125,-55.57098388671875,60.382080078125
1663861827843218700,14.22521875,0.1953125,-54.19769287109375,60.84747314453125
1663861827863177200,14.24517724609375,1.32904052734375,-51.31072998046875,60.55755615234375
1663861827883196700,14.26519677734375,0.80718994140625,-54.05731201171875,59.32464599609375
1663861827903185700,14.285185546875,0.22735595703125,-52.83355712890625,60.54840087890625
1663861827923175000,14.3051748046875,0.1678466796875,-55.4168701171875,60.53619384765625
1663861827943164000,14.325163818359375,0.99639892578125,-52.52685546875,60.55145263671875
1663861827963153000,14.34515283203125,0.250244140625,-51.76849365234375,60.55450439453125
1663861827983142000,14.365141845703125,0.38299560546875,-52.679443359375,60.7025146484375
1663861828003131000,14.385130859375,2.032470703125,-53.89251708984375,60.54534912109375
1663861828023089400,14.40508935546875,1.12762451171875,-53.44390869140625,59.9365234375
1663861828043108900,14.42510888671875,-0.12054443359375,-54.6600341796875,60.23406982421875
1663861828063097900,14.445097900390625,1.1016845703125,-54.5135498046875,59.32159423828125
1663861828083086800,14.4650869140625,-0.88348388671875,-54.6661376953125,59.77630615234375
1663861828103075800,14.485075927734375,0.8392333984375,-52.685546875,59.94110107421875
1663861828123064800,14.50506494140625,-0.732421875,-54.80499267578125,61.1480712890625
1663861828143053800,14.5250537109375,0.06866455078125,-52.9998779296875,58.8714599609375
1663861828163043000,14.54504296875,1.27716064453125,-53.59039306640625,60.546875
1663861828183032000,14.565031982421875,0.970458984375,-53.60107421875,59.478759765625
1663861828203021000,14.58502099609375,1.43280029296875,-53.4393310546875,60.394287109375
1663861828223010000,14.605010009765625,0.35400390625,-54.0313720703125,62.5244140625
1663861828242999000,14.6249990234375,1.28936767578125,-53.1219482421875,62.07275390625
1663861828262988000,14.644988037109375,0.79803466796875,-54.5135498046875,59.32159423828125
1663861828282977000,14.66497705078125,-0.07781982421875,-52.82745361328125,61.309814453125
1663861828302966000,14.684966064453125,-0.42724609375,-54.80499267578125,61.1480712890625
1663861828322955000,14.704955078125,0.48980712890625,-54.656982421875,60.540771484375
1663861828342944000,14.724944091796875,0.81634521484375,-53.7384033203125,61.1541748046875
1663861828362933000,14.74493310546875,0.3509521484375,-54.0496826171875,60.3912353515625
1663861828382922200,14.764922119140625,0.531005859375,-52.8411865234375,59.4818115234375
1663861828403216400,14.78521630859375,1.8829345703125,-53.74603271484375,59.9365234375
1663861828423113700,14.80511376953125,1.08795166015625,-55.12542724609375,58.8623046875
1663861828442889200,14.82488916015625,1.129150390625,-53.43170166015625,61.46087646484375
1663861828462878200,14.844878173828125,0.8392333984375,-52.69012451171875,59.33074951171875
1663861828482867200,14.8648671875,-0.4119873046875,-54.05731201171875,59.6282958984375
1663861828502856200,14.884856201171875,0.51422119140625,-53.5919189453125,60.54534912109375
1663861828522845200,14.90484521484375,0.201416015625,-53.90625,59.47723388671875
1663861828542834200,14.924834228515625,1.2542724609375,-54.6417236328125,62.06512451171875
1663861828562823200,14.9448232421875,1.1260986328125,-53.44696044921875,59.63287353515625
1663861828582812200,14.964812255859375,1.26953125,-53.8970947265625,60.24017333984375
1663861828602801200,14.98480126953125,0.18463134765625,-54.656982421875,60.53924560546875
1663861828622759700,15.004759765625,0.335693359375,-54.803466796875,61.14959716796875
1663861828642779400,15.024779296875,0.8087158203125,-54.0496826171875,60.3912353515625
1663861828662768400,15.044768310546875,0.3997802734375,-51.9256591796875,59.94415283203125
1663861828682727000,15.064726806640625,0.84991455078125,-52.2308349609375,59.637451171875
1663861828702746400,15.084746337890625,0.54779052734375,-52.081298828125,59.48638916015625
1663861828722735400,15.1047353515625,-0.3875732421875,-52.9937744140625,59.63287353515625
1663861828742694000,15.12469384765625,2.2064208984375,-52.98004150390625,60.7025146484375
1663861828762713300,15.14471337890625,0.06103515625,-53.4332275390625,61.4593505859375
1663861828782702300,15.164702392578125,0.19378662109375,-54.20989990234375,59.4757080078125
1663861828802691300,15.18469140625,-0.079345703125,-52.83966064453125,59.7869873046875
1663861828822680300,15.204680419921875,0.8148193359375,-53.74908447265625,59.93499755859375
1663861828842669300,15.22466943359375,0.531005859375,-52.83203125,60.54840087890625
1663861828862658600,15.244658447265625,0.482177734375,-54.96673583984375,59.77630615234375
1663861828882647600,15.2646474609375,-0.6927490234375,-52.996826171875,59.32769775390625
1663861828902606000,15.284606201171876,1.26953125,-53.89251708984375,60.8489990234375
1663861828922625500,15.30462548828125,-0.421142578125,-54.50439453125,60.69183349609375
1663861828942614500,15.324614501953125,0.81634521484375,-53.7445068359375,60.39276123046875
1663861828962603500,15.344603515625,0.02288818359375,-55.1116943359375,60.6903076171875
1663861828982592500,15.364592529296875,0.09002685546875,-52.21099853515625,62.2283935546875
1663861829002581500,15.38458154296875,1.14593505859375,-52.67333984375,61.1602783203125
1663861829022570500,15.404570556640625,0.21820068359375,-53.1463623046875,59.48028564453125
1663861829042559500,15.4245595703125,1.13677978515625,-52.99072265625,59.6343994140625
1663861829062548500,15.444548583984375,-0.10223388671875,-53.8970947265625,60.5438232421875
1663861829082537500,15.464537353515626,-0.10223388671875,-53.900146484375,60.2386474609375
1663861829102526700,15.484526611328125,0.96588134765625,-53.89251708984375,60.8489990234375
1663861829122515700,15.504515625,0.34027099609375,-54.50897216796875,59.930419921875
1663861829142504700,15.524504638671875,-0.543212890625,-53.13873291015625,60.546875
1663861829162493700,15.54449365234375,0.1953125,-54.20074462890625,60.54229736328125
1663861829182482700,15.564482666015625,-0.37994384765625,-52.68402099609375,60.39581298828125
1663861829202471700,15.5844716796875,-0.85906982421875,-53.5980224609375,60.2386474609375
1663861829222430200,15.60443017578125,-1.01470947265625,-53.75213623046875,59.9334716796875
1663861829242449700,15.62444970703125,0.555419921875,-51.77764892578125,59.4879150390625
1663861829262438700,15.644438720703125,0.3753662109375,-52.98614501953125,60.39581298828125
1663861829282427600,15.664427734375,0.22735595703125,-52.83050537109375,60.85357666015625
1663861829302691300,15.68469140625,0.08697509765625,-52.23236083984375,59.637451171875
1663861829322466800,15.704466796875,0.21820068359375,-53.143310546875,59.78546142578125
1663861829342395000,15.724394775390625,-0.42877197265625,-54.81719970703125,59.62371826171875
1663861829362384000,15.7443837890625,1.4495849609375,-52.67791748046875,60.70404052734375
1663861829382342400,15.76434228515625,-0.10223388671875,-53.8970947265625,60.5438232421875
1663861829402361900,15.78436181640625,0.0457763671875,-54.05426025390625,59.9334716796875
1663861829422350800,15.804350830078125,0.8148193359375,-53.753662109375,59.326171875
1663861829442339800,15.82433984375,2.2125244140625,-52.6824951171875,59.942626953125
1663861829462328800,15.844328857421875,1.263427734375,-54.19921875,60.5438232421875
1663861829482317800,15.86431787109375,0.20294189453125,-53.8970947265625,60.5438232421875
1663861829502306800,15.884306884765625,0.35858154296875,-53.74603271484375,60.39276123046875
1663861829522295800,15.9042958984375,1.10321044921875,-54.50439453125,60.38970947265625
1663861829542284800,15.924284912109375,0.51422119140625,-53.5919189453125,60.54534912109375
1663861829562274000,15.944274169921876,-0.70953369140625,-53.74603271484375,60.6964111328125
1663861829582263000,15.964262939453125,-0.12054443359375,-54.6661376953125,59.47265625
1663861829602252000,15.984251953125,0.33416748046875,-54.8065185546875,60.69183349609375
1663861829622241000,16.004240966796875,1.41754150390625,-54.05426025390625,59.62982177734375
1663861829642230000,16.02422998046875,-0.85906982421875,-53.60870361328125,59.01947021484375
1663861829662219000,16.044218994140625,0.3814697265625,-52.6885986328125,59.63592529296875
1663861829682208000,16.0642080078125,1.104736328125,-54.498291015625,61.151123046875
1663861829702197000,16.084197021484375,-0.421142578125,-54.5013427734375,61.14959716796875
1663861829722186000,16.10418603515625,-1.0223388671875,-54.0618896484375,59.32159423828125
1663861829742175000,16.124175048828125,-1.1383056640625,-52.53143310546875,60.54840087890625
1663861829762164000,16.1441640625,-0.84991455078125,-53.15399169921875,58.71734619140625
1663861829782153000,16.164153076171875,0.98114013671875,-53.14178466796875,59.78546142578125
1663861829802142200,16.18414208984375,-0.37994384765625,-52.68096923828125,60.70098876953125
1663861829822131200,16.204131103515625,-1.0223388671875,-54.06494140625,58.8653564453125
1663861829842120200,16.2241201171875,-0.53558349609375,-52.8289794921875,61.309814453125
1663861829862109200,16.244109130859375,0.830078125,-53.00445556640625,58.11004638671875
1663861829882098200,16.26409814453125,1.1383056640625,-52.9815673828125,60.70098876953125
1663861829902056700,16.284056640625,0.958251953125,-54.1961669921875,60.84747314453125
1663861829922076200,16.304076171875,1.43280029296875,-53.4393310546875,60.394287109375
1663861829942065200,16.324065185546875,0.0274658203125,-54.82330322265625,58.8623046875
1663861829962023700,16.344023681640625,1.26800537109375,-53.91082763671875,58.7158203125
1663861829982043100,16.364043212890625,-0.08087158203125,-52.84881591796875,58.7188720703125
1663861830002032000,16.3840322265625,0.22735595703125,-52.83050537109375,60.85357666015625
1663861830022021000,16.404021240234375,0.52947998046875,-52.84576416015625,59.02557373046875
1663861830042010400,16.42401025390625,-0.11138916015625,-54.217529296875,58.7127685546875
1663861830061999400,16.443999267578125,0.8087158203125,-54.0496826171875,60.3912353515625
1663861830081988400,16.46398828125,-0.09765625,-53.60870361328125,58.7158203125
1663861830101977300,16.483977294921875,2.362060546875,-52.8228759765625,61.3128662109375
1663861830121966300,16.50396630859375,1.31072998046875,-52.07672119140625,59.79156494140625
1663861830141955300,16.523955322265625,0.96435546875,-53.89862060546875,60.24017333984375
1663861830161944300,16.5439443359375,2.04925537109375,-53.13262939453125,60.5499267578125
1663861830182269000,16.56426904296875,0.83160400390625,-52.99835205078125,58.87298583984375
1663861830202044400,16.58404443359375,-0.3814697265625,-52.69927978515625,58.56781005859375
1663861830221911300,16.603911376953125,0.982666015625,-53.13262939453125,60.85357666015625
1663861830241869800,16.623869873046875,-0.09613037109375,-53.59649658203125,60.24017333984375
1663861830261889300,16.64388916015625,1.12762451171875,-53.43780517578125,60.699462890625
1663861830281909000,16.663908935546875,1.26190185546875,-54.205322265625,59.7808837890625
1663861830301867500,16.683867431640625,-0.70953369140625,-53.74755859375,60.3912353515625
1663861830321856500,16.7038564453125,-0.12664794921875,-54.96368408203125,60.2325439453125
1663861830341845500,16.723845458984375,1.4251708984375,-53.74755859375,59.9365234375
1663861830361834500,16.74383447265625,-0.555419921875,-53.6102294921875,58.7158203125
1663861830381793000,16.76379296875,-0.08544921875,-53.13568115234375,60.85205078125
1663861830401812500,16.7838125,0.54931640625,-52.0721435546875,60.552978515625
1663861830421801500,16.803801513671875,1.43280029296875,-53.4332275390625,61.1572265625
1663861830441790500,16.82379052734375,0.35247802734375,-54.0435791015625,61.15264892578125
1663861830461779500,16.843779541015625,1.12762451171875,-53.44085693359375,60.394287109375
1663861830481768400,16.8637685546875,0.8087158203125,-54.052734375,59.9334716796875
1663861830501757400,16.88375732421875,0.07781982421875,-52.6824951171875,60.3973388671875
1663861830521746700,16.90374658203125,0.50811767578125,-53.89404296875,60.8489990234375
1663861830541735700,16.923735595703125,-0.41046142578125,-54.0496826171875,60.69488525390625
1663861830561724700,16.943724609375,0.09307861328125,-51.9317626953125,59.33380126953125
1663861830581713700,16.963713623046875,-0.872802734375,-54.21600341796875,59.01641845703125
1663861830601702700,16.98370263671875,0.9307861328125,-55.41229248046875,60.84136962890625
1663861830621722000,17.00372216796875,0.20751953125,-53.60565185546875,59.02099609375
1663861830641680600,17.0236806640625,-1.12762451171875,-52.06756591796875,61.6180419921875
1663861830661669600,17.043669677734375,0.35247802734375,-54.046630859375,60.69488525390625
1663861830681658600,17.06365869140625,1.89056396484375,-53.43170166015625,61.1572265625
1663861830701647600,17.083647705078125,1.287841796875,-53.1280517578125,61.309814453125
1663861830721636600,17.10363671875,0.06866455078125,-52.99530029296875,59.3292236328125
1663861830741625900,17.1236259765625,-0.69122314453125,-52.9876708984375,60.394287109375
1663861830761614800,17.14361474609375,1.1138916015625,-54.04815673828125,60.3912353515625
1663861830781603800,17.163603759765625,-0.3692626953125,-52.2216796875,61.1602783203125
1663861830801592800,17.1835927734375,-0.0732421875,-52.5390625,59.48333740234375
1663861830821551400,17.20355126953125,0.506591796875,-53.90472412109375,59.47723388671875
1663861830841570800,17.22357080078125,0.506591796875,-53.89862060546875,60.2386474609375
1663861830861559800,17.243559814453125,0.96282958984375,-53.90777587890625,59.02099609375
1663861830881548800,17.263548828125,-0.10223388671875,-53.900146484375,60.2386474609375
1663861830901537800,17.283537841796875,-0.07781982421875,-52.83050537109375,60.85357666015625
1663861830921526800,17.30352685546875,0.81634521484375,-53.7384033203125,61.1541748046875
1663861830941515800,17.323515869140625,1.1444091796875,-52.68402099609375,59.94110107421875
1663861830961504800,17.3435048828125,0.07171630859375,-52.97698974609375,61.46240234375
1663861830981463300,17.36346337890625,1.7333984375,-53.59649658203125,59.78546142578125
1663861831001483000,17.38348291015625,0.06103515625,-53.436279296875,61.15570068359375
1663861831021472000,17.403471923828125,-0.09613037109375,-53.59344482421875,60.54534912109375
1663861831041461000,17.4234609375,0.8087158203125,-54.0496826171875,60.3912353515625
1663861831061694200,17.443694091796875,1.898193359375,-52.99530029296875,58.87298583984375
1663861831081622000,17.4636220703125,-0.42266845703125,-54.5196533203125,58.86383056640625
1663861831101458400,17.48345849609375,0.506591796875,-53.9093017578125,59.01947021484375
1663861831121417000,17.5034169921875,0.03662109375,-54.49981689453125,61.14959716796875
1663861831141406000,17.523406005859375,0.22125244140625,-53.131103515625,61.309814453125
1663861831161364500,17.543364501953125,0.0457763671875,-54.05731201171875,59.6282958984375
1663861831181384000,17.563384033203125,1.74407958984375,-53.1341552734375,60.54840087890625
1663861831201373000,17.583373046875,-0.70953369140625,-53.74603271484375,60.6964111328125
1663861831221331500,17.60333154296875,0.35858154296875,-53.74603271484375,60.39276123046875
1663861831241351200,17.62335107421875,0.5157470703125,-53.5858154296875,61.3067626953125
1663861831261340200,17.643340087890625,0.50811767578125,-53.89556884765625,60.5438232421875
1663861831281329200,17.6633291015625,-1.18865966796875,-54.6661376953125,59.77630615234375
1663861831301318100,17.683318115234375,0.3570556640625,-53.75213623046875,59.62982177734375
1663861831321307100,17.70330712890625,1.1444091796875,-52.68096923828125,60.39886474609375
1663861831341296000,17.723296142578125,0.83465576171875,-52.9754638671875,61.46392822265625
1663861831361285000,17.74328515625,0.8331298828125,-52.978515625,61.15875244140625
1663861831381274000,17.763274169921875,0.52490234375,-53.1341552734375,60.85205078125
1663861831401263000,17.78326318359375,0.48980712890625,-54.6630859375,59.77783203125
1663861831421252000,17.803252197265625,0.4730224609375,-55.4168701171875,60.53619384765625
1663861831441241000,17.823240966796874,-0.3631591796875,-51.92413330078125,60.400390625
1663861831461230300,17.843230224609375,-0.07171630859375,-52.532958984375,60.2447509765625
1663861831481219300,17.86321923828125,0.8392333984375,-52.685546875,59.94110107421875
1663861831501208300,17.883208251953125,-0.74005126953125,-55.11932373046875,59.9273681640625
1663861831521197300,17.903197265625,-0.40435791015625,-53.753662109375,59.62982177734375
1663861831541186300,17.923186279296875,0.946044921875,-54.66461181640625,59.47418212890625
1663861831561175300,17.94317529296875,0.52337646484375,-53.143310546875,59.78546142578125
1663861831581164300,17.963164306640625,0.8392333984375,-52.68707275390625,59.63592529296875
1663861831601153300,17.9831533203125,0.98114013671875,-53.14788818359375,59.0240478515625
1663861831621142300,18.003142333984375,1.2939453125,-52.83050537109375,60.5499267578125
1663861831641131300,18.02313134765625,0.3509521484375,-54.0496826171875,60.3912353515625
1663861831661120300,18.043120361328125,0.52337646484375,-53.1524658203125,58.7188720703125
1663861831681109200,18.063109130859374,0.96588134765625,-53.89251708984375,60.8489990234375
1663861831701098500,18.083098388671875,2.52838134765625,-52.2216796875,60.40191650390625
1663861831721087500,18.10308740234375,2.008056640625,-54.9591064453125,60.235595703125
1663861831741076500,18.123076416015625,0.78277587890625,-55.12847900390625,58.55712890625
1663861831761065500,18.1430654296875,-0.40435791015625,-53.7506103515625,59.9334716796875
1663861831781054500,18.163054443359375,-0.6744384765625,-52.22625732421875,60.7025146484375
1663861831801043500,18.18304345703125,-0.3631591796875,-51.92718505859375,59.942626953125
1663861831821002000,18.203001953125,-0.09613037109375,-53.59649658203125,60.24017333984375
1663861831841021400,18.223021484375,-0.10986328125,-54.2022705078125,60.54229736328125
1663861831861010400,18.243010498046875,-0.39825439453125,-53.45611572265625,58.868408203125
1663861831880969000,18.262968994140625,0.970458984375,-53.6041259765625,59.02252197265625
1663861831900988400,18.282988525390625,1.12762451171875,-53.43780517578125,60.699462890625
1663861831920977400,18.302977294921874,-0.7080078125,-53.741455078125,61.15264892578125
1663861831941271800,18.323271728515625,1.1138916015625,-54.052734375,59.9334716796875
1663861831961199600,18.34319970703125,-1.47552490234375,-53.9031982421875,60.23712158203125
1663861831980975000,18.36297509765625,1.42059326171875,-54.03900146484375,61.4593505859375
1663861832000933600,18.38293359375,-0.72784423828125,-54.52117919921875,58.8623046875
1663861832020953000,18.402953125,-0.09613037109375,-53.59954833984375,59.78240966796875
1663861832040911600,18.42291162109375,0.07781982421875,-52.6763916015625,61.15875244140625
1663861832060900600,18.442900634765625,0.20294189453125,-53.8909912109375,61.30523681640625
1663861832080889600,18.4628896484375,0.8392333984375,-52.68096923828125,60.3973388671875
1663861832100878600,18.482878662109375,-0.7049560546875,-53.46527099609375,57.80181884765625
1663861832120867600,18.50286767578125,0.07781982421875,-52.679443359375,60.7025146484375
1663861832140856600,18.522856689453125,-0.41046142578125,-54.05120849609375,60.38970947265625
1663861832160845800,18.542845703125,-0.58441162109375,-54.96826171875,59.7747802734375
1663861832180834800,18.562834716796875,-1.02081298828125,-54.052734375,60.38970947265625
1663861832200823800,18.58282373046875,-0.71563720703125,-54.0496826171875,60.69488525390625
1663861832220812800,18.602812744140625,0.82244873046875,-53.44085693359375,60.394287109375
1663861832240801800,18.6228017578125,-1.312255859375,-53.4423828125,60.6964111328125
1663861832260790800,18.642790771484375,0.48370361328125,-54.95758056640625,60.8428955078125
1663861832280779800,18.66277978515625,0.02899169921875,-54.81109619140625,60.38665771484375
1663861832300768800,18.682768798828125,0.23345947265625,-52.5360107421875,59.78851318359375
1663861832320757800,18.7027578125,-0.103759765625,-53.90625,59.4757080078125
1663861832340746800,18.722746826171875,2.056884765625,-52.825927734375,60.8551025390625
1663861832360735700,18.74273583984375,1.7333984375,-53.5919189453125,60.24169921875
1663861832380724700,18.762724853515625,-0.08697509765625,-53.15093994140625,59.02252197265625
1663861832400714000,18.7827138671875,-1.007080078125,-53.4454345703125,60.3912353515625
1663861832420703000,18.802702880859375,1.74407958984375,-53.1341552734375,60.54840087890625
1663861832440692000,18.82269189453125,0.18310546875,-54.669189453125,59.01641845703125
1663861832460681000,18.842680908203125,-0.58441162109375,-54.962158203125,60.5377197265625
1663861832480670000,18.862669921875,0.82244873046875,-53.43780517578125,60.699462890625
1663861832500659000,18.882658935546875,-0.0946044921875,-53.58734130859375,61.3067626953125
1663861832520648000,18.90264794921875,0.3936767578125,-52.22320556640625,60.70404052734375
1663861832540637000,18.922636962890625,1.1260986328125,-53.45611572265625,58.5662841796875
1663861832560626000,18.9426259765625,0.20904541015625,-53.59039306640625,60.85052490234375
1663861832580615000,18.962614990234375,1.26953125,-53.89404296875,60.54534912109375
1663861832600604000,18.98260400390625,0.81634521484375,-53.7445068359375,60.39276123046875
1663861832620593000,19.002593017578125,0.82244873046875,-53.44085693359375,60.394287109375
1663861832640582100,19.02258203125,-0.5615234375,-53.90472412109375,59.7808837890625
1663861832660571100,19.042571044921875,0.79803466796875,-54.5135498046875,59.32159423828125
1663861832680560000,19.06256005859375,0.81634521484375,-53.7445068359375,60.39276123046875
1663861832700549000,19.082549072265625,0.48828125,-54.67376708984375,58.40606689453125
1663861832720538000,19.1025380859375,1.434326171875,-53.424072265625,62.22381591796875
1663861832740527000,19.122527099609375,0.1678466796875,-55.419921875,60.23101806640625
1663861832760516000,19.14251611328125,-0.67596435546875,-52.23541259765625,59.63592529296875
1663861832780505000,19.162505126953125,0.1953125,-54.20379638671875,60.23712158203125
1663861832800494000,19.182494140625,1.09710693359375,-54.80804443359375,60.38818359375
1663861832820483000,19.202483154296875,-0.543212890625,-53.14178466796875,60.24169921875
1663861832840777200,19.222777099609374,0.20294189453125,-53.89404296875,60.8489990234375
1663861832860522200,19.242522216796875,0.1800537109375,-54.95147705078125,61.6058349609375
1663861832880450300,19.2624501953125,1.0223388671875,-51.31988525390625,59.490966796875
1663861832900439300,19.282439208984375,0.970458984375,-53.6041259765625,59.02252197265625
1663861832920428300,19.30242822265625,0.0518798828125,-53.753662109375,59.62982177734375
1663861832940417300,19.322417236328125,0.21820068359375,-53.1494140625,59.02252197265625
1663861832960375800,19.342375732421875,-0.06103515625,-52.07366943359375,60.55145263671875
1663861832980395300,19.362395263671875,-1.3031005859375,-52.9937744140625,59.9365234375
1663861833000384300,19.38238427734375,1.7578125,-52.53448486328125,59.48486328125
1663861833020373200,19.402373291015625,1.75018310546875,-52.838134765625,59.48333740234375
1663861833040362200,19.4223623046875,-0.70343017578125,-53.45001220703125,59.62982177734375
1663861833060351200,19.442351318359375,2.01568603515625,-54.64630126953125,61.3037109375
1663861833080340200,19.46234033203125,0.1953125,-54.20379638671875,60.23712158203125
1663861833100329200,19.4823291015625,0.341796875,-54.50286865234375,60.693359375
1663861833120318500,19.502318359375,0.2197265625,-53.13720703125,60.546875
1663861833140307500,19.522307373046875,0.50048828125,-54.20684814453125,59.7808837890625
1663861833160296400,19.54229638671875,1.76849365234375,-52.0721435546875,60.24932861328125
1663861833180255000,19.5622548828125,0.506591796875,-53.9031982421875,59.78240966796875
1663861833200274400,19.5822744140625,0.52337646484375,-53.143310546875,59.78546142578125
1663861833220263400,19.602263427734375,0.5126953125,-53.60107421875,59.478759765625
1663861833240252400,19.62225244140625,-0.08544921875,-53.1402587890625,60.24169921875
1663861833260241400,19.642241455078125,1.16119384765625,-51.92413330078125,59.94415283203125
1663861833280230400,19.66223046875,0.06103515625,-53.4393310546875,60.69793701171875
1663861833300219400,19.682219482421875,-0.70343017578125,-53.45306396484375,59.326171875
1663861833320208400,19.70220849609375,0.35247802734375,-54.03900146484375,61.761474609375
1663861833340167000,19.7221669921875,0.8392333984375,-52.68096923828125,60.3973388671875
1663861833360186600,19.7421865234375,1.15509033203125,-52.2247314453125,60.400390625
1663861833380175600,19.762175537109375,0.36468505859375,-53.4454345703125,59.9365234375
1663861833400164600,19.78216455078125,0.83160400390625,-52.99072265625,59.6343994140625
1663861833420153600,19.802153564453125,0.81024169921875,-54.04205322265625,61.15264892578125
1663861833440142600,19.822142578125,-0.99945068359375,-53.01513671875,57.3455810546875
1663861833460131600,19.842131591796875,-0.5523681640625,-53.5919189453125,60.8489990234375
1663861833480120600,19.86212060546875,0.2105712890625,-53.5858154296875,61.3067626953125
1663861833500109600,19.882109619140625,0.36468505859375,-53.4423828125,60.394287109375
1663861833520098600,19.9020986328125,-0.3875732421875,-52.9876708984375,60.394287109375
1663861833540087600,19.922087646484375,-2.3681640625,-52.984619140625,61.1541748046875
1663861833560076500,19.94207666015625,0.7904052734375,-54.815673828125,59.625244140625
1663861833580065800,19.962065673828125,0.3173828125,-55.5633544921875,61.14501953125
1663861833600024000,19.982024169921875,1.251220703125,-54.66156005859375,59.77935791015625
1663861833620043800,20.002043701171875,0.50048828125,-54.20074462890625,60.54229736328125
1663861833640032800,20.02203271484375,1.995849609375,-55.426025390625,59.01336669921875
1663861833660021800,20.042021728515625,-1.153564453125,-53.1524658203125,59.02099609375
1663861833680010800,20.0620107421875,0.06103515625,-53.4393310546875,60.69793701171875
1663861833699999700,20.081999755859375,2.05535888671875,-52.838134765625,59.48333740234375
1663861833720355000,20.10235498046875,-0.396728515625,-53.43780517578125,61.1541748046875
1663861833740099800,20.122099853515625,-1.3275146484375,-54.06036376953125,59.62677001953125
1663861833759966700,20.141966796875,-0.5615234375,-53.91082763671875,59.0179443359375
1663861833779955700,20.161955810546875,0.0518798828125,-53.759765625,58.86688232421875
1663861833799944700,20.18194482421875,-0.543212890625,-53.14483642578125,59.783935546875
1663861833819934000,20.201933837890625,0.8087158203125,-54.0496826171875,60.3912353515625
1663861833839923000,20.2219228515625,2.05535888671875,-52.838134765625,59.48333740234375
1663861833859881200,20.241881103515624,1.12762451171875,-53.44085693359375,60.394287109375
1663861833879901000,20.26190087890625,1.74407958984375,-53.13568115234375,60.2447509765625
1663861833899890000,20.281889892578125,1.702880859375,-54.96063232421875,60.235595703125
1663861833919879000,20.30187890625,0.958251953125,-54.2022705078125,60.2386474609375
1663861833939868000,20.321867919921875,0.98114013671875,-53.14483642578125,59.4818115234375
1663861833959826400,20.341826416015625,-1.0467529296875,-55.12542724609375,59.3170166015625
1663861833979846000,20.361845947265625,0.07476806640625,-52.69775390625,58.56781005859375
1663861833999835000,20.3818349609375,0.3509521484375,-54.0557861328125,59.6282958984375
1663861834019793400,20.40179345703125,-0.0946044921875,-53.58734130859375,61.3067626953125
1663861834039812900,20.421812744140624,0.3753662109375,-52.99224853515625,59.6343994140625
1663861834059802000,20.441802001953125,0.994873046875,-52.53448486328125,59.78851318359375
1663861834079791000,20.461791015625,-0.39520263671875,-53.43170166015625,61.7645263671875
1663861834099780000,20.481780029296875,1.12152099609375,-53.7384033203125,61.15570068359375
1663861834119769000,20.50176904296875,0.506591796875,-53.9031982421875,59.78240966796875
1663861834139758000,20.521758056640625,0.0518798828125,-53.753662109375,59.62982177734375
1663861834159747000,20.5417470703125,0.97198486328125,-53.5919189453125,60.54534912109375
1663861834179736000,20.561736083984375,0.84991455078125,-52.2308349609375,59.637451171875
1663861834199725000,20.58172509765625,-0.85906982421875,-53.6041259765625,59.47723388671875
1663861834219683600,20.60168359375,1.4678955078125,-51.91802978515625,60.70709228515625
1663861834239703000,20.621703125,0.20294189453125,-53.900146484375,60.2386474609375
1663861834259692000,20.641692138671875,-0.10986328125,-54.2022705078125,60.54229736328125
1663861834279681000,20.661680908203124,0.970458984375,-53.5980224609375,59.783935546875
1663861834299670300,20.681670166015625,-0.54168701171875,-53.13568115234375,60.85052490234375
1663861834319659300,20.7016591796875,-0.3814697265625,-52.69012451171875,59.6343994140625
1663861834339648300,20.721648193359375,0.0946044921875,-51.9195556640625,60.70556640625
1663861834359637200,20.74163720703125,-0.39825439453125,-53.44696044921875,59.93499755859375
1663861834379626200,20.761626220703125,0.78582763671875,-55.10406494140625,61.4532470703125
1663861834399584800,20.781584716796875,0.17852783203125,-54.95758056640625,60.8428955078125
1663861834419604200,20.801604248046875,0.20294189453125,-53.900146484375,60.2386474609375
1663861834439593200,20.82159326171875,0.8209228515625,-53.45001220703125,59.32769775390625
1663861834459582200,20.841582275390625,1.27716064453125,-53.58428955078125,61.30828857421875
1663861834479571200,20.8615712890625,-1.007080078125,-53.448486328125,59.93499755859375
1663861834499529700,20.88152978515625,-1.27716064453125,-51.922607421875,60.70404052734375
1663861834519549400,20.901549560546876,-0.5767822265625,-54.65240478515625,61.3006591796875
1663861834539538400,20.921538330078125,1.4312744140625,-53.4454345703125,59.63287353515625
1663861834559527400,20.94152734375,0.799560546875,-54.498291015625,61.151123046875
1663861834579516400,20.961516357421875,0.81024169921875,-54.0374755859375,61.76300048828125
1663861834599749600,20.98174951171875,-0.40283203125,-53.741455078125,61.15264892578125
1663861834619677400,21.001677490234375,0.23193359375,-52.5421142578125,59.02557373046875
1663861834639483400,21.0214833984375,0.0579833984375,-53.45611572265625,58.868408203125
1663861834659472400,21.041472412109375,1.09710693359375,-54.80499267578125,60.69183349609375
1663861834679461400,21.06146142578125,0.81634521484375,-53.7353515625,61.4593505859375
1663861834699450400,21.081450439453125,0.201416015625,-53.9031982421875,59.7808837890625
1663861834719439400,21.101439453125,0.23345947265625,-52.53143310546875,60.2447509765625
1663861834739428400,21.121428466796875,0.360107421875,-53.73687744140625,61.4593505859375
1663861834759417600,21.14141748046875,-0.0946044921875,-53.59039306640625,60.8489990234375
1663861834779406600,21.161406494140625,2.32086181640625,-54.65240478515625,60.54229736328125
1663861834799395600,21.1813955078125,0.98114013671875,-53.13720703125,60.24322509765625
1663861834819354000,21.20135400390625,-0.8331298828125,-52.52532958984375,61.31134033203125
1663861834839373600,21.22137353515625,0.50048828125,-54.2022705078125,60.23712158203125
1663861834859362600,21.241362548828125,1.44195556640625,-52.9876708984375,59.9395751953125
1663861834879351600,21.2613515625,0.3570556640625,-53.74908447265625,59.93499755859375
1663861834899340500,21.281340576171875,-0.42266845703125,-54.51202392578125,59.930419921875
1663861834919329500,21.30132958984375,0.82244873046875,-53.43780517578125,60.699462890625
1663861834939288000,21.3212880859375,0.98114013671875,-53.13720703125,60.24322509765625
1663861834959307500,21.3413076171875,0.3753662109375,-52.98919677734375,59.93804931640625
1663861834979296500,21.361296630859375,0.38299560546875,-52.679443359375,60.7025146484375
1663861834999285800,21.38128564453125,0.35858154296875,-53.74298095703125,60.6964111328125
1663861835019274800,21.401274658203125,0.98114013671875,-53.14178466796875,59.78546142578125
1663861835039263700,21.421263671875,1.76849365234375,-52.0721435546875,60.24932861328125
1663861835059252700,21.441252685546875,0.98876953125,-52.838134765625,59.7869873046875
1663861835079241700,21.46124169921875,0.36468505859375,-53.4515380859375,59.326171875
1663861835099230700,21.481230712890625,2.081298828125,-51.75628662109375,61.62261962890625
1663861835119219700,21.5012197265625,-0.396728515625,-53.44085693359375,60.69793701171875
1663861835139208700,21.521208740234375,2.05535888671875,-52.8350830078125,59.78851318359375
1663861835159197700,21.54119775390625,-0.40435791015625,-53.7445068359375,60.6964111328125
1663861835179186700,21.561186767578125,0.0701904296875,-52.98614501953125,60.39581298828125
1663861835199175700,21.58117578125,0.76751708984375,-55.87615966796875,59.92431640625
1663861835219164700,21.60116455078125,0.3753662109375,-52.98919677734375,59.93804931640625
1663861835239154000,21.62115380859375,1.28631591796875,-53.14178466796875,59.7869873046875
1663861835259143000,21.641142822265625,1.28631591796875,-53.14178466796875,59.7869873046875
1663861835279132000,21.6611318359375,-0.5126953125,-51.7791748046875,59.48638916015625
1663861835299121000,21.681120849609375,0.22125244140625,-53.131103515625,61.309814453125
1663861835319110000,21.70110986328125,2.04925537109375,-53.14178466796875,59.4818115234375
1663861835339099000,21.721098876953125,0.94757080078125,-54.66156005859375,59.77935791015625
1663861835359057400,21.741057373046875,-0.421142578125,-54.5074462890625,60.38818359375
1663861835379076900,21.761076904296875,-0.41046142578125,-54.0496826171875,60.69488525390625
1663861835399065900,21.78106591796875,1.74407958984375,-53.13568115234375,60.2447509765625
1663861835419054800,21.801054931640625,2.16217041015625,-54.8187255859375,58.8653564453125
1663861835439043800,21.8210439453125,1.31072998046875,-52.07672119140625,59.79156494140625
1663861835459032800,21.84103271484375,-0.08697509765625,-53.15093994140625,59.02252197265625
1663861835479357700,21.861357666015625,0.5126953125,-53.60565185546875,59.02099609375
1663861835499255000,21.881255126953125,0.482177734375,-54.97283935546875,59.014892578125
1663861835519030500,21.901030517578125,2.50091552734375,-53.42864990234375,61.46240234375
1663861835539019500,21.92101953125,1.1138916015625,-54.04815673828125,60.3912353515625
1663861835558978000,21.94097802734375,0.99639892578125,-52.52685546875,60.55145263671875
1663861835578967000,21.960967041015625,0.982666015625,-53.12652587890625,61.614990234375
1663861835598956000,21.9809560546875,0.3814697265625,-52.6947021484375,58.87298583984375
1663861835618914600,22.00091455078125,1.47247314453125,-51.62506103515625,59.33685302734375
1663861835638934000,22.02093408203125,0.7904052734375,-54.81719970703125,59.320068359375
1663861835658923000,22.040923095703125,-0.103759765625,-53.912353515625,58.71429443359375
1663861835678912000,22.060912109375,0.0457763671875,-54.05426025390625,59.9334716796875
1663861835698901000,22.08090087890625,-0.701904296875,-53.4423828125,60.6964111328125
1663861835718890200,22.10089013671875,-0.421142578125,-54.50439453125,60.69183349609375
1663861835738848500,22.1208486328125,-0.3997802734375,-53.45916748046875,58.563232421875
1663861835758868200,22.1408681640625,-0.36468505859375,-51.93634033203125,58.87603759765625
1663861835778857200,22.160857177734375,-1.2847900390625,-52.22625732421875,60.7025146484375
1663861835798846200,22.18084619140625,-0.55389404296875,-53.60107421875,59.78240966796875
1663861835818835200,22.200835205078125,0.3662109375,-53.43017578125,61.7645263671875
1663861835838824200,22.22082421875,1.75933837890625,-52.5238037109375,60.85662841796875
1663861835858813200,22.240813232421875,-0.836181640625,-52.54669189453125,58.72039794921875
1663861835878802200,22.26080224609375,-1.3031005859375,-53.0029296875,58.86993408203125
1663861835898791200,22.280791259765625,0.3631591796875,-53.4576416015625,58.56475830078125
1663861835918780200,22.3007802734375,0.81634521484375,-53.7384033203125,61.1541748046875
1663861835938769400,22.320769287109375,0.8209228515625,-53.45001220703125,59.32769775390625
1663861835958758400,22.34075830078125,0.3570556640625,-53.75213623046875,59.62982177734375
1663861835978747400,22.360747314453125,-1.153564453125,-53.1463623046875,59.783935546875
1663861835998736400,22.380736328125,-0.10223388671875,-53.900146484375,60.2386474609375
1663861836018725400,22.400725341796875,0.20294189453125,-53.8970947265625,60.5438232421875
1663861836038714400,22.42071435546875,1.8646240234375,-54.50897216796875,59.6282958984375
1663861836058703400,22.440703369140625,0.225830078125,-52.84271240234375,59.4818115234375
1663861836078692400,22.4606923828125,1.72119140625,-54.19769287109375,60.5438232421875
1663861836098681300,22.480681396484375,-0.70953369140625,-53.75518798828125,59.6282958984375
1663861836118670300,22.50067041015625,1.4190673828125,-54.05120849609375,59.93499755859375
1663861836138659300,22.520659423828125,0.21820068359375,-53.143310546875,59.78546142578125
1663861836158648300,22.5406484375,-0.079345703125,-52.83966064453125,59.7869873046875
1663861836178637600,22.560637451171875,1.12762451171875,-53.44390869140625,59.9365234375
1663861836198626600,22.58062646484375,1.13677978515625,-52.9876708984375,59.9395751953125
1663861836218584800,22.600584716796874,0.82244873046875,-53.4454345703125,59.9365234375
1663861836238604500,22.6206044921875,1.263427734375,-54.1961669921875,60.84747314453125
1663861836258593500,22.640593505859375,0.50811767578125,-53.89556884765625,60.5438232421875
1663861836278552000,22.660552001953125,0.0457763671875,-54.05731201171875,59.6282958984375
1663861836298571500,22.680571533203125,0.05340576171875,-53.74603271484375,60.3912353515625
1663861836318560500,22.700560546875,0.360107421875,-53.73687744140625,61.4593505859375
1663861836338519000,22.72051904296875,-0.86517333984375,-53.90625,59.7808837890625
1663861836358538500,22.74053857421875,-0.71563720703125,-54.0496826171875,60.69488525390625
1663861836378863400,22.76086328125,-1.031494140625,-54.51202392578125,59.92889404296875
1663861836398608100,22.780608154296875,-0.0946044921875,-53.59039306640625,60.8489990234375
1663861836418536200,22.8005361328125,0.48828125,-54.67376708984375,58.40606689453125
1663861836438494700,22.82049462890625,0.8331298828125,-52.98919677734375,59.9395751953125
1663861836458483700,22.840483642578125,0.98114013671875,-53.14788818359375,59.0240478515625
1663861836478503200,22.860503173828125,0.82244873046875,-53.4454345703125,59.9365234375
1663861836498461700,22.880461669921875,1.1444091796875,-52.68096923828125,60.39886474609375
1663861836518420200,22.900420166015625,0.8392333984375,-52.68096923828125,60.3973388671875
1663861836538439700,22.920439697265625,-0.8392333984375,-52.8289794921875,61.309814453125
1663861836558428700,22.9404287109375,0.51422119140625,-53.594970703125,60.24017333984375
1663861836578417700,22.960417724609375,0.506591796875,-53.9093017578125,59.01947021484375
1663861836598406700,22.98040673828125,-0.55389404296875,-53.60107421875,59.78240966796875
1663861836618395600,23.000395751953125,0.95672607421875,-54.21142578125,59.01947021484375
1663861836638384600,23.020384521484374,0.50048828125,-54.2022705078125,60.23712158203125
1663861836658374000,23.040373779296875,0.04730224609375,-54.04815673828125,60.69488525390625
1663861836678363000,23.06036279296875,0.83160400390625,-52.99072265625,59.6343994140625
1663861836698351900,23.080351806640625,0.01220703125,-55.56793212890625,60.687255859375
1663861836718340900,23.1003408203125,1.1138916015625,-54.04815673828125,60.3912353515625
1663861836738329900,23.120329833984375,1.13677978515625,-52.9937744140625,59.3292236328125
1663861836758318800,23.14031884765625,1.27716064453125,-53.59039306640625,60.546875
1663861836778307800,23.160307861328125,1.2725830078125,-53.8787841796875,62.37335205078125
1663861836798296800,23.180296875,-0.396728515625,-53.44390869140625,60.39276123046875
1663861836818285800,23.200285888671875,0.82244873046875,-53.4454345703125,59.9365234375
1663861836838274800,23.22027490234375,0.506591796875,-53.9031982421875,59.78240966796875
1663861836858263800,23.240263916015625,0.3662109375,-53.436279296875,61.15570068359375
1663861836878252800,23.260252685546874,0.94757080078125,-54.65850830078125,60.235595703125
1663861836898242000,23.280241943359375,0.98114013671875,-53.14483642578125,59.4818115234375
1663861836918231000,23.30023095703125,1.10321044921875,-54.50439453125,60.38970947265625
1663861836938220000,23.320219970703125,0.225830078125,-52.8350830078125,60.24322509765625
1663861836958209000,23.340208984375,-0.12054443359375,-54.66461181640625,59.77783203125
1663861836978198000,23.360197998046875,0.982666015625,-53.13262939453125,60.85357666015625
1663861836998187000,23.38018701171875,1.2939453125,-52.83355712890625,60.2447509765625
1663861837018176000,23.400176025390625,0.95672607421875,-54.205322265625,59.7808837890625
1663861837038165000,23.4201650390625,0.95977783203125,-54.1839599609375,62.371826171875
1663861837058154000,23.440154052734375,0.51422119140625,-53.59039306640625,60.85052490234375
1663861837078143000,23.46014306640625,1.1383056640625,-52.984619140625,60.3973388671875
1663861837098132000,23.480132080078125,0.39215087890625,-52.22625732421875,60.39886474609375
1663861837118090500,23.500090576171875,-0.85906982421875,-53.5980224609375,60.2386474609375
1663861837138110200,23.520110107421875,-0.38909912109375,-52.9998779296875,58.8714599609375
1663861837158099200,23.54009912109375,-0.07476806640625,-52.55126953125,57.958984375
1663861837178088200,23.560088134765625,1.12152099609375,-53.741455078125,60.69793701171875
1663861837198077200,23.5800771484375,1.1199951171875,-53.74755859375,59.93499755859375
1663861837218066200,23.600066162109375,1.89056396484375,-53.4393310546875,60.39581298828125
1663861837238055200,23.62005517578125,-0.37078857421875,-52.239990234375,58.87451171875
1663861837258410500,23.640410400390625,1.40228271484375,-54.8004150390625,61.14959716796875
1663861837278185700,23.660185791015625,0.82244873046875,-53.4454345703125,59.9365234375
1663861837298022100,23.680022216796875,2.0477294921875,-53.1463623046875,59.02557373046875
1663861837317980700,23.699980712890625,0.506591796875,-53.9031982421875,59.78240966796875
1663861837338000100,23.720000244140625,0.51422119140625,-53.5919189453125,60.54534912109375
1663861837357989400,23.7399892578125,0.970458984375,-53.607177734375,58.71734619140625
1663861837377978400,23.759978271484375,1.1383056640625,-52.9815673828125,60.70098876953125
1663861837397967400,23.77996728515625,0.97198486328125,-53.59344482421875,60.24169921875
1663861837417956400,23.799956298828125,0.3997802734375,-51.922607421875,60.400390625
1663861837437945300,23.8199453125,-0.08544921875,-53.1402587890625,60.24169921875
1663861837457903900,23.83990380859375,-0.396728515625,-53.44390869140625,60.39276123046875
1663861837477923300,23.85992333984375,1.9073486328125,-52.679443359375,60.39886474609375
1663861837497912300,23.879912353515625,0.83160400390625,-52.9937744140625,59.3292236328125
1663861837517901300,23.8999013671875,-0.07781982421875,-52.83050537109375,60.85357666015625
1663861837537890300,23.919890380859375,-0.09613037109375,-53.59649658203125,60.24017333984375
1663861837557879300,23.93987939453125,0.24261474609375,-52.08282470703125,59.48638916015625
1663861837577868300,23.959868408203125,2.032470703125,-53.89556884765625,60.24017333984375
1663861837597857500,23.979857421875,-0.1373291015625,-55.419921875,60.23101806640625
1663861837617815800,23.99981591796875,0.8331298828125,-52.98919677734375,59.9395751953125
1663861837637835500,24.01983544921875,1.7578125,-52.52838134765625,60.247802734375
1663861837657824500,24.039824462890625,-0.3631591796875,-51.92108154296875,60.70556640625
1663861837677813500,24.0598134765625,1.1444091796875,-52.68402099609375,59.94110107421875
1663861837697777200,24.079777099609377,0.0701904296875,-52.984619140625,60.70098876953125
1663861837717735700,24.099735595703127,-0.07781982421875,-52.82440185546875,61.614990234375
1663861837737755100,24.119755126953127,-0.3875732421875,-52.996826171875,59.32769775390625
1663861837757744000,24.139744140625,0.225830078125,-52.83966064453125,59.7869873046875
1663861837777733400,24.1597333984375,1.458740234375,-52.2369384765625,58.87603759765625
1663861837797722400,24.179722412109374,1.26953125,-53.9031982421875,59.47723388671875
1663861837817711400,24.19971142578125,0.0274658203125,-54.8187255859375,59.320068359375
1663861837837700400,24.219700439453124,0.384521484375,-52.667236328125,62.22686767578125
1663861837857689300,24.239689453125,0.18463134765625,-54.6600341796875,60.235595703125
1663861837877678300,24.25967822265625,0.994873046875,-52.53448486328125,59.78851318359375
1663861837897667300,24.279667236328127,1.47247314453125,-51.62811279296875,58.87908935546875
1663861837917656300,24.29965625,0.4058837890625,-51.62506103515625,59.6405029296875
1663861837937645300,24.319645263671877,1.275634765625,-53.59649658203125,59.783935546875
1663861837957634300,24.33963427734375,0.37384033203125,-53.00140380859375,58.5662841796875
1663861837977623300,24.359623291015627,0.01068115234375,-55.57708740234375,59.62066650390625
1663861837997581800,24.379581787109377,-0.08544921875,-53.13720703125,60.546875
1663861838017601500,24.3996015625,-0.07171630859375,-52.5299072265625,60.5499267578125
1663861838037590500,24.419590576171874,-0.7171630859375,-54.058837890625,59.62677001953125
1663861838057579500,24.43957958984375,2.0477294921875,-53.1463623046875,59.02557373046875
1663861838077568500,24.459568603515624,0.3814697265625,-52.6947021484375,58.87298583984375
1663861838097588000,24.479587890625,1.12152099609375,-53.741455078125,60.69793701171875
1663861838117546500,24.49954638671875,0.970458984375,-53.5980224609375,59.783935546875
1663861838137810200,24.51981005859375,0.95672607421875,-54.2144775390625,58.71429443359375
1663861838157738200,24.53973828125,1.8890380859375,-53.4423828125,59.93804931640625
1663861838177513500,24.559513427734377,0.81634521484375,-53.7384033203125,61.1541748046875
1663861838197502500,24.57950244140625,0.03509521484375,-54.5135498046875,59.625244140625
1663861838217491500,24.599491455078127,0.82244873046875,-53.43780517578125,60.699462890625
1663861838237480400,24.61948046875,0.98114013671875,-53.14178466796875,59.78546142578125
1663861838257469700,24.6394697265625,2.96630859375,-52.9876708984375,59.637451171875
1663861838277458700,24.659458740234374,-0.69122314453125,-52.9876708984375,60.394287109375
1663861838297447700,24.67944775390625,-1.007080078125,-53.448486328125,59.93499755859375
1663861838317436700,24.699436767578124,-0.12054443359375,-54.6661376953125,59.47265625
1663861838337425700,24.71942578125,0.48980712890625,-54.656982421875,60.540771484375
1663861838357414700,24.73941455078125,1.4190673828125,-54.05120849609375,59.93499755859375
1663861838377403600,24.759403564453127,-0.39825439453125,-53.44696044921875,59.93499755859375
1663861838397392600,24.779392578125,0.81634521484375,-53.7445068359375,60.39276123046875
1663861838417351200,24.79935107421875,-0.128173828125,-54.96978759765625,59.47113037109375
1663861838437370600,24.81937060546875,0.82244873046875,-53.44696044921875,59.63134765625
1663861838457359600,24.839359619140627,0.3753662109375,-52.99224853515625,59.6343994140625
1663861838477318100,24.859318115234377,0.20294189453125,-53.900146484375,60.2386474609375
1663861838497337900,24.879337890625,0.3570556640625,-53.74908447265625,59.93499755859375
1663861838517326800,24.899326904296874,2.4749755859375,-54.5074462890625,59.6282958984375
1663861838537285400,24.919285400390624,0.8392333984375,-52.69012451171875,59.33074951171875
1663861838557304800,24.939304931640624,0.22735595703125,-52.83355712890625,60.54840087890625
1663861838577293800,24.9592939453125,-0.70953369140625,-53.7567138671875,59.32464599609375
1663861838597282800,24.97928271484375,-0.09613037109375,-53.59344482421875,60.54534912109375
1663861838617271800,24.999271728515627,1.89971923828125,-52.98919677734375,59.63592529296875
1663861838637260800,25.0192607421875,1.89056396484375,-53.4393310546875,60.39581298828125
1663861838657249800,25.039249755859377,1.10321044921875,-54.510498046875,59.62677001953125
1663861838677238800,25.05923876953125,1.85089111328125,-55.11627197265625,59.625244140625
1663861838697258500,25.079258544921874,0.39215087890625,-52.23236083984375,59.637451171875
1663861838717217000,25.099217041015624,0.98724365234375,-52.84423828125,59.02557373046875
1663861838737206000,25.1192060546875,0.38299560546875,-52.67486572265625,61.15875244140625
1663861838757195000,25.139195068359374,-1.1474609375,-52.8533935546875,58.4136962890625
1663861838777184000,25.15918408203125,1.4434814453125,-52.98309326171875,60.3973388671875
1663861838797173000,25.179173095703124,-0.69122314453125,-52.9815673828125,61.1572265625
1663861838817162000,25.199161865234377,-0.7171630859375,-54.058837890625,59.62677001953125
1663861838837151000,25.21915087890625,0.24261474609375,-52.08587646484375,59.02862548828125
1663861838857140000,25.239139892578127,1.751708984375,-52.83203125,60.24627685546875
1663861838877129000,25.25912890625,0.40740966796875,-51.60980224609375,61.47003173828125
1663861838897118000,25.279117919921877,0.0518798828125,-53.75518798828125,59.32464599609375
1663861838917076500,25.299076416015627,1.0040283203125,-52.0843505859375,59.02862548828125
1663861838937096000,25.319095947265627,-1.06201171875,-55.87615966796875,60.38055419921875
1663861838957085200,25.339085205078124,0.20904541015625,-53.59954833984375,59.78240966796875
1663861838977074200,25.35907421875,-0.543212890625,-53.14178466796875,60.24169921875
1663861838997063200,25.379063232421874,0.3570556640625,-53.75823974609375,58.868408203125
1663861839017387800,25.3993876953125,-0.37841796875,-52.67486572265625,61.46392822265625
1663861839037315800,25.41931591796875,-0.08544921875,-53.13568115234375,60.85205078125
1663861839057091000,25.439091064453127,0.36468505859375,-53.4423828125,60.394287109375
1663861839077019100,25.45901904296875,1.42669677734375,-53.7322998046875,61.7645263671875
1663861839097008000,25.479008056640627,0.83465576171875,-52.9754638671875,61.46392822265625
1663861839116997000,25.4989970703125,0.201416015625,-53.9031982421875,59.7808837890625
1663861839136986000,25.518986083984377,1.4495849609375,-52.68402099609375,59.94110107421875
1663861839156975000,25.53897509765625,2.03094482421875,-53.900146484375,59.783935546875
1663861839176964000,25.558964111328127,-0.408935546875,-54.03594970703125,62.21923828125
1663861839196953300,25.578953369140624,1.90582275390625,-52.685546875,59.637451171875
1663861839216942300,25.5989423828125,-0.08544921875,-53.13568115234375,60.85205078125
1663861839236931300,25.618931396484374,0.35858154296875,-53.74603271484375,60.39276123046875
1663861839256920300,25.63892041015625,1.2939453125,-52.8289794921875,60.8551025390625
1663861839276909300,25.658909423828124,1.89056396484375,-53.436279296875,60.699462890625
1663861839296898300,25.678898193359377,-0.079345703125,-52.83966064453125,59.7869873046875
1663861839316887300,25.69888720703125,1.43280029296875,-53.43780517578125,60.699462890625
1663861839336876300,25.718876220703127,1.727294921875,-53.89404296875,60.54534912109375
1663861839356865300,25.738865234375,1.13677978515625,-52.99072265625,59.6343994140625
1663861839376854300,25.758854248046877,0.50048828125,-54.20074462890625,60.54229736328125
1663861839396874000,25.7788740234375,-0.396728515625,-53.43780517578125,61.1541748046875
1663861839416832300,25.798832275390627,0.7904052734375,-54.815673828125,59.625244140625
1663861839436821500,25.818821533203124,0.36468505859375,-53.448486328125,59.63134765625
1663861839456810500,25.838810546875,-0.70037841796875,-53.43475341796875,61.4593505859375
1663861839476799500,25.858799560546874,0.37384033203125,-53.00140380859375,58.5662841796875
1663861839496788500,25.87878857421875,-0.543212890625,-53.14178466796875,60.24169921875
1663861839516777500,25.898777587890624,1.1627197265625,-51.91802978515625,60.70709228515625
1663861839536736000,25.918736083984374,0.50811767578125,-53.89556884765625,60.5438232421875
1663861839556755500,25.93875537109375,-0.07171630859375,-52.5299072265625,60.5499267578125
1663861839576744400,25.958744384765627,0.946044921875,-54.67071533203125,58.71124267578125
1663861839596733400,25.9787333984375,0.22735595703125,-52.83355712890625,60.54840087890625
1663861839616722400,25.998722412109377,-1.28326416015625,-52.22015380859375,61.46392822265625
1663861839636711400,26.01871142578125,0.20294189453125,-53.900146484375,60.2386474609375
1663861839656700700,26.03870068359375,-0.08392333984375,-53.131103515625,61.30828857421875
1663861839676689700,26.058689697265624,0.05340576171875,-53.7506103515625,59.93499755859375
1663861839696678700,26.0786787109375,1.24969482421875,-54.6722412109375,58.4075927734375
1663861839716667600,26.098667724609374,-0.55389404296875,-53.59649658203125,60.2386474609375
1663861839736656600,26.11865673828125,0.81634521484375,-53.74298095703125,60.69793701171875
1663861839756645600,26.138645751953124,-0.37078857421875,-52.2308349609375,59.94110107421875
1663861839776634600,26.158634521484377,1.4190673828125,-54.05120849609375,59.93499755859375
1663861839796623600,26.17862353515625,0.3997802734375,-51.9195556640625,60.70556640625
1663861839816612600,26.198612548828127,1.30157470703125,-52.5238037109375,60.85662841796875
1663861839836601600,26.2186015625,1.8890380859375,-53.4454345703125,59.63287353515625
1663861839856560000,26.23856005859375,1.43280029296875,-53.4393310546875,60.394287109375
1663861839876579600,26.25857958984375,0.49896240234375,-54.21295166015625,59.0179443359375
1663861839896568800,26.27856884765625,0.0762939453125,-52.691650390625,59.33074951171875
1663861839916893400,26.2988935546875,0.80718994140625,-54.0618896484375,58.86688232421875
1663861839936669000,26.3186689453125,-0.6927490234375,-52.99530029296875,59.63287353515625
1663861839956535800,26.338535888671874,-0.42724609375,-54.8095703125,60.6903076171875
1663861839976555300,26.35855517578125,2.47039794921875,-54.79583740234375,61.456298828125
1663861839996513800,26.378513671875,-1.129150390625,-52.08282470703125,59.78851318359375
1663861840016502800,26.398502685546877,0.52490234375,-53.1341552734375,60.85205078125
1663861840036491800,26.41849169921875,1.90887451171875,-52.67181396484375,61.16180419921875
1663861840056480800,26.438480712890627,-0.09613037109375,-53.59649658203125,60.24017333984375
1663861840076469800,26.4584697265625,-0.96435546875,-51.60980224609375,61.77215576171875
1663861840096458800,26.478458740234377,0.0579833984375,-53.4637451171875,57.80181884765625
1663861840116447700,26.49844775390625,0.22735595703125,-52.83050537109375,60.85357666015625
1663861840136437000,26.51843701171875,-0.09765625,-53.607177734375,59.02099609375
1663861840156426000,26.538426025390624,0.82244873046875,-53.44085693359375,60.394287109375
1663861840176415000,26.5584150390625,0.5126953125,-53.607177734375,58.7158203125
1663861840196373500,26.57837353515625,0.994873046875,-52.53448486328125,59.78851318359375
1663861840216393000,26.59839306640625,-0.69122314453125,-52.9876708984375,60.394287109375
1663861840236382000,26.6183818359375,-1.3427734375,-54.8126220703125,60.3851318359375
1663861840256340500,26.638340576171874,-1.29547119140625,-52.69012451171875,59.93804931640625
1663861840276360000,26.65835986328125,0.0885009765625,-52.2247314453125,60.70404052734375
1663861840296349000,26.678348876953127,1.751708984375,-52.83050537109375,60.5499267578125
1663861840316338000,26.698337890625,0.0518798828125,-53.75518798828125,59.32464599609375
1663861840336327000,26.718326904296877,-0.543212890625,-53.14483642578125,59.783935546875
1663861840356285400,26.738285400390627,-1.76239013671875,-53.14178466796875,60.54534912109375
1663861840376305200,26.75830517578125,0.0701904296875,-52.9937744140625,59.63287353515625
1663861840396263400,26.778263427734377,0.05340576171875,-53.7445068359375,60.6964111328125
1663861840416283100,26.798283203125,0.53863525390625,-52.52227783203125,61.3128662109375
1663861840436272000,26.818272216796874,1.1444091796875,-52.68402099609375,59.94110107421875
1663861840456230700,26.838230712890624,0.39215087890625,-52.22930908203125,59.942626953125
1663861840476250000,26.85825,-0.71563720703125,-54.052734375,60.38970947265625
1663861840496239000,26.878239013671877,0.03662109375,-54.50439453125,60.693359375
1663861840516228000,26.89822802734375,0.946044921875,-54.67071533203125,58.71124267578125
1663861840536217000,26.918217041015627,0.3570556640625,-53.74908447265625,59.93499755859375
1663861840556206000,26.9382060546875,0.03509521484375,-54.5196533203125,58.86383056640625
1663861840576195000,26.958195068359377,0.35247802734375,-54.046630859375,60.69488525390625
1663861840596184000,26.97818408203125,0.50048828125,-54.19769287109375,60.84747314453125
1663861840616173300,26.99817333984375,1.4190673828125,-54.04510498046875,60.6964111328125
1663861840636162300,27.018162353515624,0.33416748046875,-54.81414794921875,59.92889404296875
1663861840656151300,27.0381513671875,1.74560546875,-53.131103515625,60.85357666015625
1663861840676170800,27.058170654296877,1.26190185546875,-54.2083740234375,59.4757080078125
1663861840696129300,27.07812939453125,0.823974609375,-53.43475341796875,61.15570068359375
1663861840716087800,27.098087890625,0.3509521484375,-54.0557861328125,59.6282958984375
1663861840736107300,27.118107177734377,0.78277587890625,-55.12847900390625,58.55712890625
