time,seconds_elapsed,z,y,x
1663861813830933800,0.212933837890625,-43.67218017578125,-24.114990234375,19.2657470703125
1663861813850908700,0.23290869140625,-44.55718994140625,-22.88970947265625,20.64208984375
1663861813870867200,0.2528671875,-45.10650634765625,-20.1629638671875,19.74029541015625
1663861813890886700,0.27288671875,-45.56884765625,-20.33233642578125,17.7581787109375
1663861813910845200,0.29284521484375,-47.41668701171875,-21.099853515625,17.2943115234375
1663861813930864600,0.31286474609375,-44.37103271484375,-21.2493896484375,16.839599609375
1663861813950853600,0.332853515625,-45.43304443359375,-20.953369140625,16.07818603515625
1663861813970843000,0.3528427734375,-44.97222900390625,-20.80230712890625,15.9271240234375
1663861813990831900,0.372831787109375,-44.71282958984375,-22.78594970703125,15.00396728515625
1663861814010820900,0.39282080078125,-47.4151611328125,-20.83282470703125,12.87689208984375
1663861814030809900,0.412809814453125,-47.40142822265625,-20.3582763671875,15.1641845703125
1663861814050798800,0.432798828125,-45.452880859375,-21.73614501953125,13.48419189453125
1663861814070787800,0.452787841796875,-47.1343994140625,-21.905517578125,11.80419921875
1663861814090746400,0.472746337890625,-46.8292236328125,-21.9024658203125,12.109375
1663861814110765800,0.492765869140625,-46.56219482421875,-23.5748291015625,11.94915771484375
1663861814130754800,0.5127548828125,-46.24176025390625,-22.82257080078125,10.88714599609375
1663861814150743800,0.532743896484375,-46.54693603515625,-22.8302001953125,10.12420654296875
1663861814170732800,0.55273291015625,-47.3175048828125,-23.1414794921875,9.3597412109375
1663861814190721800,0.5727216796875,-46.37451171875,-21.91925048828125,9.9761962890625
1663861814210711000,0.5927109375,-46.82159423828125,-21.466064453125,9.674072265625
1663861814230700000,0.612699951171875,-44.96917724609375,-20.40252685546875,9.22393798828125
1663861814250963700,0.632963623046875,-47.25189208984375,-20.2545166015625,9.37347412109375
1663861814270891500,0.6528916015625,-47.53265380859375,-19.19403076171875,9.07440185546875
1663861814290667000,0.6726669921875,-46.78497314453125,-19.805908203125,8.4625244140625
1663861814310656000,0.692656005859375,-48.01483154296875,-20.25909423828125,9.06829833984375
1663861814330675500,0.712675537109375,-47.54180908203125,-19.5098876953125,7.54852294921875
1663861814350634000,0.732634033203125,-48.1597900390625,-19.82574462890625,6.32781982421875
1663861814370653400,0.7526533203125,-48.03619384765625,-21.04949951171875,5.40618896484375
1663861814390642700,0.772642578125,-47.49755859375,-24.10888671875,2.9541015625
1663861814410601000,0.79260107421875,-47.50823974609375,-24.560546875,3.4088134765625
1663861814430590000,0.81258984375,-46.27685546875,-23.968505859375,1.28021240234375
1663861814450580700,0.832580810546875,-46.2738037109375,-23.69384765625,-2.3773193359375
1663861814470569700,0.85256982421875,-45.513916015625,-23.71673583984375,-5.27191162109375
1663861814490559000,0.87255908203125,-43.72100830078125,-25.12969970703125,-11.06719970703125
1663861814510548000,0.8925478515625,-40.234375,-25.91094970703125,-14.42108154296875
1663861814530537000,0.912536865234375,-38.616943359375,-28.37066650390625,-18.2403564453125
1663861814550526000,0.93252587890625,-37.53662109375,-27.6458740234375,-22.65625
1663861814570515000,0.952514892578125,-34.89837646484375,-25.40130615234375,-27.36663818359375
1663861814590504000,0.97250390625,-31.4544677734375,-21.319580078125,-30.84716796875
1663861814610584600,0.99258447265625,-29.39605712890625,-17.852783203125,-34.7900390625
1663861814630482000,1.01248193359375,-26.58843994140625,-14.85443115234375,-40.411376953125
1663861814650471000,1.032470947265625,-23.101806640625,-9.06829833984375,-39.92156982421875
1663861814670460000,1.0524599609375,-19.95086669921875,-4.5196533203125,-42.02880859375
1663861814690449000,1.072448974609375,-18.47991943359375,-0.1190185546875,-43.072509765625
1663861814710438000,1.09243798828125,-15.2496337890625,1.10321044921875,-43.2159423828125
1663861814730427100,1.11242724609375,-14.7216796875,4.2877197265625,-44.1131591796875
1663861814750416100,1.132416015625,-12.53814697265625,6.42242431640625,-43.7957763671875
1663861814770405000,1.152405029296875,-10.09521484375,6.56890869140625,-45.01190185546875
1663861814790394000,1.17239404296875,-9.91058349609375,7.94525146484375,-44.09027099609375
1663861814810383000,1.192383056640625,-10.07080078125,7.635498046875,-44.7021484375
1663861814830372000,1.2123720703125,-7.6324462890625,7.6385498046875,-45.0042724609375
1663861814850330600,1.23233056640625,-6.744384765625,6.42547607421875,-44.85626220703125
1663861814870350000,1.25235009765625,-6.26220703125,7.49053955078125,-44.85015869140625
1663861814890339000,1.272339111328125,-4.74853515625,7.03582763671875,-45.00274658203125
1663861814910297600,1.292297607421875,-6.1065673828125,7.6416015625,-45.00274658203125
1663861814930317000,1.312317138671875,-4.2999267578125,6.58721923828125,-44.24285888671875
1663861814950306000,1.33230615234375,-3.7872314453125,9.0240478515625,-43.77288818359375
1663861814970295300,1.35229541015625,-5.00335693359375,9.1705322265625,-44.23065185546875
1663861814990284300,1.3722841796875,-1.45721435546875,10.86578369140625,-42.23785400390625
1663861815010669800,1.392669921875,0.08544921875,11.749267578125,-46.0418701171875
1663861815030262300,1.41226220703125,-2.178955078125,12.67242431640625,-44.0582275390625
1663861815050251300,1.432251220703125,0.21820068359375,10.84747314453125,-44.8272705078125
1663861815070270700,1.452270751953125,-1.31378173828125,10.54534912109375,-44.219970703125
1663861815090229200,1.472229248046875,0.87432861328125,12.8387451171875,-43.1396484375
1663861815110218200,1.49221826171875,3.6651611328125,14.825439453125,-42.51708984375
1663861815130543000,1.512543212890625,5.55572509765625,17.42401123046875,-41.13006591796875
1663861815150471000,1.532470947265625,6.8511962890625,20.7794189453125,-40.19775390625
1663861815170246400,1.552246337890625,5.1971435546875,21.7041015625,-38.214111328125
1663861815190205000,1.572204833984375,5.0994873046875,24.127197265625,-39.117431640625
1663861815210194000,1.59219384765625,6.19354248046875,25.2197265625,-36.0626220703125
1663861815230152400,1.61215234375,6.805419921875,25.36163330078125,-37.432861328125
1663861815250141400,1.632141357421875,5.0018310546875,26.42974853515625,-36.36322021484375
1663861815270130400,1.65213037109375,5.30548095703125,26.4251708984375,-36.9720458984375
1663861815290119400,1.672119384765625,8.1787109375,25.37078857421875,-36.66839599609375
1663861815310108400,1.6921083984375,6.365966796875,26.12457275390625,-36.9720458984375
1663861815330097400,1.712097412109375,6.3751220703125,26.446533203125,-34.83734130859375
1663861815350086400,1.73208642578125,7.62176513671875,27.6580810546875,-35.59112548828125
1663861815370075400,1.752075439453125,7.7545166015625,26.74713134765625,-35.443115234375
1663861815390064400,1.772064453125,8.55865478515625,28.5797119140625,-34.6710205078125
1663861815410053400,1.792053466796875,8.837890625,27.3834228515625,-32.391357421875
1663861815430042400,1.81204248046875,12.29248046875,31.6650390625,-30.07965087890625
1663861815450031600,1.832031494140625,14.5660400390625,30.94024658203125,-26.42364501953125
1663861815470051000,1.852051025390625,16.16363525390625,34.00421142578125,-23.968505859375
1663861815490009600,1.872009521484375,15.00091552734375,36.456298828125,-21.21429443359375
1663861815509998600,1.89199853515625,14.75830078125,39.06402587890625,-18.30596923828125
1663861815529987600,1.911987548828125,15.2313232421875,39.56298828125,-13.27362060546875
1663861815549976600,1.9319765625,13.8885498046875,40.79132080078125,-11.4410400390625
1663861815569996000,1.95199609375,13.29803466796875,41.56646728515625,-9.45587158203125
1663861815589954600,1.97195458984375,10.86578369140625,41.87469482421875,-8.39080810546875
1663861815609943600,1.991943603515625,9.5001220703125,42.04254150390625,-6.25762939453125
1663861815629932500,2.0119326171875,9.539794921875,43.85986328125,-7.01141357421875
1663861815649921500,2.031921630859375,10.26763916015625,42.34161376953125,-7.01751708984375
1663861815669910800,2.051910888671875,8.3099365234375,43.27392578125,-3.96728515625
1663861815689899800,2.071899658203125,10.125732421875,42.66357421875,-4.730224609375
1663861815709888800,2.091888671875,13.31024169921875,41.91436767578125,-4.2724609375
1663861815729877800,2.111877685546875,12.41455078125,42.8131103515625,-5.64117431640625
1663861815749866800,2.13186669921875,13.91754150390625,41.76788330078125,-3.81622314453125
1663861815769855700,2.151855712890625,17.11883544921875,41.76483154296875,-4.87823486328125
1663861815789844700,2.1718447265625,18.18084716796875,41.4764404296875,-3.35540771484375
1663861815809833700,2.191833740234375,17.852783203125,40.41900634765625,-2.59857177734375
1663861815829822700,2.21182275390625,18.91937255859375,40.4144287109375,-3.3599853515625
1663861815849811700,2.231811767578125,21.16241455078125,38.45062255859375,-2.45208740234375
1663861815869800700,2.25180078125,21.661376953125,40.27862548828125,-2.13775634765625
1663861815889789700,2.271789794921875,22.52197265625,37.85552978515625,-1.23443603515625
1663861815909779000,2.291779052734375,23.9227294921875,39.080810546875,-0.46539306640625
1663861815929768000,2.311767822265625,24.06158447265625,38.47198486328125,-0.6195068359375
1663861815949757000,2.3317568359375,23.89678955078125,37.87384033203125,0.59661865234375
1663861815969746000,2.351745849609375,25.52947998046875,35.906982421875,1.19781494140625
1663861815989735000,2.37173486328125,26.898193359375,35.62164306640625,3.02734375
1663861816009724000,2.391723876953125,26.44195556640625,35.760498046875,1.65557861328125
1663861816030018000,2.41201806640625,28.10516357421875,35.1531982421875,1.19781494140625
1663861816049793500,2.43179345703125,28.22418212890625,33.636474609375,1.64642333984375
1663861816069691000,2.45169091796875,29.31976318359375,34.991455078125,-0.1739501953125
1663861816089680000,2.471679931640625,29.45098876953125,34.075927734375,-0.634765625
1663861816109668900,2.4916689453125,30.9356689453125,32.25860595703125,-0.33721923828125
1663861816129657900,2.511657958984375,31.85882568359375,32.58056640625,1.64642333984375
1663861816149647000,2.531647216796875,32.27691650390625,30.8990478515625,0.41961669921875
1663861816169636000,2.551635986328125,33.477783203125,30.0048828125,2.09197998046875
1663861816189625000,2.571625,34.81292724609375,28.33404541015625,1.93328857421875
1663861816209614000,2.591614013671875,36.578369140625,25.45623779296875,2.6824951171875
1663861816229603000,2.61160302734375,36.12060546875,25.45623779296875,2.6824951171875
1663861816249592000,2.631592041015625,38.0584716796875,23.492431640625,3.5888671875
1663861816269581000,2.6515810546875,39.7064208984375,22.1405029296875,5.108642578125
1663861816289570000,2.671570068359375,39.923095703125,18.19915771484375,6.30950927734375
1663861816309559000,2.69155908203125,41.729736328125,17.1478271484375,7.373046875
1663861816329548000,2.711548095703125,41.66412353515625,14.2608642578125,7.3577880859375
1663861816349506600,2.731506591796875,42.6910400390625,12.4420166015625,7.65533447265625
1663861816369526000,2.751526123046875,44.0155029296875,10.32257080078125,8.4075927734375
1663861816389515300,2.771515380859375,44.1375732421875,8.9569091796875,8.5540771484375
1663861816409473500,2.7914736328125,43.89801025390625,5.1483154296875,7.6202392578125
1663861816429493200,2.8114931640625,45.5474853515625,3.93524169921875,7.464599609375
1663861816449482200,2.831482177734375,43.939208984375,0.2838134765625,7.44476318359375
1663861816469471200,2.85147119140625,43.487548828125,0.45013427734375,9.1217041015625
1663861816489460200,2.871460205078125,44.171142578125,-3.0426025390625,9.25750732421875
1663861816509449200,2.89144921875,44.4305419921875,-5.0201416015625,9.09576416015625
1663861816529407700,2.91140771484375,43.47686767578125,-6.7047119140625,7.71484375
1663861816549427200,2.93142724609375,45.5810546875,-8.05816650390625,8.929443359375
1663861816569416200,2.951416259765625,43.71185302734375,-9.87701416015625,9.9853515625
1663861816589405200,2.9714052734375,43.37921142578125,-10.96343994140625,7.3883056640625
1663861816609394200,2.991394287109375,43.4783935546875,-13.38043212890625,9.05303955078125
1663861816629383400,3.011383544921875,42.72918701171875,-12.77618408203125,8.90350341796875
1663861816649372400,3.031372314453125,43.13201904296875,-15.20233154296875,9.34906005859375
1663861816669361400,3.051361328125,42.852783203125,-14.1326904296875,10.11505126953125
1663861816689350400,3.071350341796875,42.54302978515625,-14.4195556640625,12.24822998046875
1663861816709339400,3.09133935546875,43.16864013671875,-13.67034912109375,10.88104248046875
1663861816729328400,3.111328369140625,43.30902099609375,-14.2578125,13.16375732421875
1663861816749317400,3.1313173828125,42.4102783203125,-13.51165771484375,11.7950439453125
1663861816769306400,3.151306396484375,43.2098388671875,-11.84539794921875,10.888671875
1663861816789295400,3.17129541015625,43.69354248046875,-10.63995361328125,9.5245361328125
1663861816809284400,3.191284423828125,43.5455322265625,-10.48126220703125,10.43853759765625
1663861816829273300,3.2112734375,44.33135986328125,-9.42535400390625,9.3780517578125
1663861816849262600,3.2312626953125,43.09234619140625,-10.3179931640625,11.81182861328125
1663861816869220900,3.251220947265625,43.85986328125,-10.02655029296875,10.13641357421875
1663861816889240600,3.271240478515625,43.98040771484375,-11.4044189453125,8.9111328125
1663861816909473500,3.2914736328125,44.43359375,-11.69281005859375,10.7391357421875
1663861816929371100,3.31137109375,43.6767578125,-11.39678955078125,9.97772216796875
1663861816949207600,3.33120751953125,43.975830078125,-11.6973876953125,10.2813720703125
1663861816969196500,3.351196533203125,44.281005859375,-11.55853271484375,8.60595703125
1663861816989185500,3.371185546875,44.45648193359375,-10.638427734375,9.5245361328125
1663861817009205000,3.391205078125,43.9971923828125,-10.64453125,8.9141845703125
1663861817029194000,3.411194091796875,44.73419189453125,-11.71722412109375,7.69195556640625
1663861817049152500,3.431152587890625,46.09222412109375,-12.33062744140625,6.77490234375
1663861817069172200,3.451172119140625,45.2178955078125,-10.64300537109375,8.91571044921875
1663861817089161200,3.4711611328125,44.305419921875,-10.49957275390625,8.001708984375
1663861817109150200,3.491150146484375,44.3145751953125,-10.05401611328125,6.7840576171875
1663861817129139200,3.51113916015625,44.59075927734375,-11.27166748046875,6.47430419921875
1663861817149097700,3.53109765625,45.49713134765625,-11.71875,7.38677978515625
1663861817169117200,3.5511171875,43.51043701171875,-11.88507080078125,6.16455078125
1663861817189106200,3.571106201171875,43.3837890625,-10.68115234375,4.79888916015625
1663861817209064700,3.591064697265625,44.59075927734375,-11.279296875,5.71136474609375
1663861817229053700,3.6110537109375,44.55413818359375,-12.94097900390625,6.77032470703125
1663861817249042700,3.631042724609375,44.25506591796875,-12.646484375,5.70526123046875
1663861817269062100,3.651062255859375,44.732666015625,-11.73858642578125,5.2520751953125
1663861817289020700,3.671020751953125,44.88677978515625,-11.590576171875,4.64324951171875
1663861817309009700,3.691009765625,43.99566650390625,-10.66436767578125,6.62841796875
1663861817328999000,3.7109990234375,43.670654296875,-11.44256591796875,4.49066162109375
1663861817348988000,3.73098779296875,43.359375,-11.74468994140625,4.7943115234375
1663861817368977000,3.750976806640625,42.93060302734375,-10.51788330078125,6.170654296875
1663861817388966000,3.7709658203125,44.573974609375,-11.90185546875,3.88031005859375
1663861817408955000,3.790954833984375,44.45648193359375,-10.38665771484375,3.43017578125
1663861817428913400,3.810913330078125,44.85626220703125,-12.9608154296875,4.33197021484375
1663861817448932900,3.830932861328125,43.3807373046875,-10.6964111328125,2.97088623046875
1663861817468921900,3.850921875,43.65081787109375,-12.2222900390625,2.2003173828125
1663861817488910800,3.870910888671875,44.87762451171875,-11.91253662109375,2.508544921875
1663861817508899800,3.89089990234375,44.73724365234375,-11.4501953125,3.42559814453125
1663861817528888800,3.910888916015625,45.64971923828125,-11.58905029296875,4.644775390625
1663861817548847400,3.930847412109375,44.76165771484375,-10.3759765625,4.49676513671875
1663861817568867000,3.9508671875,45.33843994140625,-11.89422607421875,4.64324951171875
1663861817588856000,3.97085595703125,43.389892578125,-10.37750244140625,4.8004150390625
1663861817608814600,3.990814697265625,45.65582275390625,-11.2945556640625,3.5797119140625
1663861817628834000,4.010833984375,44.2779541015625,-11.58905029296875,4.94842529296875
1663861817648823000,4.030822998046875,43.9849853515625,-10.99853515625,2.9693603515625
1663861817668812000,4.05081201171875,43.79425048828125,-12.66937255859375,3.11279296875
1663861817688780500,4.070780517578125,43.63861083984375,-12.8143310546875,4.02679443359375
1663861817708769500,4.09076953125,45.3277587890625,-12.3504638671875,4.64019775390625
1663861817728758500,4.110758544921875,44.43206787109375,-11.4501953125,3.42559814453125
1663861817748717000,4.130717041015625,44.40765380859375,-12.51983642578125,2.6580810546875
1663861817768736800,4.15073681640625,44.59686279296875,-10.8489990234375,2.51312255859375
1663861817789000400,4.17100048828125,44.88677978515625,-11.5966796875,3.8818359375
1663861817808928300,4.19092822265625,45.67413330078125,-10.528564453125,4.345703125
1663861817828703700,4.210703857421875,45.32012939453125,-12.66021728515625,3.87725830078125
1663861817848692700,4.230692626953125,45.66497802734375,-10.84442138671875,2.81982421875
1663861817868681700,4.250681640625,43.37615966796875,-10.98785400390625,4.4921875
1663861817888670700,4.270670654296875,44.30084228515625,-10.5316162109375,4.34417724609375
1663861817908659700,4.29065966796875,44.7479248046875,-10.98480224609375,4.49371337890625
1663861817928618200,4.3106181640625,45.5169677734375,-10.69183349609375,2.972412109375
1663861817948637700,4.3306376953125,45.17059326171875,-12.5091552734375,3.72467041015625
1663861817968626700,4.350626708984375,46.270751953125,-10.99700927734375,2.667236328125
1663861817988615700,4.37061572265625,44.76165771484375,-10.38360595703125,3.7353515625
1663861818008605000,4.39060498046875,45.2362060546875,-9.6221923828125,3.73992919921875
1663861818028594000,4.410593994140625,44.86083984375,-12.6708984375,2.80914306640625
1663861818048583000,4.4305830078125,43.34716796875,-12.2100830078125,3.72467041015625
1663861818068572000,4.450572021484375,45.21942138671875,-10.382080078125,3.7353515625
1663861818088561000,4.470560791015625,44.31304931640625,-10.06927490234375,4.9560546875
1663861818108550000,4.4905498046875,43.83697509765625,-10.83984375,3.8848876953125
1663861818128508400,4.51050830078125,45.2056884765625,-10.98785400390625,4.0374755859375
1663861818148527900,4.53052783203125,45.8038330078125,-11.4532470703125,2.6641845703125
1663861818168516900,4.550516845703125,44.476318359375,-9.60845947265625,5.56793212890625
1663861818188505900,4.570505859375,44.27032470703125,-11.8988037109375,4.3365478515625
1663861818208494800,4.590494873046875,43.2159423828125,-11.29913330078125,3.57666015625
1663861818228484000,4.610484130859375,44.59991455078125,-10.83221435546875,4.6478271484375
1663861818248473000,4.63047314453125,44.29473876953125,-10.82916259765625,4.95147705078125
1663861818268462000,4.650462158203125,42.73834228515625,-12.2039794921875,4.486083984375
1663861818288451000,4.670451171875,45.68328857421875,-10.0830078125,3.1280517578125
1663861818308440000,4.690440185546875,43.81256103515625,-11.90338134765625,3.8787841796875
1663861818328429000,4.710428955078125,44.73724365234375,-11.4501953125,3.42559814453125
1663861818348418000,4.73041796875,46.12274169921875,-10.8367919921875,3.582763671875
1663861818368407000,4.750406982421875,44.75250244140625,-10.699462890625,2.20947265625
1663861818388396000,4.77039599609375,44.879150390625,-11.907958984375,3.118896484375
1663861818408385000,4.790385009765625,46.12884521484375,-10.53924560546875,2.82135009765625
1663861818428374000,4.8103740234375,44.415283203125,-12.20703125,3.7261962890625
1663861818448332500,4.83033251953125,44.4671630859375,-9.930419921875,3.43170166015625
1663861818468352300,4.850352294921875,45.4986572265625,-11.45477294921875,2.6641845703125
1663861818488341200,4.87034130859375,44.549560546875,-12.9730224609375,3.11279296875
1663861818508330200,4.890330322265625,44.622802734375,-9.7808837890625,3.1280517578125
1663861818528319200,4.9103193359375,45.2056884765625,-10.98785400390625,4.0374755859375
1663861818548308200,4.93030810546875,43.0694580078125,-11.00311279296875,2.6641845703125
1663861818568297200,4.950297119140625,44.7601318359375,-10.39276123046875,2.66876220703125
1663861818588286200,4.9702861328125,44.62127685546875,-9.78240966796875,2.82440185546875
1663861818608244700,4.99024462890625,44.02618408203125,-9.16900634765625,3.73992919921875
1663861818628264200,5.01026416015625,44.573974609375,-11.907958984375,3.11737060546875
1663861818648253200,5.030253173828125,45.5230712890625,-10.38818359375,2.97393798828125
1663861818668578000,5.050578125,44.000244140625,-10.3759765625,4.80194091796875
1663861818688475400,5.070475341796875,43.017578125,-13.27667236328125,3.4149169921875
1663861818708251000,5.0902509765625,46.600341796875,-9.92889404296875,2.97698974609375
1663861818728209400,5.11020947265625,44.5892333984375,-11.2945556640625,3.88336181640625
1663861818748228900,5.130228759765625,44.90966796875,-10.54229736328125,2.81982421875
1663861818768187400,5.1501875,45.477294921875,-12.5,4.79278564453125
1663861818788146000,5.17014599609375,44.30084228515625,-10.5316162109375,4.34417724609375
1663861818808165400,5.190165283203125,45.4925537109375,-11.7462158203125,4.034423828125
1663861818828154400,5.210154296875,45.19500732421875,-11.444091796875,4.03594970703125
1663861818848173800,5.230173828125,45.5230712890625,-10.38360595703125,3.43170166015625
1663861818868132400,5.25013232421875,46.73919677734375,-10.53924560546875,2.8228759765625
1663861818888152000,5.270152099609375,45.32012939453125,-12.65716552734375,4.33502197265625
1663861818908110300,5.2901103515625,45.1873779296875,-11.7523193359375,3.424072265625
1663861818928099300,5.310099365234375,44.73724365234375,-11.4532470703125,2.96783447265625
1663861818948088600,5.330088623046875,43.53179931640625,-10.8367919921875,4.34112548828125
1663861818968077600,5.35007763671875,43.5150146484375,-11.5936279296875,4.6417236328125
1663861818988036000,5.3700361328125,43.95751953125,-12.20550537109375,4.02984619140625
1663861819008055600,5.3900556640625,45.65582275390625,-11.29150390625,3.8848876953125
1663861819028044500,5.41004443359375,44.60601806640625,-10.53009033203125,4.34417724609375
1663861819048003000,5.430003173828125,44.4549560546875,-10.39886474609375,1.90582275390625
1663861819068022500,5.4500224609375,46.12274169921875,-10.84442138671875,2.81982421875
1663861819088011500,5.470011474609375,44.43359375,-11.4410400390625,4.4921875
1663861819108000500,5.49000048828125,45.7977294921875,-11.75537109375,2.96783447265625
1663861819127989500,5.509989501953125,43.8262939453125,-11.29608154296875,3.8818359375
1663861819147978500,5.529978515625,46.881103515625,-11.00006103515625,2.21099853515625
1663861819167967500,5.549967529296875,45.78094482421875,-12.51068115234375,3.4210205078125
1663861819187956700,5.569956787109375,45.19500732421875,-11.444091796875,4.03594970703125
1663861819207945700,5.58994580078125,45.67108154296875,-10.546875,2.0599365234375
1663861819227934700,5.609934814453125,44.46563720703125,-9.9334716796875,2.9754638671875
1663861819247923700,5.629923828125,44.42596435546875,-11.7523193359375,3.72772216796875
1663861819267912700,5.64991259765625,45.35980224609375,-10.8428955078125,3.12347412109375
1663861819287901700,5.669901611328125,45.5230712890625,-10.394287109375,2.2125244140625
1663861819307890700,5.689890625,44.4244384765625,-11.75994873046875,2.6611328125
1663861819327879700,5.709879638671875,43.646240234375,-12.5152587890625,3.41949462890625
1663861819347868700,5.72986865234375,44.90203857421875,-10.8489990234375,2.5146484375
1663861819367857700,5.749857666015625,43.65081787109375,-12.21771240234375,2.6580810546875
1663861819387846700,5.7698466796875,44.29168701171875,-10.85052490234375,2.51312255859375
1663861819407835600,5.789835693359375,43.71185302734375,-9.6160888671875,4.80499267578125
1663861819427825000,5.809824951171875,46.10595703125,-11.5966796875,3.57818603515625
1663861819447814000,5.82981396484375,44.268798828125,-11.9049072265625,3.57513427734375
1663861819467803000,5.849802978515625,45.22857666015625,-9.93499755859375,2.67181396484375
1663861819487791900,5.8697919921875,43.9849853515625,-10.99853515625,2.9693603515625
1663861819507780900,5.88978076171875,43.81256103515625,-11.90643310546875,3.57513427734375
1663861819527769900,5.909769775390625,45.8160400390625,-10.986328125,4.03900146484375
1663861819547758800,5.9297587890625,42.73681640625,-12.22076416015625,2.65655517578125
1663861819568083500,5.95008349609375,46.12274169921875,-10.84136962890625,3.125
1663861819587828500,5.969828369140625,45.63140869140625,-12.36419677734375,2.81219482421875
1663861819607725800,5.989725830078125,46.13037109375,-10.53314208984375,3.58428955078125
1663861819627714800,6.00971484375,43.865966796875,-9.478759765625,3.12957763671875
1663861819647704000,6.0297041015625,44.268798828125,-11.9049072265625,3.57513427734375
1663861819667693000,6.049693115234375,43.66302490234375,-11.75537109375,3.42254638671875
1663861819687651300,6.0696513671875,45.39031982421875,-9.48638916015625,1.75933837890625
1663861819707671000,6.089671142578125,43.9849853515625,-10.99853515625,2.9693603515625
1663861819727660000,6.109659912109375,44.27642822265625,-11.60430908203125,3.118896484375
1663861819747679500,6.129679443359375,45.855712890625,-9.173583984375,2.6763916015625
1663861819767638000,6.149637939453125,44.75250244140625,-10.699462890625,2.20947265625
1663861819787627000,6.169626953125,44.90814208984375,-10.54840087890625,2.05841064453125
1663861819807616000,6.189615966796875,45.5169677734375,-10.68572998046875,3.7353515625
1663861819827605000,6.20960498046875,44.90966796875,-10.54534912109375,2.51617431640625
1663861819847594000,6.229593994140625,44.40155029296875,-12.81585693359375,3.72314453125
1663861819867583000,6.2495830078125,46.3043212890625,-9.613037109375,4.50286865234375
1663861819887572200,6.269572265625,44.573974609375,-11.907958984375,3.11737060546875
1663861819907561200,6.289561279296875,43.99261474609375,-10.68878173828125,3.7322998046875
1663861819927550200,6.30955029296875,44.7723388671875,-9.92889404296875,3.4332275390625
1663861819947539200,6.329539306640625,46.2860107421875,-10.38055419921875,3.73687744140625
1663861819967528200,6.349528076171875,45.52001953125,-10.66436767578125,6.3262939453125
1663861819987517200,6.36951708984375,44.46563720703125,-9.942626953125,1.90887451171875
1663861820007506200,6.389506103515625,46.57745361328125,-10.99395751953125,2.972412109375
1663861820027495200,6.4094951171875,45.38421630859375,-9.783935546875,2.51922607421875
1663861820047484200,6.429484130859375,45.19500732421875,-11.44561767578125,3.73077392578125
1663861820067442700,6.449442626953125,46.10595703125,-11.59515380859375,3.88336181640625
1663861820087462100,6.469462158203125,43.50738525390625,-11.90643310546875,3.5736083984375
1663861820107451100,6.489451171875,44.7540283203125,-10.687255859375,3.73382568359375
1663861820127409700,6.50940966796875,45.52459716796875,-10.3729248046875,4.803466796875
1663861820147429400,6.529429443359375,44.8883056640625,-11.58905029296875,4.94842529296875
1663861820167418400,6.54941845703125,45.36285400390625,-10.821533203125,5.71441650390625
1663861820187377000,6.569376953125,46.099853515625,-11.89422607421875,4.339599609375
1663861820207396400,6.589396240234375,46.26312255859375,-11.43798828125,4.49371337890625
1663861820227385300,6.60938525390625,43.9697265625,-11.7401123046875,5.2520751953125
1663861820247343900,6.62934375,43.9453125,-12.80364990234375,5.2459716796875
1663861820267363300,6.64936328125,43.33648681640625,-12.8021240234375,5.5511474609375
1663861820287352300,6.669352294921875,43.07098388671875,-10.99395751953125,3.73077392578125
1663861820307341300,6.68934130859375,44.384765625,-13.56964111328125,4.48150634765625
1663861820327330300,6.709330322265625,45.17059326171875,-12.5091552734375,3.72467041015625
1663861820347319300,6.7293193359375,44.86236572265625,-12.6617431640625,3.87725830078125
1663861820367308500,6.74930859375,44.57550048828125,-11.8927001953125,4.9468994140625
1663861820387297500,6.769297607421875,45.63140869140625,-12.35504150390625,3.8787841796875
1663861820407256000,6.789256103515625,43.5150146484375,-11.5936279296875,4.6417236328125
1663861820427275500,6.809275634765625,45.46966552734375,-12.80670166015625,4.486083984375
1663861820447539200,6.829539306640625,44.8699951171875,-12.3565673828125,3.8787841796875
1663861820467406000,6.849406005859375,44.91119384765625,-10.53009033203125,4.34417724609375
1663861820487242500,6.869242431640625,43.377685546875,-10.97869873046875,5.560302734375
1663861820507231500,6.8892314453125,45.684814453125,-10.07232666015625,4.34722900390625
1663861820527220500,6.909220458984375,46.099853515625,-11.89422607421875,4.339599609375
1663861820547209500,6.92920947265625,45.1873779296875,-11.749267578125,3.729248046875
1663861820567229200,6.949229248046875,44.27642822265625,-11.60430908203125,3.118896484375
1663861820587187500,6.9691875,45.8282470703125,-10.38055419921875,3.73687744140625
1663861820607146000,6.98914599609375,45.76416015625,-13.26904296875,3.72161865234375
1663861820627165700,7.009165771484375,45.35064697265625,-11.29913330078125,3.1219482421875
1663861820647154700,7.02915478515625,43.51654052734375,-11.5875244140625,5.4046630859375
1663861820667113200,7.04911328125,44.769287109375,-9.942626953125,1.90887451171875
1663861820687132700,7.069132568359375,43.206787109375,-11.61651611328125,2.05078125
1663861820707121700,7.08912158203125,43.81866455078125,-11.6058349609375,3.118896484375
1663861820727110700,7.109110595703125,46.099853515625,-11.8988037109375,3.8818359375
1663861820747099600,7.129099609375,43.96820068359375,-11.7523193359375,3.72772216796875
1663861820767088600,7.149088623046875,43.0938720703125,-9.9395751953125,2.66876220703125
1663861820787077600,7.16907763671875,43.06793212890625,-11.00921630859375,1.9012451171875
1663861820807066600,7.189066650390625,45.17822265625,-12.2039794921875,4.0313720703125
1663861820827055900,7.209055908203125,43.6798095703125,-11.00006103515625,2.9693603515625
1663861820847044900,7.229044921875,46.09832763671875,-11.9049072265625,3.12042236328125
1663861820867033900,7.249033935546875,44.89288330078125,-11.30218505859375,2.8167724609375
1663861820887022800,7.26902294921875,45.35064697265625,-11.29913330078125,3.1219482421875
1663861820907011800,7.28901171875,45.6298828125,-12.37030029296875,2.05078125
1663861820927000800,7.309000732421875,45.32623291015625,-12.3626708984375,3.11737060546875
1663861820946989800,7.32898974609375,43.93157958984375,-13.29193115234375,1.434326171875
1663861820966978800,7.348978759765625,45.64361572265625,-11.8927001953125,4.64324951171875
1663861820986937300,7.368937255859375,43.83544921875,-10.85052490234375,2.51312255859375
1663861821006956800,7.388956787109375,44.4244384765625,-11.75384521484375,3.424072265625
1663861821026945800,7.40894580078125,44.598388671875,-10.84136962890625,3.58123779296875
1663861821046934800,7.428934814453125,44.281005859375,-11.3128662109375,1.7486572265625
1663861821066924000,7.448924072265625,45.33538818359375,-11.90948486328125,2.813720703125
1663861821086913000,7.4689130859375,43.94378662109375,-12.823486328125,2.960205078125
1663861821106902000,7.488902099609375,44.5648193359375,-12.35809326171875,3.87725830078125
1663861821126891000,7.50889111328125,45.32623291015625,-12.36572265625,2.81219482421875
1663861821146880000,7.5288798828125,45.1507568359375,-13.28887939453125,1.43585205078125
1663861821166869000,7.548868896484375,43.4722900390625,-13.4307861328125,3.1097412109375
1663861821186858000,7.56885791015625,44.2840576171875,-11.2945556640625,3.88336181640625
1663861821206847000,7.588846923828125,45.1873779296875,-11.75689697265625,2.96783447265625
1663861821226836000,7.6088359375,43.82476806640625,-11.3067626953125,2.51007080078125
1663861821246825000,7.628824951171875,46.392822265625,-12.36114501953125,3.11737060546875
1663861821266814000,7.64881396484375,44.7113037109375,-12.52593994140625,1.89666748046875
1663861821286803000,7.668802978515625,46.417236328125,-11.29913330078125,2.81829833984375
1663861821306792200,7.688792236328125,43.81103515625,-11.91253662109375,2.81219482421875
1663861821327056000,7.709055908203125,44.6136474609375,-10.09368896484375,2.0599365234375
1663861821346983700,7.728983642578125,46.42791748046875,-10.84136962890625,3.125
1663861821366759200,7.74875927734375,44.561767578125,-12.37335205078125,2.04925537109375
1663861821386778600,7.768778564453125,44.7357177734375,-11.46240234375,1.9012451171875
1663861821406737200,7.788737060546875,45.2972412109375,-13.7176513671875,4.63409423828125
1663861821426695700,7.80869580078125,44.5587158203125,-12.6556396484375,4.638671875
1663861821446715100,7.828715087890625,45.3369140625,-11.90338134765625,3.57666015625
1663861821466704100,7.8487041015625,45.17059326171875,-12.5091552734375,3.72467041015625
1663861821486693000,7.868693115234375,44.58770751953125,-11.29608154296875,3.57818603515625
1663861821506682000,7.88868212890625,45.78094482421875,-12.5091552734375,3.7261962890625
1663861821526671000,7.908671142578125,44.27032470703125,-11.8988037109375,4.3365478515625
1663861821546660400,7.928660400390625,45.2178955078125,-10.3912353515625,2.66876220703125
1663861821566649300,7.9486494140625,44.69757080078125,-13.26446533203125,4.4830322265625
1663861821586638300,7.968638427734375,43.50738525390625,-11.90643310546875,3.5736083984375
1663861821606627300,7.98862744140625,45.672607421875,-10.53466796875,3.582763671875
1663861821626616300,8.0086162109375,43.4967041015625,-12.359619140625,3.87725830078125
1663861821646605300,8.028605224609375,45.35064697265625,-11.2945556640625,3.5797119140625
1663861821666594300,8.04859423828125,45.17669677734375,-12.21160888671875,2.96478271484375
1663861821686552800,8.068552734375,44.244384765625,-12.97760009765625,2.50244140625
1663861821706572300,8.088572265625,45.78704833984375,-12.20703125,3.42254638671875
1663861821726561300,8.108561279296875,46.08306884765625,-12.65869140625,3.8787841796875
1663861821746550300,8.12855029296875,45.6268310546875,-12.646484375,5.401611328125
1663861821766539300,8.148539306640625,44.3084716796875,-10.09368896484375,2.0599365234375
1663861821786528500,8.168528564453124,44.76165771484375,-10.3851318359375,3.43017578125
1663861821806517500,8.188517578125,43.68743896484375,-10.687255859375,4.0374755859375
1663861821826506500,8.208506591796874,44.4091796875,-12.50457763671875,4.486083984375
1663861821846495500,8.22849560546875,43.97430419921875,-11.45172119140625,3.424072265625
1663861821866484500,8.248484375,45.47576904296875,-12.5030517578125,4.48760986328125
1663861821886473500,8.268473388671875,43.94989013671875,-12.5152587890625,3.41949462890625
1663861821906462500,8.28846240234375,43.94989013671875,-12.5152587890625,3.41949462890625
1663861821926421000,8.3084208984375,44.42596435546875,-11.7523193359375,3.72772216796875
1663861821946440400,8.3284404296875,46.435546875,-10.53314208984375,3.58428955078125
1663861821966429400,8.348429443359375,43.85223388671875,-10.0860595703125,3.12652587890625
1663861821986388000,8.368387939453125,44.88677978515625,-11.5936279296875,4.339599609375
1663861822006407700,8.38840771484375,44.58770751953125,-11.29608154296875,3.57818603515625
1663861822026396700,8.408396728515624,44.24591064453125,-12.96234130859375,4.33197021484375
1663861822046355000,8.42835498046875,44.73876953125,-11.4410400390625,4.4921875
1663861822066374700,8.448374755859374,43.94378662109375,-12.8143310546875,4.02679443359375
1663861822086363600,8.46836376953125,45.4681396484375,-12.81585693359375,3.41949462890625
1663861822106352600,8.4883525390625,44.43206787109375,-11.44561767578125,4.034423828125
1663861822126341600,8.508341552734375,46.075439453125,-12.96234130859375,3.87725830078125
1663861822146330600,8.52833056640625,44.7479248046875,-10.99395751953125,3.4271240234375
1663861822166319600,8.548319580078125,44.7296142578125,-11.75689697265625,2.96630859375
1663861822186308600,8.56830859375,45.3033447265625,-13.41094970703125,4.9407958984375
1663861822206633500,8.588633544921874,44.5892333984375,-11.285400390625,4.949951171875
1663861822226561300,8.608561279296875,45.1690673828125,-12.518310546875,2.6580810546875
1663861822246336800,8.628336669921875,44.72198486328125,-12.1978759765625,4.79278564453125
1663861822266264800,8.648264892578124,46.11358642578125,-11.28387451171875,4.64630126953125
1663861822286253800,8.66825390625,43.77593994140625,-13.43536376953125,2.4993896484375
1663861822306242800,8.688242919921874,43.670654296875,-11.4471435546875,4.034423828125
1663861822326231800,8.708231689453125,43.98651123046875,-10.986328125,4.49371337890625
1663861822346220800,8.728220703125,44.879150390625,-11.90338134765625,3.57513427734375
1663861822366209800,8.748209716796875,44.2596435546875,-12.35198974609375,4.64019775390625
1663861822386198800,8.76819873046875,43.9453125,-12.80975341796875,4.48455810546875
1663861822406187800,8.788187744140625,43.95904541015625,-12.20245361328125,4.48760986328125
1663861822426176800,8.8081767578125,44.580078125,-11.60736083984375,2.81524658203125
1663861822446165800,8.828165771484375,44.90509033203125,-10.833740234375,4.3426513671875
1663861822466154800,8.84815478515625,44.86846923828125,-12.3687744140625,2.50701904296875
1663861822486144000,8.86814404296875,43.8201904296875,-11.5936279296875,4.64324951171875
1663861822506133000,8.888133056640624,45.17059326171875,-12.51678466796875,2.9632568359375
1663861822526122000,8.9081220703125,45.64208984375,-11.895751953125,4.33807373046875
1663861822546111000,8.928111083984374,44.57550048828125,-11.8927001953125,4.9468994140625
1663861822566100000,8.948099853515625,45.17822265625,-12.2039794921875,4.0313720703125
1663861822586058500,8.96805859375,45.18890380859375,-11.74774169921875,4.034423828125
1663861822606078000,8.988077880859375,44.43206787109375,-11.44561767578125,4.034423828125
1663861822626067000,9.00806689453125,46.246337890625,-12.1978759765625,4.49066162109375
1663861822646056000,9.028055908203125,43.81561279296875,-11.88201904296875,6.4697265625
1663861822666045000,9.048044921875,44.73114013671875,-11.75079345703125,3.729248046875
1663861822686034000,9.068033935546875,44.27032470703125,-11.895751953125,4.6417236328125
1663861822706023000,9.08802294921875,45.78857421875,-12.1917724609375,5.2520751953125
1663861822726012200,9.10801220703125,45.37811279296875,-10.0860595703125,2.8228759765625
1663861822746001200,9.128001220703124,43.56231689453125,-9.4757080078125,3.5858154296875
1663861822765990100,9.147990234375,44.39239501953125,-13.262939453125,4.7882080078125
1663861822785979100,9.167979248046874,43.5089111328125,-11.89117431640625,5.40313720703125
1663861822805968100,9.187968017578125,43.670654296875,-11.4471435546875,4.034423828125
1663861822825957000,9.20795703125,45.2117919921875,-10.68878173828125,3.43017578125
1663861822845946000,9.227946044921875,45.33843994140625,-11.89422607421875,4.64324951171875
1663861822865935000,9.24793505859375,44.88067626953125,-11.89727783203125,4.33807373046875
1663861822885924000,9.267924072265625,45.63140869140625,-12.35809326171875,3.5736083984375
1663861822905913000,9.2879130859375,44.2596435546875,-12.35809326171875,3.87725830078125
1663861822925902000,9.307902099609375,42.77191162109375,-10.69183349609375,3.7322998046875
1663861822945891000,9.32789111328125,45.17822265625,-12.20550537109375,3.7261962890625
1663861822965880300,9.34788037109375,44.25506591796875,-12.646484375,5.70526123046875
1663861822985869300,9.367869384765624,44.4183349609375,-12.1856689453125,6.317138671875
1663861823005858300,9.3878583984375,43.95751953125,-12.20550537109375,4.02984619140625
1663861823025847300,9.407847412109374,44.2535400390625,-12.65869140625,4.33349609375
1663861823045836300,9.427836181640625,44.268798828125,-11.9049072265625,3.57513427734375
1663861823065794800,9.447794921875,45.76416015625,-13.2598876953125,4.78973388671875
1663861823085814300,9.467814208984375,45.4925537109375,-11.749267578125,3.729248046875
1663861823106139000,9.488138916015625,44.390869140625,-13.27362060546875,3.41644287109375
1663861823125914400,9.507914306640625,44.2535400390625,-12.6556396484375,4.638671875
1663861823145781200,9.52778125,44.5587158203125,-12.65869140625,4.33349609375
1663861823165739800,9.54773974609375,44.26116943359375,-12.34893798828125,4.94384765625
1663861823185759200,9.56775927734375,45.3521728515625,-11.279296875,5.40771484375
1663861823205748500,9.58774853515625,43.4906005859375,-12.65716552734375,4.63714599609375
1663861823225706800,9.607706787109375,44.26116943359375,-12.34893798828125,4.94384765625
1663861823245726500,9.6277265625,44.427490234375,-11.73858642578125,5.2520751953125
1663861823265685000,9.64768505859375,45.32623291015625,-12.3565673828125,3.8787841796875
1663861823285704400,9.667704345703125,44.73724365234375,-11.4471435546875,3.73077392578125
1663861823305693400,9.687693359375,46.05712890625,-13.72833251953125,3.11126708984375
1663861823325652000,9.70765185546875,46.26312255859375,-11.43798828125,4.49371337890625
1663861823345671400,9.72767138671875,43.66302490234375,-11.75079345703125,4.03289794921875
1663861823365660400,9.747660400390625,44.25811767578125,-12.36724853515625,2.8106689453125
1663861823385619000,9.767618896484375,45.2117919921875,-10.68572998046875,3.73382568359375
1663861823405638400,9.787638427734375,44.427490234375,-11.73858642578125,5.2520751953125
1663861823425627600,9.807627685546874,44.44427490234375,-10.9832763671875,4.79888916015625
1663861823445616600,9.82761669921875,44.2596435546875,-12.35198974609375,4.64019775390625
1663861823465605600,9.847605712890624,44.268798828125,-11.9110107421875,2.81219482421875
1663861823485594600,9.8675947265625,45.17822265625,-12.2039794921875,4.0313720703125
1663861823505583600,9.88758349609375,43.81103515625,-11.90948486328125,3.11737060546875
1663861823525572600,9.907572509765625,43.32275390625,-13.27972412109375,2.9571533203125
1663861823545561600,9.9275615234375,43.853759765625,-10.0738525390625,4.65087890625
1663861823565550600,9.947550537109375,45.4833984375,-12.19940185546875,4.4891357421875
1663861823585509000,9.967509033203125,44.73114013671875,-11.74468994140625,4.49066162109375
1663861823605528600,9.987528564453125,44.55108642578125,-12.96234130859375,4.33197021484375
1663861823625517600,10.007517578125,44.5892333984375,-11.28997802734375,4.339599609375
1663861823645506600,10.027506591796875,43.3349609375,-12.81585693359375,4.02679443359375
1663861823665495800,10.047495849609374,45.66802978515625,-10.82305908203125,5.4107666015625
1663861823685454000,10.0674541015625,44.2779541015625,-11.58905029296875,4.94842529296875
1663861823705473800,10.087473876953124,44.7296142578125,-11.75689697265625,2.96630859375
1663861823725462800,10.107462890625,44.57550048828125,-11.8988037109375,4.33807373046875
1663861823745421300,10.12742138671875,43.66302490234375,-11.75384521484375,3.72772216796875
1663861823765440800,10.147440673828125,44.69757080078125,-13.26446533203125,4.4830322265625
1663861823785429800,10.1674296875,43.4967041015625,-12.3565673828125,4.33349609375
1663861823805418800,10.187418701171875,43.65386962890625,-12.20245361328125,4.48760986328125
1663861823825407700,10.20740771484375,45.45745849609375,-13.2720947265625,3.41644287109375
1663861823845396700,10.227396728515625,44.403076171875,-12.80670166015625,4.78973388671875
1663861823865385700,10.2473857421875,44.70672607421875,-12.8143310546875,3.72314453125
1663861823885374700,10.267374755859375,43.33343505859375,-12.8173828125,3.72161865234375
1663861823905364000,10.287364013671874,43.4906005859375,-12.664794921875,3.875732421875
1663861823925353000,10.30735302734375,44.86236572265625,-12.6678466796875,3.11431884765625
1663861823945342000,10.327342041015624,45.63140869140625,-12.35809326171875,3.5736083984375
1663861823965331000,10.3473310546875,43.646240234375,-12.51068115234375,4.0283203125
1663861823985564200,10.367564208984374,45.16448974609375,-12.811279296875,4.0283203125
1663861824005461500,10.38746142578125,44.75555419921875,-10.68115234375,4.4952392578125
1663861824025328400,10.407328369140625,45.79925537109375,-11.74163818359375,4.4921875
1663861824045317400,10.4273173828125,45.31402587890625,-12.9608154296875,4.33349609375
1663861824065276000,10.44727587890625,45.3369140625,-11.90032958984375,3.88031005859375
1663861824085265000,10.467264892578125,43.48907470703125,-12.67242431640625,2.8076171875
1663861824105254000,10.48725390625,44.4244384765625,-11.75384521484375,3.424072265625
1663861824125243000,10.507242919921875,44.27642822265625,-11.59820556640625,3.8818359375
1663861824145232100,10.527232177734374,46.0906982421875,-12.34893798828125,4.6417236328125
1663861824165221000,10.54722119140625,45.49407958984375,-11.7431640625,4.4921875
1663861824185210000,10.567210205078124,44.68994140625,-13.568115234375,4.48150634765625
1663861824205168600,10.587168701171874,45.7916259765625,-12.176513671875,7.080078125
1663861824225188000,10.60718798828125,46.2371826171875,-12.51068115234375,3.42254638671875
1663861824245177000,10.627177001953125,43.81866455078125,-11.6058349609375,3.118896484375
1663861824265166000,10.647166015625,45.5108642578125,-10.9893798828125,3.73382568359375
1663861824285155000,10.667155029296875,44.86236572265625,-12.6617431640625,3.87725830078125
1663861824305144000,10.68714404296875,44.55108642578125,-12.96234130859375,4.33197021484375
1663861824325133000,10.707133056640625,45.7763671875,-12.79449462890625,5.85784912109375
1663861824345122000,10.7271220703125,44.71282958984375,-12.51068115234375,3.72467041015625
1663861824365111000,10.747111083984375,44.73114013671875,-11.75079345703125,3.729248046875
1663861824385100300,10.767100341796874,44.8699951171875,-12.34893798828125,4.94537353515625
1663861824405089300,10.78708935546875,43.94378662109375,-12.8143310546875,4.02679443359375
1663861824425078300,10.807078369140624,43.96820068359375,-11.749267578125,4.03289794921875
1663861824445067300,10.8270673828125,45.48492431640625,-12.1917724609375,5.25054931640625
1663861824465025800,10.84702587890625,45.5108642578125,-10.9893798828125,3.73382568359375
1663861824485045200,10.867045166015625,46.08154296875,-12.6678466796875,2.8106689453125
1663861824505034200,10.8870341796875,45.64361572265625,-11.8927001953125,4.64324951171875
1663861824525023200,10.907023193359375,45.78704833984375,-12.20703125,3.42254638671875
1663861824545012200,10.92701220703125,43.96820068359375,-11.7523193359375,3.72772216796875
1663861824565001200,10.947001220703125,44.73114013671875,-11.75079345703125,3.729248046875
1663861824584990200,10.966990234375,44.92950439453125,-9.76409912109375,4.95758056640625
1663861824604979500,10.9869794921875,45.64971923828125,-11.59210205078125,4.339599609375
1663861824624968400,11.006968505859374,44.549560546875,-12.9730224609375,3.11279296875
1663861824644957400,11.02695751953125,45.50018310546875,-11.44256591796875,4.03594970703125
1663861824664946400,11.046946533203124,44.2596435546875,-12.35809326171875,3.87725830078125
1663861824684935400,11.066935302734375,44.62432861328125,-9.76715087890625,4.65240478515625
1663861824704924400,11.08692431640625,44.87762451171875,-11.91253662109375,2.508544921875
1663861824724913400,11.106913330078125,44.40155029296875,-12.81280517578125,4.0283203125
1663861824744902400,11.12690234375,46.23870849609375,-12.49847412109375,4.79278564453125
1663861824764891400,11.146891357421875,46.13037109375,-10.53314208984375,3.58428955078125
1663861824784880400,11.16688037109375,44.854736328125,-12.96844482421875,3.570556640625
1663861824804869400,11.186869384765625,44.56329345703125,-12.36419677734375,3.1158447265625
1663861824824858400,11.2068583984375,44.8822021484375,-11.8865966796875,5.7098388671875
1663861824844847600,11.22684765625,46.4111328125,-11.5936279296875,3.88336181640625
1663861824865111000,11.247111083984375,44.43511962890625,-11.431884765625,5.55877685546875
1663861824885039000,11.2670390625,44.2779541015625,-11.58599853515625,5.4046630859375
1663861824904814600,11.286814697265624,45.166015625,-12.799072265625,5.55267333984375
1663861824924803600,11.306803466796875,43.9697265625,-11.7401123046875,5.2520751953125
1663861824944792600,11.32679248046875,44.8638916015625,-12.64801025390625,5.40008544921875
1663861824964781600,11.346781494140625,44.7479248046875,-10.98480224609375,4.49371337890625
1663861824984770600,11.3667705078125,44.8455810546875,-13.42315673828125,3.5675048828125
1663861825004759600,11.386759521484375,46.24481201171875,-12.200927734375,4.03289794921875
1663861825024718000,11.406718017578125,45.5902099609375,-14.18609619140625,3.10821533203125
1663861825044737500,11.426737548828125,43.951416015625,-12.5091552734375,4.0283203125
1663861825064726500,11.4467265625,44.91119384765625,-10.53619384765625,3.582763671875
1663861825084685000,11.46668505859375,44.71282958984375,-12.50762939453125,4.02984619140625
1663861825104704800,11.486704833984374,44.5892333984375,-11.28692626953125,4.644775390625
1663861825124693800,11.50669384765625,43.95751953125,-12.21160888671875,3.4210205078125
1663861825144682800,11.526682861328124,45.50018310546875,-11.44256591796875,4.03594970703125
1663861825164671700,11.546671630859375,45.6329345703125,-12.35198974609375,4.3365478515625
1663861825184660700,11.56666064453125,43.19305419921875,-12.3565673828125,4.33349609375
1663861825204649700,11.586649658203125,44.7296142578125,-11.75384521484375,3.424072265625
1663861825224638700,11.606638671875,45.19500732421875,-11.444091796875,4.03594970703125
1663861825244627700,11.626627685546875,45.1873779296875,-11.749267578125,3.729248046875
1663861825264616700,11.64661669921875,43.50738525390625,-11.9049072265625,3.8787841796875
1663861825284605700,11.666605712890625,43.5089111328125,-11.895751953125,4.94537353515625
1663861825304594700,11.6865947265625,43.7957763671875,-12.66021728515625,4.33197021484375
1663861825324584000,11.706583984375,45.63140869140625,-12.35809326171875,3.5736083984375
1663861825344573000,11.726572998046874,45.49407958984375,-11.7431640625,4.4921875
1663861825364562000,11.74656201171875,45.18890380859375,-11.74163818359375,4.79583740234375
1663861825384551000,11.766551025390624,44.268798828125,-11.9110107421875,2.81219482421875
1663861825404540000,11.786539794921875,44.7296142578125,-11.76300048828125,2.20489501953125
1663861825424498400,11.80649853515625,45.31402587890625,-12.9608154296875,4.33349609375
1663861825444518000,11.826517822265625,44.56634521484375,-12.3443603515625,5.401611328125
1663861825464507000,11.8465068359375,45.47576904296875,-12.51220703125,3.4210205078125
1663861825484496000,11.866495849609375,45.62530517578125,-12.6556396484375,4.33502197265625
1663861825504484900,11.88648486328125,44.73876953125,-11.43798828125,4.79736328125
1663861825524473900,11.906473876953125,43.49822998046875,-12.3504638671875,4.94384765625
1663861825544462800,11.926462890625,44.27032470703125,-11.90185546875,3.88031005859375
1663861825564452000,11.9464521484375,43.34716796875,-12.21160888671875,3.41949462890625
1663861825584441000,11.966441162109374,43.951416015625,-12.506103515625,4.486083984375
1663861825604430000,11.98643017578125,43.22509765625,-10.84747314453125,3.1219482421875
1663861825624419000,12.006419189453124,43.02825927734375,-12.82501220703125,2.95867919921875
1663861825644408000,12.026407958984375,43.81866455078125,-11.6058349609375,3.118896484375
1663861825664397000,12.04639697265625,45.34454345703125,-11.59210205078125,4.339599609375
1663861825684386000,12.066385986328125,44.7052001953125,-12.82196044921875,2.96173095703125
1663861825704375000,12.086375,44.7235107421875,-12.1856689453125,6.317138671875
1663861825724364000,12.106364013671875,44.25506591796875,-12.646484375,5.70526123046875
1663861825744689000,12.12668896484375,44.71435546875,-12.50457763671875,4.48760986328125
1663861825764616700,12.14661669921875,45.74127197265625,-14.32037353515625,5.24139404296875
1663861825784392200,12.16639208984375,44.5404052734375,-13.4185791015625,4.3304443359375
1663861825804320300,12.1863203125,45.63140869140625,-12.3626708984375,3.11737060546875
1663861825824309200,12.206309326171874,46.0906982421875,-12.34588623046875,4.9468994140625
1663861825844298200,12.22629833984375,44.86846923828125,-12.359619140625,3.5736083984375
1663861825864287200,12.246287353515624,43.82171630859375,-11.58447265625,5.7098388671875
1663861825884276200,12.266276123046875,45.21331787109375,-10.67657470703125,4.80194091796875
1663861825904265200,12.28626513671875,44.27490234375,-11.60736083984375,2.813720703125
1663861825924223700,12.3062236328125,43.359375,-11.74163818359375,5.25054931640625
1663861825944243200,12.3262431640625,44.71435546875,-12.49847412109375,5.2490234375
1663861825964232200,12.346232177734375,44.88067626953125,-11.89727783203125,4.33807373046875
1663861825984190700,12.366190673828125,44.73724365234375,-11.444091796875,4.034423828125
1663861826004210200,12.386210205078125,45.32623291015625,-12.3565673828125,3.8787841796875
1663861826024199400,12.406199462890624,45.62530517578125,-12.6556396484375,4.33502197265625
1663861826044157700,12.42615771484375,44.73876953125,-11.43341064453125,5.25360107421875
1663861826064177400,12.446177490234374,44.45037841796875,-10.6781005859375,4.8004150390625
1663861826084166400,12.46616650390625,45.477294921875,-12.4969482421875,5.25054931640625
1663861826104125000,12.486125,45.2056884765625,-10.9832763671875,4.4952392578125
1663861826124144400,12.506144287109375,44.92034912109375,-10.08453369140625,3.1280517578125
1663861826144133400,12.52613330078125,43.670654296875,-11.44866943359375,3.729248046875
1663861826164122400,12.546122314453125,44.70672607421875,-12.8082275390625,4.486083984375
1663861826184111400,12.566111328125,46.0906982421875,-12.34893798828125,4.6417236328125
1663861826204100400,12.586100341796875,44.87152099609375,-12.34130859375,5.706787109375
1663861826224089300,12.60608935546875,45.7977294921875,-11.749267578125,3.729248046875
1663861826244078300,12.626078369140625,45.172119140625,-12.4969482421875,5.2490234375
1663861826264067600,12.646067626953124,44.88525390625,-11.60430908203125,3.12042236328125
1663861826284056600,12.666056640625,45.79925537109375,-11.7340087890625,5.55877685546875
1663861826304045600,12.686045654296874,44.573974609375,-11.9049072265625,3.57513427734375
1663861826324034600,12.70603466796875,44.415283203125,-12.200927734375,4.48760986328125
1663861826344023600,12.7260234375,44.7296142578125,-11.75994873046875,2.6611328125
1663861826364012500,12.746012451171875,43.66455078125,-11.7462158203125,4.4891357421875
1663861826384001500,12.76600146484375,44.4061279296875,-12.5244140625,2.2003173828125
1663861826403990500,12.785990478515625,44.73419189453125,-11.4654541015625,1.4434814453125
1663861826423979500,12.8059794921875,44.87152099609375,-12.34130859375,5.706787109375
1663861826443968500,12.825968505859375,45.3125,-12.9638671875,3.875732421875
1663861826463957500,12.84595751953125,44.9127197265625,-10.51788330078125,5.7159423828125
1663861826483946500,12.865946533203125,44.720458984375,-12.2039794921875,4.0313720703125
1663861826503935700,12.885935791015624,44.58160400390625,-11.59820556640625,3.8818359375
1663861826523924700,12.9059248046875,44.25811767578125,-12.37030029296875,2.5054931640625
1663861826543913700,12.925913818359374,44.8638916015625,-12.65411376953125,4.638671875
1663861826563902700,12.94590283203125,44.73114013671875,-11.74468994140625,4.49066162109375
1663861826583891700,12.9658916015625,44.71282958984375,-12.51678466796875,2.9632568359375
1663861826603880700,12.985880615234375,45.782470703125,-12.5,4.79278564453125
1663861826623869700,13.00586962890625,44.598388671875,-10.83831787109375,3.8848876953125
1663861826644194300,13.0261943359375,46.06475830078125,-13.4185791015625,3.87420654296875
1663861826663969800,13.0459697265625,46.2554931640625,-11.75079345703125,3.42559814453125
1663861826683836700,13.065836669921875,45.78094482421875,-12.51068115234375,3.4210205078125
1663861826703825700,13.08582568359375,44.89288330078125,-11.29608154296875,3.57818603515625
1663861826723845400,13.105845458984374,43.9453125,-12.80975341796875,4.48455810546875
1663861826743834400,13.12583447265625,43.829345703125,-11.273193359375,6.4727783203125
1663861826763793000,13.14579296875,45.6268310546875,-12.640380859375,6.16302490234375
1663861826783782000,13.165781982421874,45.6329345703125,-12.347412109375,4.94537353515625
1663861826803771000,13.18577099609375,44.720458984375,-12.2100830078125,3.4210205078125
1663861826823760000,13.205759765625,43.6279296875,-13.27362060546875,3.7200927734375
1663861826843718400,13.225718505859374,46.527099609375,-13.2598876953125,4.48455810546875
1663861826863737900,13.24573779296875,43.95904541015625,-12.19635009765625,5.2490234375
1663861826883726800,13.265726806640625,43.65234375,-12.21160888671875,3.4210205078125
1663861826903715800,13.2857158203125,44.7052001953125,-12.823486328125,2.65655517578125
1663861826923704800,13.305704833984375,43.5394287109375,-10.53009033203125,4.6478271484375
1663861826943693800,13.32569384765625,43.9208984375,-13.873291015625,4.47998046875
1663861826963682800,13.345682861328125,44.8699951171875,-12.3504638671875,4.64019775390625
1663861826983672000,13.365672119140624,43.95751953125,-12.20855712890625,3.7261962890625
1663861827003661000,13.3856611328125,45.6085205078125,-13.4124755859375,4.6356201171875
1663861827023650000,13.405650146484374,44.41070556640625,-12.49542236328125,5.55267333984375
1663861827043639000,13.42563916015625,43.505859375,-11.91253662109375,2.81219482421875
1663861827063628000,13.4456279296875,45.17822265625,-12.19940185546875,4.4891357421875
1663861827083617000,13.465616943359375,46.099853515625,-11.89422607421875,4.339599609375
1663861827103606000,13.48560595703125,44.2596435546875,-12.35504150390625,4.33502197265625
1663861827123595000,13.505594970703125,43.65386962890625,-12.200927734375,4.791259765625
1663861827143584000,13.525583984375,44.86846923828125,-12.359619140625,3.5736083984375
1663861827163573000,13.545572998046875,45.2056884765625,-10.98785400390625,4.0374755859375
1663861827183562000,13.56556201171875,44.70672607421875,-12.8143310546875,3.72314453125
1663861827203520500,13.5855205078125,44.86236572265625,-12.6678466796875,3.11431884765625
1663861827223540200,13.605540283203124,44.244384765625,-12.9730224609375,3.11279296875
1663861827243529200,13.625529296875,44.24591064453125,-12.9608154296875,4.63714599609375
1663861827263487700,13.64548779296875,44.5648193359375,-12.34893798828125,4.94537353515625
1663861827283507200,13.665507080078125,43.8262939453125,-11.2884521484375,4.644775390625
1663861827303496200,13.68549609375,44.8944091796875,-11.28997802734375,4.34112548828125
1663861827323485200,13.705485107421875,44.5831298828125,-11.58447265625,5.40618896484375
1663861827343474200,13.72547412109375,43.2159423828125,-11.29913330078125,3.57666015625
1663861827363463200,13.745463134765625,44.69757080078125,-13.26446533203125,4.4830322265625
1663861827383452200,13.7654521484375,45.32623291015625,-12.359619140625,3.5736083984375
1663861827403441200,13.785441162109375,44.720458984375,-12.200927734375,4.4891357421875
1663861827423430100,13.80543017578125,44.720458984375,-12.2100830078125,3.4210205078125
1663861827443449900,13.825449951171874,45.6512451171875,-11.58294677734375,5.40618896484375
1663861827463408400,13.845408447265624,43.4844970703125,-12.95928955078125,4.9407958984375
1663861827483397400,13.8653974609375,45.758056640625,-13.56353759765625,4.7882080078125
1663861827503386400,13.885386474609374,44.71435546875,-12.50457763671875,4.48760986328125
1663861827523619600,13.90561962890625,44.68841552734375,-13.5772705078125,3.4149169921875
1663861827543517000,13.925516845703125,44.73114013671875,-11.74468994140625,4.49066162109375
1663861827563353300,13.945353271484375,44.55718994140625,-12.6678466796875,3.11431884765625
1663861827583372800,13.965372802734375,45.32012939453125,-12.65716552734375,4.33502197265625
1663861827603331300,13.985331298828125,43.07861328125,-10.68115234375,4.79888916015625
1663861827623289900,14.005289794921875,44.244384765625,-12.97607421875,2.8076171875
1663861827643309300,14.025309326171875,45.8221435546875,-10.68267822265625,4.04052734375
1663861827663298300,14.04529833984375,43.63861083984375,-12.8173828125,3.72161865234375
1663861827683306800,14.065306640625,46.1151123046875,-11.27777099609375,5.40924072265625
1663861827703295700,14.085295654296875,45.172119140625,-12.4969482421875,5.2490234375
1663861827723284700,14.10528466796875,44.8455810546875,-13.41552734375,4.6356201171875
1663861827743273700,14.125273681640625,44.384765625,-13.57269287109375,4.02374267578125
1663861827763293200,14.145293212890625,44.5648193359375,-12.35809326171875,3.87725830078125
1663861827783251700,14.165251708984375,45.458984375,-13.262939453125,4.48455810546875
1663861827803240700,14.18524072265625,46.21429443359375,-13.5711669921875,3.72161865234375
1663861827823229700,14.205229736328125,44.36798095703125,-14.32952880859375,4.4769287109375
1663861827843218700,14.22521875,44.55108642578125,-12.95623779296875,4.94232177734375
1663861827863177200,14.24517724609375,45.684814453125,-10.06927490234375,4.65240478515625
1663861827883196700,14.26519677734375,45.1629638671875,-12.81585693359375,3.41949462890625
1663861827903185700,14.285185546875,44.5831298828125,-11.59210205078125,4.64324951171875
1663861827923175000,14.3051748046875,44.52362060546875,-14.1754150390625,4.63104248046875
1663861827943164000,14.325163818359375,45.3521728515625,-11.285400390625,4.64630126953125
1663861827963153000,14.34515283203125,44.60601806640625,-10.52703857421875,4.64935302734375
1663861827983142000,14.365141845703125,44.73876953125,-11.43798828125,4.79736328125
1663861828003131000,14.385130859375,46.38824462890625,-12.65106201171875,4.64019775390625
1663861828023089400,14.40508935546875,45.4833984375,-12.20245361328125,4.0313720703125
1663861828043108900,14.42510888671875,44.2352294921875,-13.4185791015625,4.32891845703125
1663861828063097900,14.445097900390625,45.45745849609375,-13.2720947265625,3.41644287109375
1663861828083086800,14.4650869140625,43.4722900390625,-13.4246826171875,3.87115478515625
1663861828103075800,14.485075927734375,45.19500732421875,-11.444091796875,4.03594970703125
1663861828123064800,14.50506494140625,43.62335205078125,-13.56353759765625,5.242919921875
1663861828143053800,14.5250537109375,44.4244384765625,-11.7584228515625,2.96630859375
1663861828163043000,14.54504296875,45.6329345703125,-12.34893798828125,4.6417236328125
1663861828183032000,14.565031982421875,45.32623291015625,-12.359619140625,3.5736083984375
1663861828203021000,14.58502099609375,45.78857421875,-12.1978759765625,4.4891357421875
1663861828223010000,14.605010009765625,44.70977783203125,-12.7899169921875,6.6192626953125
1663861828242999000,14.6249990234375,45.6451416015625,-11.8804931640625,6.1676025390625
1663861828262988000,14.644988037109375,45.15380859375,-13.2720947265625,3.41644287109375
1663861828282977000,14.66497705078125,44.2779541015625,-11.58599853515625,5.4046630859375
1663861828302966000,14.684966064453125,43.92852783203125,-13.56353759765625,5.242919921875
1663861828322955000,14.704955078125,44.8455810546875,-13.41552734375,4.6356201171875
1663861828342944000,14.724944091796875,45.172119140625,-12.4969482421875,5.2490234375
1663861828362933000,14.74493310546875,44.70672607421875,-12.8082275390625,4.486083984375
1663861828382922200,14.764922119140625,44.88677978515625,-11.5997314453125,3.57666015625
1663861828403216400,14.78521630859375,46.23870849609375,-12.50457763671875,4.0313720703125
1663861828423113700,14.80511376953125,45.4437255859375,-13.88397216796875,2.9571533203125
1663861828442889200,14.82488916015625,45.48492431640625,-12.19024658203125,5.55572509765625
1663861828462878200,14.844878173828125,45.19500732421875,-11.44866943359375,3.42559814453125
1663861828482867200,14.8648671875,43.94378662109375,-12.81585693359375,3.72314453125
1663861828502856200,14.884856201171875,44.8699951171875,-12.3504638671875,4.64019775390625
1663861828522845200,14.90484521484375,44.55718994140625,-12.664794921875,3.57208251953125
1663861828542834200,14.924834228515625,45.61004638671875,-13.4002685546875,6.15997314453125
1663861828562823200,14.9448232421875,45.48187255859375,-12.20550537109375,3.72772216796875
1663861828582812200,14.964812255859375,45.62530517578125,-12.6556396484375,4.33502197265625
1663861828602801200,14.98480126953125,44.5404052734375,-13.41552734375,4.63409423828125
1663861828622759700,15.004759765625,44.69146728515625,-13.56201171875,5.24444580078125
1663861828642779400,15.024779296875,45.16448974609375,-12.8082275390625,4.486083984375
1663861828662768400,15.044768310546875,44.75555419921875,-10.6842041015625,4.03900146484375
1663861828682727000,15.064726806640625,45.2056884765625,-10.9893798828125,3.7322998046875
1663861828702746400,15.084746337890625,44.903564453125,-10.83984375,3.58123779296875
1663861828722735400,15.1047353515625,43.96820068359375,-11.7523193359375,3.72772216796875
1663861828742694000,15.12469384765625,46.56219482421875,-11.73858642578125,4.79736328125
1663861828762713300,15.14471337890625,44.41680908203125,-12.1917724609375,5.55419921875
1663861828782702300,15.164702392578125,44.549560546875,-12.96844482421875,3.570556640625
1663861828802691300,15.18469140625,44.27642822265625,-11.59820556640625,3.8818359375
1663861828822680300,15.204680419921875,45.17059326171875,-12.50762939453125,4.02984619140625
1663861828842669300,15.22466943359375,44.88677978515625,-11.590576171875,4.64324951171875
1663861828862658600,15.244658447265625,44.83795166015625,-13.72528076171875,3.87115478515625
1663861828882647600,15.2646474609375,43.66302490234375,-11.75537109375,3.42254638671875
1663861828902606000,15.284606201171876,45.62530517578125,-12.65106201171875,4.94384765625
1663861828922625500,15.30462548828125,43.93463134765625,-13.262939453125,4.78668212890625
1663861828942614500,15.324614501953125,45.172119140625,-12.5030517578125,4.48760986328125
1663861828962603500,15.344603515625,44.378662109375,-13.8702392578125,4.78515625
1663861828982592500,15.364592529296875,44.44580078125,-10.96954345703125,6.3232421875
1663861829002581500,15.38458154296875,45.501708984375,-11.431884765625,5.255126953125
1663861829022570500,15.404570556640625,44.573974609375,-11.9049072265625,3.57513427734375
1663861829042559500,15.4245595703125,45.4925537109375,-11.749267578125,3.729248046875
1663861829062548500,15.444548583984375,44.2535400390625,-12.6556396484375,4.638671875
1663861829082537500,15.464537353515626,44.2535400390625,-12.65869140625,4.33349609375
1663861829102526700,15.484526611328125,45.3216552734375,-12.65106201171875,4.94384765625
1663861829122515700,15.504515625,44.696044921875,-13.26751708984375,4.0252685546875
1663861829142504700,15.524504638671875,43.81256103515625,-11.89727783203125,4.6417236328125
1663861829162493700,15.54449365234375,44.55108642578125,-12.95928955078125,4.63714599609375
1663861829182482700,15.564482666015625,43.975830078125,-11.44256591796875,4.49066162109375
1663861829202471700,15.5844716796875,43.4967041015625,-12.3565673828125,4.33349609375
1663861829222430200,15.60443017578125,43.341064453125,-12.51068115234375,4.0283203125
1663861829242449700,15.62444970703125,44.91119384765625,-10.53619384765625,3.582763671875
1663861829262438700,15.644438720703125,44.73114013671875,-11.74468994140625,4.49066162109375
1663861829282427600,15.664427734375,44.5831298828125,-11.58905029296875,4.94842529296875
1663861829302691300,15.68469140625,44.4427490234375,-10.99090576171875,3.7322998046875
1663861829322466800,15.704466796875,44.573974609375,-11.90185546875,3.88031005859375
1663861829342395000,15.724394775390625,43.927001953125,-13.57574462890625,3.71856689453125
1663861829362384000,15.7443837890625,45.80535888671875,-11.43646240234375,4.79888916015625
1663861829382342400,15.76434228515625,44.2535400390625,-12.6556396484375,4.638671875
1663861829402361900,15.78436181640625,44.40155029296875,-12.81280517578125,4.0283203125
1663861829422350800,15.804350830078125,45.17059326171875,-12.51220703125,3.4210205078125
1663861829442339800,15.82433984375,46.56829833984375,-11.4410400390625,4.0374755859375
1663861829462328800,15.844328857421875,45.61920166015625,-12.957763671875,4.638671875
1663861829482317800,15.86431787109375,44.5587158203125,-12.6556396484375,4.638671875
1663861829502306800,15.884306884765625,44.71435546875,-12.50457763671875,4.48760986328125
1663861829522295800,15.9042958984375,45.458984375,-13.262939453125,4.48455810546875
1663861829542284800,15.924284912109375,44.8699951171875,-12.3504638671875,4.64019775390625
1663861829562274000,15.944274169921876,43.646240234375,-12.50457763671875,4.791259765625
1663861829582263000,15.964262939453125,44.2352294921875,-13.4246826171875,3.5675048828125
1663861829602252000,15.984251953125,44.68994140625,-13.5650634765625,4.78668212890625
1663861829622241000,16.004240966796875,45.7733154296875,-12.81280517578125,3.72467041015625
1663861829642230000,16.02422998046875,43.4967041015625,-12.36724853515625,3.11431884765625
1663861829662219000,16.044218994140625,44.73724365234375,-11.4471435546875,3.73077392578125
1663861829682208000,16.0642080078125,45.46051025390625,-13.2568359375,5.2459716796875
1663861829702197000,16.084197021484375,43.93463134765625,-13.2598876953125,5.24444580078125
1663861829722186000,16.10418603515625,43.33343505859375,-12.8204345703125,3.41644287109375
1663861829742175000,16.124175048828125,43.21746826171875,-11.28997802734375,4.64324951171875
1663861829762164000,16.1441640625,43.505859375,-11.91253662109375,2.81219482421875
1663861829782153000,16.164153076171875,45.3369140625,-11.90032958984375,3.88031005859375
1663861829802142200,16.18414208984375,43.975830078125,-11.43951416015625,4.79583740234375
1663861829822131200,16.204131103515625,43.33343505859375,-12.823486328125,2.960205078125
1663861829842120200,16.2241201171875,43.8201904296875,-11.5875244140625,5.4046630859375
1663861829862109200,16.244109130859375,45.18585205078125,-11.76300048828125,2.20489501953125
1663861829882098200,16.26409814453125,45.49407958984375,-11.7401123046875,4.79583740234375
1663861829902056700,16.284056640625,45.31402587890625,-12.9547119140625,4.94232177734375
1663861829922076200,16.304076171875,45.78857421875,-12.1978759765625,4.4891357421875
1663861829942065200,16.324065185546875,44.38323974609375,-13.58184814453125,2.9571533203125
1663861829962023700,16.344023681640625,45.623779296875,-12.66937255859375,2.8106689453125
1663861829982043100,16.364043212890625,44.27490234375,-11.60736083984375,2.813720703125
1663861830002032000,16.3840322265625,44.5831298828125,-11.58905029296875,4.94842529296875
1663861830022021000,16.404021240234375,44.88525390625,-11.60430908203125,3.12042236328125
1663861830042010400,16.42401025390625,44.244384765625,-12.97607421875,2.8076171875
1663861830061999400,16.443999267578125,45.16448974609375,-12.8082275390625,4.486083984375
1663861830081988400,16.46398828125,44.25811767578125,-12.36724853515625,2.8106689453125
1663861830101977300,16.483977294921875,46.71783447265625,-11.5814208984375,5.40771484375
1663861830121966300,16.50396630859375,45.66650390625,-10.83526611328125,3.88641357421875
1663861830141955300,16.523955322265625,45.32012939453125,-12.65716552734375,4.33502197265625
1663861830161944300,16.5439443359375,46.405029296875,-11.89117431640625,4.644775390625
1663861830182269000,16.56426904296875,45.1873779296875,-11.75689697265625,2.96783447265625
1663861830202044400,16.58404443359375,43.97430419921875,-11.45782470703125,2.66265869140625
1663861830221911300,16.603911376953125,45.33843994140625,-11.89117431640625,4.94842529296875
1663861830241869800,16.623869873046875,44.2596435546875,-12.35504150390625,4.33502197265625
1663861830261889300,16.64388916015625,45.4833984375,-12.19635009765625,4.7943115234375
1663861830281909000,16.663908935546875,45.61767578125,-12.9638671875,3.875732421875
1663861830301867500,16.683867431640625,43.646240234375,-12.506103515625,4.486083984375
1663861830321856500,16.7038564453125,44.2291259765625,-13.72222900390625,4.327392578125
1663861830341845500,16.723845458984375,45.78094482421875,-12.506103515625,4.0313720703125
1663861830361834500,16.74383447265625,43.80035400390625,-12.3687744140625,2.8106689453125
1663861830381793000,16.76379296875,44.27032470703125,-11.89422607421875,4.9468994140625
1663861830401812500,16.7838125,44.90509033203125,-10.8306884765625,4.6478271484375
1663861830421801500,16.803801513671875,45.78857421875,-12.1917724609375,5.2520751953125
1663861830441790500,16.82379052734375,44.708251953125,-12.8021240234375,5.24749755859375
1663861830461779500,16.843779541015625,45.4833984375,-12.19940185546875,4.4891357421875
1663861830481768400,16.8637685546875,45.16448974609375,-12.811279296875,4.0283203125
1663861830501757400,16.88375732421875,44.43359375,-11.4410400390625,4.4921875
1663861830521746700,16.90374658203125,44.8638916015625,-12.652587890625,4.94384765625
1663861830541735700,16.923735595703125,43.9453125,-12.8082275390625,4.78973388671875
1663861830561724700,16.943724609375,44.4488525390625,-10.6903076171875,3.42864990234375
1663861830581713700,16.963713623046875,43.48297119140625,-12.97454833984375,3.11126708984375
1663861830601702700,16.98370263671875,45.28656005859375,-14.17083740234375,4.93621826171875
1663861830621722000,17.00372216796875,44.56329345703125,-12.36419677734375,3.1158447265625
1663861830641680600,17.0236806640625,43.2281494140625,-10.82611083984375,5.712890625
1663861830661669600,17.043669677734375,44.708251953125,-12.80517578125,4.78973388671875
1663861830681658600,17.06365869140625,46.246337890625,-12.19024658203125,5.2520751953125
1663861830701647600,17.083647705078125,45.64361572265625,-11.8865966796875,5.4046630859375
1663861830721636600,17.10363671875,44.4244384765625,-11.75384521484375,3.424072265625
1663861830741625900,17.1236259765625,43.66455078125,-11.7462158203125,4.4891357421875
1663861830761614800,17.14361474609375,45.46966552734375,-12.80670166015625,4.486083984375
1663861830781603800,17.163603759765625,43.98651123046875,-10.980224609375,5.255126953125
1663861830801592800,17.1835927734375,44.28253173828125,-11.297607421875,3.57818603515625
1663861830821551400,17.20355126953125,44.86236572265625,-12.66326904296875,3.57208251953125
1663861830841570800,17.22357080078125,44.86236572265625,-12.65716552734375,4.33349609375
1663861830861559800,17.243559814453125,45.318603515625,-12.66632080078125,3.1158447265625
1663861830881548800,17.263548828125,44.2535400390625,-12.65869140625,4.33349609375
1663861830901537800,17.283537841796875,44.2779541015625,-11.58905029296875,4.94842529296875
1663861830921526800,17.30352685546875,45.172119140625,-12.4969482421875,5.2490234375
1663861830941515800,17.323515869140625,45.50018310546875,-11.44256591796875,4.03594970703125
1663861830961504800,17.3435048828125,44.427490234375,-11.73553466796875,5.5572509765625
1663861830981463300,17.36346337890625,46.08917236328125,-12.35504150390625,3.88031005859375
1663861831001483000,17.38348291015625,44.41680908203125,-12.19482421875,5.25054931640625
1663861831021472000,17.403471923828125,44.2596435546875,-12.35198974609375,4.64019775390625
1663861831041461000,17.4234609375,45.16448974609375,-12.8082275390625,4.486083984375
1663861831061694200,17.443694091796875,46.25396728515625,-11.75384521484375,2.96783447265625
1663861831081622000,17.4636220703125,43.93310546875,-13.2781982421875,2.95867919921875
1663861831101458400,17.48345849609375,44.86236572265625,-12.6678466796875,3.11431884765625
1663861831121417000,17.5034169921875,44.39239501953125,-13.25836181640625,5.24444580078125
1663861831141406000,17.523406005859375,44.5770263671875,-11.8896484375,5.4046630859375
1663861831161364500,17.543364501953125,44.40155029296875,-12.81585693359375,3.72314453125
1663861831181384000,17.563384033203125,46.099853515625,-11.8927001953125,4.64324951171875
1663861831201373000,17.583373046875,43.646240234375,-12.50457763671875,4.791259765625
1663861831221331500,17.60333154296875,44.71435546875,-12.50457763671875,4.48760986328125
1663861831241351200,17.62335107421875,44.87152099609375,-12.3443603515625,5.401611328125
1663861831261340200,17.643340087890625,44.8638916015625,-12.65411376953125,4.638671875
1663861831281329200,17.6633291015625,43.1671142578125,-13.4246826171875,3.87115478515625
1663861831301318100,17.683318115234375,44.71282958984375,-12.51068115234375,3.72467041015625
1663861831321307100,17.70330712890625,45.50018310546875,-11.43951416015625,4.49371337890625
1663861831341296000,17.723296142578125,45.1904296875,-11.7340087890625,5.55877685546875
1663861831361285000,17.74328515625,45.18890380859375,-11.737060546875,5.25360107421875
1663861831381274000,17.763274169921875,44.88067626953125,-11.8927001953125,4.9468994140625
1663861831401263000,17.78326318359375,44.8455810546875,-13.421630859375,3.8726806640625
1663861831421252000,17.803252197265625,44.82879638671875,-14.1754150390625,4.63104248046875
1663861831441241000,17.823240966796874,43.99261474609375,-10.68267822265625,4.4952392578125
1663861831461230300,17.843230224609375,44.2840576171875,-11.29150390625,4.339599609375
1663861831481219300,17.86321923828125,45.19500732421875,-11.444091796875,4.03594970703125
1663861831501208300,17.883208251953125,43.61572265625,-13.87786865234375,4.022216796875
1663861831521197300,17.903197265625,43.951416015625,-12.51220703125,3.72467041015625
1663861831541186300,17.923186279296875,45.30181884765625,-13.42315673828125,3.56903076171875
1663861831561175300,17.94317529296875,44.879150390625,-11.90185546875,3.88031005859375
1663861831581164300,17.963164306640625,45.19500732421875,-11.44561767578125,3.73077392578125
1663861831601153300,17.9831533203125,45.3369140625,-11.90643310546875,3.118896484375
1663861831621142300,18.003142333984375,45.64971923828125,-11.58905029296875,4.644775390625
1663861831641131300,18.02313134765625,44.70672607421875,-12.8082275390625,4.486083984375
1663861831661120300,18.043120361328125,44.879150390625,-11.9110107421875,2.813720703125
1663861831681109200,18.063109130859374,45.3216552734375,-12.65106201171875,4.94384765625
1663861831701098500,18.083098388671875,46.8841552734375,-10.980224609375,4.49676513671875
1663861831721087500,18.10308740234375,46.36383056640625,-13.7176513671875,4.3304443359375
1663861831741076500,18.123076416015625,45.1385498046875,-13.88702392578125,2.6519775390625
1663861831761065500,18.1430654296875,43.951416015625,-12.5091552734375,4.0283203125
1663861831781054500,18.163054443359375,43.68133544921875,-10.98480224609375,4.79736328125
1663861831801043500,18.18304345703125,43.99261474609375,-10.68572998046875,4.0374755859375
1663861831821002000,18.203001953125,44.2596435546875,-12.35504150390625,4.33502197265625
1663861831841021400,18.223021484375,44.24591064453125,-12.9608154296875,4.63714599609375
1663861831861010400,18.243010498046875,43.95751953125,-12.21466064453125,2.9632568359375
1663861831880969000,18.262968994140625,45.32623291015625,-12.3626708984375,3.11737060546875
1663861831900988400,18.282988525390625,45.4833984375,-12.19635009765625,4.7943115234375
1663861831920977400,18.302977294921874,43.64776611328125,-12.5,5.24749755859375
1663861831941271800,18.323271728515625,45.46966552734375,-12.811279296875,4.0283203125
1663861831961199600,18.34319970703125,42.8802490234375,-12.6617431640625,4.33197021484375
1663861831980975000,18.36297509765625,45.7763671875,-12.79754638671875,5.55419921875
1663861832000933600,18.38293359375,43.6279296875,-13.27972412109375,2.9571533203125
1663861832020953000,18.402953125,44.2596435546875,-12.35809326171875,3.87725830078125
1663861832040911600,18.42291162109375,44.43359375,-11.4349365234375,5.25360107421875
1663861832060900600,18.442900634765625,44.5587158203125,-12.6495361328125,5.40008544921875
1663861832080889600,18.4628896484375,45.19500732421875,-11.43951416015625,4.4921875
1663861832100878600,18.482878662109375,43.65081787109375,-12.22381591796875,1.89666748046875
1663861832120867600,18.50286767578125,44.43359375,-11.43798828125,4.79736328125
1663861832140856600,18.522856689453125,43.9453125,-12.80975341796875,4.48455810546875
1663861832160845800,18.542845703125,43.7713623046875,-13.726806640625,3.86962890625
1663861832180834800,18.562834716796875,43.3349609375,-12.811279296875,4.48455810546875
1663861832200823800,18.58282373046875,43.64013671875,-12.8082275390625,4.78973388671875
1663861832220812800,18.602812744140625,45.17822265625,-12.19940185546875,4.4891357421875
1663861832240801800,18.6228017578125,43.04351806640625,-12.200927734375,4.791259765625
1663861832260790800,18.642790771484375,44.8394775390625,-13.71612548828125,4.937744140625
1663861832280779800,18.66277978515625,44.384765625,-13.56964111328125,4.48150634765625
1663861832300768800,18.682768798828125,44.5892333984375,-11.2945556640625,3.88336181640625
1663861832320757800,18.7027578125,44.25201416015625,-12.664794921875,3.570556640625
1663861832340746800,18.722746826171875,46.41265869140625,-11.58447265625,4.949951171875
1663861832360735700,18.74273583984375,46.08917236328125,-12.3504638671875,4.3365478515625
1663861832380724700,18.762724853515625,44.268798828125,-11.90948486328125,3.11737060546875
1663861832400714000,18.7827138671875,43.34869384765625,-12.2039794921875,4.486083984375
1663861832420703000,18.802702880859375,46.099853515625,-11.8927001953125,4.64324951171875
1663861832440692000,18.82269189453125,44.53887939453125,-13.427734375,3.11126708984375
1663861832460681000,18.842680908203125,43.7713623046875,-13.720703125,4.632568359375
1663861832480670000,18.862669921875,45.17822265625,-12.19635009765625,4.7943115234375
1663861832500659000,18.882658935546875,44.26116943359375,-12.34588623046875,5.401611328125
1663861832520648000,18.90264794921875,44.74945068359375,-10.98175048828125,4.79888916015625
1663861832540637000,18.922636962890625,45.48187255859375,-12.21466064453125,2.6611328125
1663861832560626000,18.9426259765625,44.5648193359375,-12.34893798828125,4.94537353515625
1663861832580615000,18.962614990234375,45.62530517578125,-12.652587890625,4.64019775390625
1663861832600604000,18.98260400390625,45.172119140625,-12.5030517578125,4.48760986328125
1663861832620593000,19.002593017578125,45.17822265625,-12.19940185546875,4.4891357421875
1663861832640582100,19.02258203125,43.79425048828125,-12.66326904296875,3.875732421875
1663861832660571100,19.042571044921875,45.15380859375,-13.2720947265625,3.41644287109375
1663861832680560000,19.06256005859375,45.172119140625,-12.5030517578125,4.48760986328125
1663861832700549000,19.082549072265625,44.84405517578125,-13.43231201171875,2.50091552734375
1663861832720538000,19.1025380859375,45.79010009765625,-12.1826171875,6.31866455078125
1663861832740527000,19.122527099609375,44.52362060546875,-14.178466796875,4.32586669921875
1663861832760516000,19.14251611328125,43.6798095703125,-10.99395751953125,3.73077392578125
1663861832780505000,19.162505126953125,44.55108642578125,-12.96234130859375,4.33197021484375
1663861832800494000,19.182494140625,45.452880859375,-13.56658935546875,4.4830322265625
1663861832820483000,19.202483154296875,43.81256103515625,-11.90032958984375,4.3365478515625
1663861832840777200,19.222777099609374,44.5587158203125,-12.652587890625,4.94384765625
1663861832860522200,19.242522216796875,44.53582763671875,-13.71002197265625,5.70068359375
1663861832880450300,19.2624501953125,45.37811279296875,-10.07843017578125,3.5858154296875
1663861832900439300,19.282439208984375,45.32623291015625,-12.3626708984375,3.11737060546875
1663861832920428300,19.30242822265625,44.40765380859375,-12.51220703125,3.72467041015625
1663861832940417300,19.322417236328125,44.573974609375,-11.907958984375,3.11737060546875
1663861832960375800,19.342375732421875,44.29473876953125,-10.83221435546875,4.64630126953125
1663861832980395300,19.362395263671875,43.05267333984375,-11.7523193359375,4.0313720703125
1663861833000384300,19.38238427734375,46.11358642578125,-11.29302978515625,3.5797119140625
1663861833020373200,19.402373291015625,46.10595703125,-11.5966796875,3.57818603515625
1663861833040362200,19.4223623046875,43.65234375,-12.20855712890625,3.72467041015625
1663861833060351200,19.442351318359375,46.3714599609375,-13.40484619140625,5.3985595703125
1663861833080340200,19.46234033203125,44.55108642578125,-12.96234130859375,4.33197021484375
1663861833100329200,19.4823291015625,44.69757080078125,-13.26141357421875,4.7882080078125
1663861833120318500,19.502318359375,44.57550048828125,-11.895751953125,4.6417236328125
1663861833140307500,19.522307373046875,44.85626220703125,-12.96539306640625,3.875732421875
1663861833160296400,19.54229638671875,46.124267578125,-10.8306884765625,4.34417724609375
1663861833180255000,19.5622548828125,44.86236572265625,-12.6617431640625,3.87725830078125
1663861833200274400,19.5822744140625,44.879150390625,-11.90185546875,3.88031005859375
1663861833220263400,19.602263427734375,44.86846923828125,-12.359619140625,3.5736083984375
1663861833240252400,19.62225244140625,44.27032470703125,-11.8988037109375,4.3365478515625
1663861833260241400,19.642241455078125,45.5169677734375,-10.68267822265625,4.03900146484375
1663861833280230400,19.66223046875,44.41680908203125,-12.1978759765625,4.79278564453125
1663861833300219400,19.682219482421875,43.65234375,-12.21160888671875,3.4210205078125
1663861833320208400,19.70220849609375,44.708251953125,-12.79754638671875,5.8563232421875
1663861833340167000,19.7221669921875,45.19500732421875,-11.43951416015625,4.4921875
1663861833360186600,19.7421865234375,45.5108642578125,-10.9832763671875,4.4952392578125
1663861833380175600,19.762175537109375,44.720458984375,-12.2039794921875,4.0313720703125
1663861833400164600,19.78216455078125,45.1873779296875,-11.749267578125,3.729248046875
1663861833420153600,19.802153564453125,45.166015625,-12.80059814453125,5.24749755859375
1663861833440142600,19.822142578125,43.3563232421875,-11.773681640625,1.4404296875
1663861833460131600,19.842131591796875,43.80340576171875,-12.3504638671875,4.94384765625
1663861833480120600,19.86212060546875,44.56634521484375,-12.3443603515625,5.401611328125
1663861833500109600,19.882109619140625,44.720458984375,-12.200927734375,4.4891357421875
1663861833520098600,19.9020986328125,43.96820068359375,-11.7462158203125,4.4891357421875
1663861833540087600,19.922087646484375,41.98760986328125,-11.7431640625,5.2490234375
1663861833560076500,19.94207666015625,45.14617919921875,-13.57421875,3.7200927734375
1663861833580065800,19.962065673828125,44.67315673828125,-14.3218994140625,5.2398681640625
1663861833600024000,19.982024169921875,45.60699462890625,-13.42010498046875,3.87420654296875
1663861833620043800,20.002043701171875,44.85626220703125,-12.95928955078125,4.63714599609375
1663861833640032800,20.02203271484375,46.35162353515625,-14.1845703125,3.10821533203125
1663861833660021800,20.042021728515625,43.20220947265625,-11.9110107421875,3.1158447265625
1663861833680010800,20.0620107421875,44.41680908203125,-12.1978759765625,4.79278564453125
1663861833699999700,20.081999755859375,46.4111328125,-11.5966796875,3.57818603515625
1663861833720355000,20.10235498046875,43.95904541015625,-12.19635009765625,5.2490234375
1663861833740099800,20.122099853515625,43.02825927734375,-12.81890869140625,3.72161865234375
1663861833759966700,20.141966796875,43.79425048828125,-12.66937255859375,3.11279296875
1663861833779955700,20.161955810546875,44.40765380859375,-12.518310546875,2.96173095703125
1663861833799944700,20.18194482421875,43.81256103515625,-11.90338134765625,3.8787841796875
1663861833819934000,20.201933837890625,45.16448974609375,-12.8082275390625,4.486083984375
1663861833839923000,20.2219228515625,46.4111328125,-11.5966796875,3.57818603515625
1663861833859881200,20.241881103515624,45.4833984375,-12.19940185546875,4.4891357421875
1663861833879901000,20.26190087890625,46.099853515625,-11.89422607421875,4.339599609375
1663861833899890000,20.281889892578125,46.05865478515625,-13.71917724609375,4.3304443359375
1663861833919879000,20.30187890625,45.31402587890625,-12.9608154296875,4.33349609375
1663861833939868000,20.321867919921875,45.3369140625,-11.90338134765625,3.57666015625
1663861833959826400,20.341826416015625,43.30902099609375,-13.88397216796875,3.411865234375
1663861833979846000,20.361845947265625,44.4305419921875,-11.456298828125,2.66265869140625
1663861833999835000,20.3818349609375,44.70672607421875,-12.8143310546875,3.72314453125
1663861834019793400,20.40179345703125,44.26116943359375,-12.34588623046875,5.401611328125
1663861834039812900,20.421812744140624,44.73114013671875,-11.75079345703125,3.729248046875
1663861834059802000,20.441802001953125,45.35064697265625,-11.29302978515625,3.88336181640625
1663861834079791000,20.461791015625,43.9605712890625,-12.19024658203125,5.859375
1663861834099780000,20.481780029296875,45.477294921875,-12.4969482421875,5.25054931640625
1663861834119769000,20.50176904296875,44.86236572265625,-12.6617431640625,3.87725830078125
1663861834139758000,20.521758056640625,44.40765380859375,-12.51220703125,3.72467041015625
1663861834159747000,20.5417470703125,45.3277587890625,-12.3504638671875,4.64019775390625
1663861834179736000,20.561736083984375,45.2056884765625,-10.9893798828125,3.7322998046875
1663861834199725000,20.58172509765625,43.4967041015625,-12.3626708984375,3.57208251953125
1663861834219683600,20.60168359375,45.82366943359375,-10.67657470703125,4.80194091796875
1663861834239703000,20.621703125,44.5587158203125,-12.65869140625,4.33349609375
1663861834259692000,20.641692138671875,44.24591064453125,-12.9608154296875,4.63714599609375
1663861834279681000,20.661680908203124,45.32623291015625,-12.3565673828125,3.8787841796875
1663861834299670300,20.681670166015625,43.8140869140625,-11.89422607421875,4.94537353515625
1663861834319659300,20.7016591796875,43.97430419921875,-11.44866943359375,3.729248046875
1663861834339648300,20.721648193359375,44.45037841796875,-10.6781005859375,4.8004150390625
1663861834359637200,20.74163720703125,43.95751953125,-12.20550537109375,4.02984619140625
1663861834379626200,20.761626220703125,45.1416015625,-13.86260986328125,5.548095703125
1663861834399584800,20.781584716796875,44.5343017578125,-13.71612548828125,4.937744140625
1663861834419604200,20.801604248046875,44.5587158203125,-12.65869140625,4.33349609375
1663861834439593200,20.82159326171875,45.17669677734375,-12.20855712890625,3.42254638671875
1663861834459582200,20.841582275390625,45.6329345703125,-12.34283447265625,5.40313720703125
1663861834479571200,20.8615712890625,43.34869384765625,-12.20703125,4.02984619140625
1663861834499529700,20.88152978515625,43.07861328125,-10.68115234375,4.79888916015625
1663861834519549400,20.901549560546876,43.77899169921875,-13.41094970703125,5.3955078125
1663861834539538400,20.921538330078125,45.78704833984375,-12.2039794921875,3.72772216796875
1663861834559527400,20.94152734375,45.15533447265625,-13.2568359375,5.2459716796875
1663861834579516400,20.961516357421875,45.166015625,-12.7960205078125,5.85784912109375
1663861834599749600,20.98174951171875,43.95294189453125,-12.5,5.24749755859375
1663861834619677400,21.001677490234375,44.58770751953125,-11.3006591796875,3.12042236328125
1663861834639483400,21.0214833984375,44.41375732421875,-12.21466064453125,2.9632568359375
1663861834659472400,21.041472412109375,45.452880859375,-13.56353759765625,4.78668212890625
1663861834679461400,21.06146142578125,45.172119140625,-12.493896484375,5.55419921875
1663861834699450400,21.081450439453125,44.55718994140625,-12.6617431640625,3.875732421875
1663861834719439400,21.101439453125,44.5892333984375,-11.28997802734375,4.339599609375
1663861834739428400,21.121428466796875,44.71588134765625,-12.49542236328125,5.55419921875
1663861834759417600,21.14141748046875,44.26116943359375,-12.34893798828125,4.94384765625
1663861834779406600,21.161406494140625,46.6766357421875,-13.41094970703125,4.63714599609375
1663861834799395600,21.1813955078125,45.3369140625,-11.895751953125,4.33807373046875
1663861834819354000,21.20135400390625,43.52264404296875,-11.28387451171875,5.40618896484375
1663861834839373600,21.22137353515625,44.85626220703125,-12.9608154296875,4.33197021484375
1663861834859362600,21.241362548828125,45.7977294921875,-11.7462158203125,4.034423828125
1663861834879351600,21.2613515625,44.71282958984375,-12.50762939453125,4.02984619140625
1663861834899340500,21.281340576171875,43.93310546875,-13.27056884765625,4.0252685546875
1663861834919329500,21.30132958984375,45.17822265625,-12.19635009765625,4.7943115234375
1663861834939288000,21.3212880859375,45.3369140625,-11.895751953125,4.33807373046875
1663861834959307500,21.3413076171875,44.73114013671875,-11.74774169921875,4.03289794921875
1663861834979296500,21.361296630859375,44.73876953125,-11.43798828125,4.79736328125
1663861834999285800,21.38128564453125,44.71435546875,-12.50152587890625,4.791259765625
1663861835019274800,21.401274658203125,45.3369140625,-11.90032958984375,3.88031005859375
1663861835039263700,21.421263671875,46.124267578125,-10.8306884765625,4.34417724609375
1663861835059252700,21.441252685546875,45.34454345703125,-11.5966796875,3.8818359375
1663861835079241700,21.46124169921875,44.720458984375,-12.2100830078125,3.4210205078125
1663861835099230700,21.481230712890625,46.43707275390625,-10.51483154296875,5.71746826171875
1663861835119219700,21.5012197265625,43.95904541015625,-12.19940185546875,4.79278564453125
1663861835139208700,21.521208740234375,46.4111328125,-11.5936279296875,3.88336181640625
1663861835159197700,21.54119775390625,43.951416015625,-12.5030517578125,4.791259765625
1663861835179186700,21.561186767578125,44.42596435546875,-11.74468994140625,4.49066162109375
1663861835199175700,21.58117578125,45.123291015625,-14.63470458984375,4.0191650390625
1663861835219164700,21.60116455078125,44.73114013671875,-11.74774169921875,4.03289794921875
1663861835239154000,21.62115380859375,45.64208984375,-11.90032958984375,3.8818359375
1663861835259143000,21.641142822265625,45.64208984375,-11.90032958984375,3.8818359375
1663861835279132000,21.6611318359375,43.84307861328125,-10.5377197265625,3.58123779296875
1663861835299121000,21.681120849609375,44.5770263671875,-11.8896484375,5.4046630859375
1663861835319110000,21.70110986328125,46.405029296875,-11.90032958984375,3.57666015625
1663861835339099000,21.721098876953125,45.3033447265625,-13.42010498046875,3.87420654296875
1663861835359057400,21.741057373046875,43.93463134765625,-13.2659912109375,4.4830322265625
1663861835379076900,21.761076904296875,43.9453125,-12.8082275390625,4.78973388671875
1663861835399065900,21.78106591796875,46.099853515625,-11.89422607421875,4.339599609375
1663861835419054800,21.801054931640625,46.5179443359375,-13.5772705078125,2.960205078125
1663861835439043800,21.8210439453125,45.66650390625,-10.83526611328125,3.88641357421875
1663861835459032800,21.84103271484375,44.268798828125,-11.90948486328125,3.11737060546875
1663861835479357700,21.861357666015625,44.86846923828125,-12.36419677734375,3.1158447265625
1663861835499255000,21.881255126953125,44.83795166015625,-13.73138427734375,3.1097412109375
1663861835519030500,21.901030517578125,46.856689453125,-12.18719482421875,5.5572509765625
1663861835539019500,21.92101953125,45.46966552734375,-12.80670166015625,4.486083984375
1663861835558978000,21.94097802734375,45.3521728515625,-11.285400390625,4.64630126953125
1663861835578967000,21.960967041015625,45.33843994140625,-11.88507080078125,5.7098388671875
1663861835598956000,21.9809560546875,44.73724365234375,-11.4532470703125,2.96783447265625
1663861835618914600,22.00091455078125,45.8282470703125,-10.38360595703125,3.43170166015625
1663861835638934000,22.02093408203125,45.14617919921875,-13.57574462890625,3.4149169921875
1663861835658923000,22.040923095703125,44.25201416015625,-12.6708984375,2.80914306640625
1663861835678912000,22.060912109375,44.40155029296875,-12.81280517578125,4.0283203125
1663861835698901000,22.08090087890625,43.65386962890625,-12.200927734375,4.791259765625
1663861835718890200,22.10089013671875,43.93463134765625,-13.262939453125,4.78668212890625
1663861835738848500,22.1208486328125,43.95599365234375,-12.21771240234375,2.6580810546875
1663861835758868200,22.1408681640625,43.9910888671875,-10.69488525390625,2.97088623046875
1663861835778857200,22.160857177734375,43.07098388671875,-10.98480224609375,4.79736328125
1663861835798846200,22.18084619140625,43.8018798828125,-12.359619140625,3.87725830078125
1663861835818835200,22.200835205078125,44.72198486328125,-12.188720703125,5.859375
1663861835838824200,22.22082421875,46.1151123046875,-11.2823486328125,4.95147705078125
1663861835858813200,22.240813232421875,43.51959228515625,-11.30523681640625,2.81524658203125
1663861835878802200,22.26080224609375,43.05267333984375,-11.761474609375,2.96478271484375
1663861835898791200,22.280791259765625,44.71893310546875,-12.2161865234375,2.65960693359375
1663861835918780200,22.3007802734375,45.172119140625,-12.4969482421875,5.2490234375
1663861835938769400,22.320769287109375,45.17669677734375,-12.20855712890625,3.42254638671875
1663861835958758400,22.34075830078125,44.71282958984375,-12.51068115234375,3.72467041015625
1663861835978747400,22.360747314453125,43.20220947265625,-11.9049072265625,3.8787841796875
1663861835998736400,22.380736328125,44.2535400390625,-12.65869140625,4.33349609375
1663861836018725400,22.400725341796875,44.5587158203125,-12.6556396484375,4.638671875
1663861836038714400,22.42071435546875,46.22039794921875,-13.26751708984375,3.72314453125
1663861836058703400,22.440703369140625,44.58160400390625,-11.60125732421875,3.57666015625
1663861836078692400,22.4606923828125,46.07696533203125,-12.95623779296875,4.638671875
1663861836098681300,22.480681396484375,43.646240234375,-12.51373291015625,3.72314453125
1663861836118670300,22.50067041015625,45.77484130859375,-12.80975341796875,4.02984619140625
1663861836138659300,22.520659423828125,44.573974609375,-11.90185546875,3.88031005859375
1663861836158648300,22.5406484375,44.27642822265625,-11.59820556640625,3.8818359375
1663861836178637600,22.560637451171875,45.4833984375,-12.20245361328125,4.0313720703125
1663861836198626600,22.58062646484375,45.4925537109375,-11.7462158203125,4.034423828125
1663861836218584800,22.600584716796874,45.17822265625,-12.2039794921875,4.0313720703125
1663861836238604500,22.6206044921875,45.61920166015625,-12.9547119140625,4.94232177734375
1663861836258593500,22.640593505859375,44.8638916015625,-12.65411376953125,4.638671875
1663861836278552000,22.660552001953125,44.40155029296875,-12.81585693359375,3.72314453125
1663861836298571500,22.680571533203125,44.4091796875,-12.50457763671875,4.486083984375
1663861836318560500,22.700560546875,44.71588134765625,-12.49542236328125,5.55419921875
1663861836338519000,22.72051904296875,43.4906005859375,-12.664794921875,3.875732421875
1663861836358538500,22.74053857421875,43.64013671875,-12.8082275390625,4.78973388671875
1663861836378863400,22.76086328125,43.32427978515625,-13.27056884765625,4.02374267578125
1663861836398608100,22.780608154296875,44.26116943359375,-12.34893798828125,4.94384765625
1663861836418536200,22.8005361328125,44.84405517578125,-13.43231201171875,2.50091552734375
1663861836438494700,22.82049462890625,45.18890380859375,-11.74774169921875,4.034423828125
1663861836458483700,22.840483642578125,45.3369140625,-11.90643310546875,3.118896484375
1663861836478503200,22.860503173828125,45.17822265625,-12.2039794921875,4.0313720703125
1663861836498461700,22.880461669921875,45.50018310546875,-11.43951416015625,4.49371337890625
1663861836518420200,22.900420166015625,45.19500732421875,-11.43951416015625,4.4921875
1663861836538439700,22.920439697265625,43.51654052734375,-11.5875244140625,5.4046630859375
1663861836558428700,22.9404287109375,44.8699951171875,-12.353515625,4.33502197265625
1663861836578417700,22.960417724609375,44.86236572265625,-12.6678466796875,3.11431884765625
1663861836598406700,22.98040673828125,43.8018798828125,-12.359619140625,3.87725830078125
1663861836618395600,23.000395751953125,45.3125,-12.969970703125,3.11431884765625
1663861836638384600,23.020384521484374,44.85626220703125,-12.9608154296875,4.33197021484375
1663861836658374000,23.040373779296875,44.403076171875,-12.80670166015625,4.78973388671875
1663861836678363000,23.06036279296875,45.1873779296875,-11.749267578125,3.729248046875
1663861836698351900,23.080351806640625,44.36798095703125,-14.32647705078125,4.7821044921875
1663861836718340900,23.1003408203125,45.46966552734375,-12.80670166015625,4.486083984375
1663861836738329900,23.120329833984375,45.4925537109375,-11.7523193359375,3.424072265625
1663861836758318800,23.14031884765625,45.6329345703125,-12.34893798828125,4.6417236328125
1663861836778307800,23.160307861328125,45.62835693359375,-12.6373291015625,6.46820068359375
1663861836798296800,23.180296875,43.95904541015625,-12.20245361328125,4.48760986328125
1663861836818285800,23.200285888671875,45.17822265625,-12.2039794921875,4.0313720703125
1663861836838274800,23.22027490234375,44.86236572265625,-12.6617431640625,3.87725830078125
1663861836858263800,23.240263916015625,44.72198486328125,-12.19482421875,5.25054931640625
1663861836878252800,23.260252685546874,45.3033447265625,-13.41705322265625,4.3304443359375
1663861836898242000,23.280241943359375,45.3369140625,-11.90338134765625,3.57666015625
1663861836918231000,23.30023095703125,45.458984375,-13.262939453125,4.48455810546875
1663861836938220000,23.320219970703125,44.58160400390625,-11.5936279296875,4.33807373046875
1663861836958209000,23.340208984375,44.2352294921875,-13.42315673828125,3.8726806640625
1663861836978198000,23.360197998046875,45.33843994140625,-11.89117431640625,4.94842529296875
1663861836998187000,23.38018701171875,45.64971923828125,-11.59210205078125,4.339599609375
1663861837018176000,23.400176025390625,45.3125,-12.9638671875,3.875732421875
1663861837038165000,23.4201650390625,45.3155517578125,-12.9425048828125,6.4666748046875
1663861837058154000,23.440154052734375,44.8699951171875,-12.34893798828125,4.94537353515625
1663861837078143000,23.46014306640625,45.49407958984375,-11.7431640625,4.4921875
1663861837098132000,23.480132080078125,44.7479248046875,-10.98480224609375,4.49371337890625
1663861837118090500,23.500090576171875,43.4967041015625,-12.3565673828125,4.33349609375
1663861837138110200,23.520110107421875,43.9666748046875,-11.7584228515625,2.96630859375
1663861837158099200,23.54009912109375,44.281005859375,-11.309814453125,2.0538330078125
1663861837178088200,23.560088134765625,45.477294921875,-12.5,4.79278564453125
1663861837198077200,23.5800771484375,45.47576904296875,-12.506103515625,4.02984619140625
1663861837218066200,23.600066162109375,46.246337890625,-12.1978759765625,4.49066162109375
1663861837238055200,23.62005517578125,43.9849853515625,-10.99853515625,2.9693603515625
1663861837258410500,23.640410400390625,45.758056640625,-13.5589599609375,5.24444580078125
1663861837278185700,23.660185791015625,45.17822265625,-12.2039794921875,4.0313720703125
1663861837298022100,23.680022216796875,46.40350341796875,-11.9049072265625,3.12042236328125
1663861837317980700,23.699980712890625,44.86236572265625,-12.6617431640625,3.87725830078125
1663861837338000100,23.720000244140625,44.8699951171875,-12.3504638671875,4.64019775390625
1663861837357989400,23.7399892578125,45.32623291015625,-12.36572265625,2.81219482421875
1663861837377978400,23.759978271484375,45.49407958984375,-11.7401123046875,4.79583740234375
1663861837397967400,23.77996728515625,45.3277587890625,-12.35198974609375,4.3365478515625
1663861837417956400,23.799956298828125,44.75555419921875,-10.68115234375,4.4952392578125
1663861837437945300,23.8199453125,44.27032470703125,-11.8988037109375,4.3365478515625
1663861837457903900,23.83990380859375,43.95904541015625,-12.20245361328125,4.48760986328125
1663861837477923300,23.85992333984375,46.26312255859375,-11.43798828125,4.49371337890625
1663861837497912300,23.879912353515625,45.1873779296875,-11.7523193359375,3.424072265625
1663861837517901300,23.8999013671875,44.2779541015625,-11.58905029296875,4.94842529296875
1663861837537890300,23.919890380859375,44.2596435546875,-12.35504150390625,4.33502197265625
1663861837557879300,23.93987939453125,44.598388671875,-10.84136962890625,3.58123779296875
1663861837577868300,23.959868408203125,46.38824462890625,-12.65411376953125,4.33502197265625
1663861837597857500,23.979857421875,44.21844482421875,-14.178466796875,4.32586669921875
1663861837617815800,23.99981591796875,45.18890380859375,-11.74774169921875,4.034423828125
1663861837637835500,24.01983544921875,46.11358642578125,-11.28692626953125,4.3426513671875
1663861837657824500,24.039824462890625,43.99261474609375,-10.67962646484375,4.8004150390625
1663861837677813500,24.0598134765625,45.50018310546875,-11.44256591796875,4.03594970703125
1663861837697777200,24.079777099609377,44.42596435546875,-11.7431640625,4.79583740234375
1663861837717735700,24.099735595703127,44.2779541015625,-11.58294677734375,5.7098388671875
1663861837737755100,24.119755126953127,43.96820068359375,-11.75537109375,3.42254638671875
1663861837757744000,24.139744140625,44.58160400390625,-11.59820556640625,3.8818359375
1663861837777733400,24.1597333984375,45.81451416015625,-10.9954833984375,2.97088623046875
1663861837797722400,24.179722412109374,45.62530517578125,-12.6617431640625,3.57208251953125
1663861837817711400,24.19971142578125,44.38323974609375,-13.5772705078125,3.4149169921875
1663861837837700400,24.219700439453124,44.74029541015625,-11.42578125,6.32171630859375
1663861837857689300,24.239689453125,44.5404052734375,-13.4185791015625,4.3304443359375
1663861837877678300,24.25967822265625,45.35064697265625,-11.29302978515625,3.88336181640625
1663861837897667300,24.279667236328127,45.8282470703125,-10.38665771484375,2.97393798828125
1663861837917656300,24.29965625,44.76165771484375,-10.38360595703125,3.7353515625
1663861837937645300,24.319645263671877,45.63140869140625,-12.35504150390625,3.8787841796875
1663861837957634300,24.33963427734375,44.7296142578125,-11.75994873046875,2.6611328125
1663861837977623300,24.359623291015627,44.366455078125,-14.33563232421875,3.71551513671875
1663861837997581800,24.379581787109377,44.27032470703125,-11.895751953125,4.6417236328125
1663861838017601500,24.3996015625,44.2840576171875,-11.2884521484375,4.644775390625
1663861838037590500,24.419590576171874,43.63861083984375,-12.8173828125,3.72161865234375
1663861838057579500,24.43957958984375,46.40350341796875,-11.9049072265625,3.12042236328125
1663861838077568500,24.459568603515624,44.73724365234375,-11.4532470703125,2.96783447265625
1663861838097588000,24.479587890625,45.477294921875,-12.5,4.79278564453125
1663861838117546500,24.49954638671875,45.32623291015625,-12.3565673828125,3.8787841796875
1663861838137810200,24.51981005859375,45.3125,-12.9730224609375,2.80914306640625
1663861838157738200,24.53973828125,46.24481201171875,-12.200927734375,4.03289794921875
1663861838177513500,24.559513427734377,45.172119140625,-12.4969482421875,5.2490234375
1663861838197502500,24.57950244140625,44.390869140625,-13.2720947265625,3.7200927734375
1663861838217491500,24.599491455078127,45.17822265625,-12.19635009765625,4.7943115234375
1663861838237480400,24.61948046875,45.3369140625,-11.90032958984375,3.88031005859375
1663861838257469700,24.6394697265625,47.32208251953125,-11.7462158203125,3.7322998046875
1663861838277458700,24.659458740234374,43.66455078125,-11.7462158203125,4.4891357421875
1663861838297447700,24.67944775390625,43.34869384765625,-12.20703125,4.02984619140625
1663861838317436700,24.699436767578124,44.2352294921875,-13.4246826171875,3.5675048828125
1663861838337425700,24.71942578125,44.8455810546875,-13.41552734375,4.6356201171875
1663861838357414700,24.73941455078125,45.77484130859375,-12.80975341796875,4.02984619140625
1663861838377403600,24.759403564453127,43.95751953125,-12.20550537109375,4.02984619140625
1663861838397392600,24.779392578125,45.172119140625,-12.5030517578125,4.48760986328125
1663861838417351200,24.79935107421875,44.22760009765625,-13.72833251953125,3.56597900390625
1663861838437370600,24.81937060546875,45.17822265625,-12.20550537109375,3.7261962890625
1663861838457359600,24.839359619140627,44.73114013671875,-11.75079345703125,3.729248046875
1663861838477318100,24.859318115234377,44.5587158203125,-12.65869140625,4.33349609375
1663861838497337900,24.879337890625,44.71282958984375,-12.50762939453125,4.02984619140625
1663861838517326800,24.899326904296874,46.83074951171875,-13.2659912109375,3.72314453125
1663861838537285400,24.919285400390624,45.19500732421875,-11.44866943359375,3.42559814453125
1663861838557304800,24.939304931640624,44.5831298828125,-11.59210205078125,4.64324951171875
1663861838577293800,24.9592939453125,43.646240234375,-12.5152587890625,3.41949462890625
1663861838597282800,24.97928271484375,44.2596435546875,-12.35198974609375,4.64019775390625
1663861838617271800,24.999271728515627,46.2554931640625,-11.74774169921875,3.73077392578125
1663861838637260800,25.0192607421875,46.246337890625,-12.1978759765625,4.49066162109375
1663861838657249800,25.039249755859377,45.458984375,-13.26904296875,3.72161865234375
1663861838677238800,25.05923876953125,46.2066650390625,-13.87481689453125,3.7200927734375
1663861838697258500,25.079258544921874,44.7479248046875,-10.99090576171875,3.7322998046875
1663861838717217000,25.099217041015624,45.343017578125,-11.602783203125,3.12042236328125
1663861838737206000,25.1192060546875,44.73876953125,-11.43341064453125,5.25360107421875
1663861838757195000,25.139195068359374,43.20831298828125,-11.6119384765625,2.508544921875
1663861838777184000,25.15918408203125,45.79925537109375,-11.74163818359375,4.4921875
1663861838797173000,25.179173095703124,43.66455078125,-11.7401123046875,5.2520751953125
1663861838817162000,25.199161865234377,43.63861083984375,-12.8173828125,3.72161865234375
1663861838837151000,25.21915087890625,44.598388671875,-10.84442138671875,3.12347412109375
1663861838857140000,25.239139892578127,46.10748291015625,-11.590576171875,4.34112548828125
1663861838877129000,25.25912890625,44.76318359375,-10.36834716796875,5.56488037109375
1663861838897118000,25.279117919921877,44.40765380859375,-12.51373291015625,3.41949462890625
1663861838917076500,25.299076416015627,45.35980224609375,-10.8428955078125,3.12347412109375
1663861838937096000,25.319095947265627,43.29376220703125,-14.63470458984375,4.47540283203125
1663861838957085200,25.339085205078124,44.5648193359375,-12.35809326171875,3.87725830078125
1663861838977074200,25.35907421875,43.81256103515625,-11.90032958984375,4.3365478515625
1663861838997063200,25.379063232421874,44.71282958984375,-12.51678466796875,2.9632568359375
1663861839017387800,25.3993876953125,43.97735595703125,-11.43341064453125,5.55877685546875
1663861839037315800,25.41931591796875,44.27032470703125,-11.89422607421875,4.9468994140625
1663861839057091000,25.439091064453127,44.720458984375,-12.200927734375,4.4891357421875
1663861839077019100,25.45901904296875,45.782470703125,-12.4908447265625,5.859375
1663861839097008000,25.479008056640627,45.1904296875,-11.7340087890625,5.55877685546875
1663861839116997000,25.4989970703125,44.55718994140625,-12.6617431640625,3.875732421875
1663861839136986000,25.518986083984377,45.80535888671875,-11.44256591796875,4.03594970703125
1663861839156975000,25.53897509765625,46.38671875,-12.65869140625,3.8787841796875
1663861839176964000,25.558964111328127,43.94683837890625,-12.79449462890625,6.3140869140625
1663861839196953300,25.578953369140624,46.2615966796875,-11.444091796875,3.7322998046875
1663861839216942300,25.5989423828125,44.27032470703125,-11.89422607421875,4.9468994140625
1663861839236931300,25.618931396484374,44.71435546875,-12.50457763671875,4.48760986328125
1663861839256920300,25.63892041015625,45.64971923828125,-11.5875244140625,4.949951171875
1663861839276909300,25.658909423828124,46.246337890625,-12.19482421875,4.7943115234375
1663861839296898300,25.678898193359377,44.27642822265625,-11.59820556640625,3.8818359375
1663861839316887300,25.69888720703125,45.78857421875,-12.19635009765625,4.7943115234375
1663861839336876300,25.718876220703127,46.08306884765625,-12.652587890625,4.64019775390625
1663861839356865300,25.738865234375,45.4925537109375,-11.749267578125,3.729248046875
1663861839376854300,25.758854248046877,44.85626220703125,-12.95928955078125,4.63714599609375
1663861839396874000,25.7788740234375,43.95904541015625,-12.19635009765625,5.2490234375
1663861839416832300,25.798832275390627,45.14617919921875,-13.57421875,3.7200927734375
1663861839436821500,25.818821533203124,44.720458984375,-12.20703125,3.7261962890625
1663861839456810500,25.838810546875,43.6553955078125,-12.19329833984375,5.55419921875
1663861839476799500,25.858799560546874,44.7296142578125,-11.75994873046875,2.6611328125
1663861839496788500,25.87878857421875,43.81256103515625,-11.90032958984375,4.3365478515625
1663861839516777500,25.898777587890624,45.51849365234375,-10.67657470703125,4.80194091796875
1663861839536736000,25.918736083984374,44.8638916015625,-12.65411376953125,4.638671875
1663861839556755500,25.93875537109375,44.2840576171875,-11.2884521484375,4.644775390625
1663861839576744400,25.958744384765627,45.30181884765625,-13.42926025390625,2.80609130859375
1663861839596733400,25.9787333984375,44.5831298828125,-11.59210205078125,4.64324951171875
1663861839616722400,25.998722412109377,43.072509765625,-10.97869873046875,5.55877685546875
1663861839636711400,26.01871142578125,44.5587158203125,-12.65869140625,4.33349609375
1663861839656700700,26.03870068359375,44.2718505859375,-11.8896484375,5.40313720703125
1663861839676689700,26.058689697265624,44.4091796875,-12.5091552734375,4.02984619140625
1663861839696678700,26.0786787109375,45.60546875,-13.4307861328125,2.50244140625
1663861839716667600,26.098667724609374,43.8018798828125,-12.35504150390625,4.33349609375
1663861839736656600,26.11865673828125,45.172119140625,-12.50152587890625,4.79278564453125
1663861839756645600,26.138645751953124,43.9849853515625,-10.9893798828125,4.03594970703125
1663861839776634600,26.158634521484377,45.77484130859375,-12.80975341796875,4.02984619140625
1663861839796623600,26.17862353515625,44.75555419921875,-10.6781005859375,4.8004150390625
1663861839816612600,26.198612548828127,45.6573486328125,-11.2823486328125,4.95147705078125
1663861839836601600,26.2186015625,46.24481201171875,-12.2039794921875,3.72772216796875
1663861839856560000,26.23856005859375,45.78857421875,-12.1978759765625,4.4891357421875
1663861839876579600,26.25857958984375,44.854736328125,-12.97149658203125,3.11279296875
1663861839896568800,26.27856884765625,44.43206787109375,-11.4501953125,3.42559814453125
1663861839916893400,26.2988935546875,45.1629638671875,-12.8204345703125,2.96173095703125
1663861839936669000,26.3186689453125,43.66302490234375,-11.75384521484375,3.72772216796875
1663861839956535800,26.338535888671874,43.92852783203125,-13.568115234375,4.78515625
1663861839976555300,26.35855517578125,46.826171875,-13.55438232421875,5.5511474609375
1663861839996513800,26.378513671875,43.22662353515625,-10.84136962890625,3.88336181640625
1663861840016502800,26.398502685546877,44.88067626953125,-11.8927001953125,4.9468994140625
1663861840036491800,26.41849169921875,46.2646484375,-11.43035888671875,5.25665283203125
1663861840056480800,26.438480712890627,44.2596435546875,-12.35504150390625,4.33502197265625
1663861840076469800,26.4584697265625,43.39141845703125,-10.36834716796875,5.86700439453125
1663861840096458800,26.478458740234377,44.41375732421875,-12.2222900390625,1.89666748046875
1663861840116447700,26.49844775390625,44.5831298828125,-11.58905029296875,4.94842529296875
1663861840136437000,26.51843701171875,44.25811767578125,-12.36572265625,3.1158447265625
1663861840156426000,26.538426025390624,45.17822265625,-12.19940185546875,4.4891357421875
1663861840176415000,26.5584150390625,44.86846923828125,-12.36572265625,2.8106689453125
1663861840196373500,26.57837353515625,45.35064697265625,-11.29302978515625,3.88336181640625
1663861840216393000,26.59839306640625,43.66455078125,-11.7462158203125,4.4891357421875
1663861840236382000,26.6183818359375,43.01300048828125,-13.5711669921875,4.47998046875
1663861840256340500,26.638340576171874,43.060302734375,-11.44866943359375,4.03289794921875
1663861840276360000,26.65835986328125,44.44427490234375,-10.9832763671875,4.79888916015625
1663861840296349000,26.678348876953127,46.10748291015625,-11.58905029296875,4.644775390625
1663861840316338000,26.698337890625,44.40765380859375,-12.51373291015625,3.41949462890625
1663861840336327000,26.718326904296877,43.81256103515625,-11.90338134765625,3.8787841796875
1663861840356285400,26.738285400390627,42.5933837890625,-11.90032958984375,4.64019775390625
1663861840376305200,26.75830517578125,44.42596435546875,-11.7523193359375,3.72772216796875
1663861840396263400,26.778263427734377,44.4091796875,-12.5030517578125,4.791259765625
1663861840416283100,26.798283203125,44.8944091796875,-11.28082275390625,5.40771484375
1663861840436272000,26.818272216796874,45.50018310546875,-11.44256591796875,4.03594970703125
1663861840456230700,26.838230712890624,44.7479248046875,-10.98785400390625,4.0374755859375
1663861840476250000,26.85825,43.64013671875,-12.811279296875,4.48455810546875
1663861840496239000,26.878239013671877,44.39239501953125,-13.262939453125,4.7882080078125
1663861840516228000,26.89822802734375,45.30181884765625,-13.42926025390625,2.80609130859375
1663861840536217000,26.918217041015627,44.71282958984375,-12.50762939453125,4.02984619140625
1663861840556206000,26.9382060546875,44.390869140625,-13.2781982421875,2.95867919921875
1663861840576195000,26.958195068359377,44.708251953125,-12.80517578125,4.78973388671875
1663861840596184000,26.97818408203125,44.85626220703125,-12.95623779296875,4.94232177734375
1663861840616173300,26.99817333984375,45.77484130859375,-12.80364990234375,4.791259765625
1663861840636162300,27.018162353515624,44.68994140625,-13.57269287109375,4.02374267578125
1663861840656151300,27.0381513671875,46.10137939453125,-11.8896484375,4.94842529296875
1663861840676170800,27.058170654296877,45.61767578125,-12.9669189453125,3.570556640625
1663861840696129300,27.07812939453125,45.17974853515625,-12.19329833984375,5.25054931640625
1663861840716087800,27.098087890625,44.70672607421875,-12.8143310546875,3.72314453125
1663861840736107300,27.118107177734377,45.1385498046875,-13.88702392578125,2.6519775390625
1663861840756096300,27.13809619140625,43.682861328125,-10.9710693359375,6.32171630859375
1663861840776085200,27.158085205078127,46.2188720703125,-13.287353515625,1.4373779296875
1663861840796318500,27.178318359375,43.646240234375,-12.50457763671875,4.791259765625
1663861840816215800,27.1982158203125,42.8741455078125,-12.9608154296875,4.93927001953125
1663861840836083000,27.2180830078125,44.573974609375,-11.9049072265625,3.57513427734375
1663861840856041500,27.23804150390625,43.81256103515625,-11.90643310546875,3.57513427734375
1663861840876030500,27.258030517578124,44.000244140625,-10.37750244140625,4.49676513671875
1663861840896050000,27.2780498046875,45.33538818359375,-11.90948486328125,2.813720703125
