time,seconds_elapsed,z,y,x
1663860780759877000,0.242877197265625,6.086362361907959,0.21662652492523193,1.5263187885284424
1663860780769764900,0.252764892578125,2.68430233001709,-0.7980705499649048,1.191737413406372
1663860780779652600,0.262652587890625,1.6170215606689453,-0.9002276659011841,-0.4139893054962158
1663860780789540000,0.2725400390625,1.5030474662780762,-0.8023525476455688,-0.16534888744354248
1663860780799427800,0.282427734375,3.3439698219299316,-0.7809585332870483,0.389920711517334
1663860780809315600,0.292315673828125,4.39405632019043,-0.4107767343521118,0.36640191078186035
1663860780819203300,0.302203369140625,2.231776237487793,-0.22436213493347168,0.22026169300079346
1663860780829121500,0.31212158203125,1.800985336303711,-0.29714715480804443,0.00675654411315918
1663860780839009300,0.32200927734375,2.462721347808838,-0.2401273250579834,0.0072432756423950195
1663860780848896800,0.331896728515625,3.7236647605895996,-0.17674601078033447,0.13370907306671143
1663860780858784500,0.341784423828125,3.1761045455932617,-0.6373274326324463,0.10757392644882202
1663860780868611300,0.351611328125,0.8594493865966797,-1.4374300241470337,0.1374516487121582
1663860780878498800,0.361498779296875,-0.3527956008911133,-1.4534847736358643,0.7229946851730347
1663860780888356000,0.371356201171875,0.0345458984375,-1.2863779067993164,0.76547771692276
1663860780898274300,0.3812744140625,1.2793455123901367,-1.0458807945251465,0.6412748694419861
1663860780908162000,0.391162109375,2.7920188903808594,-0.9579867124557495,0.9573113918304443
1663860780918019000,0.40101904296875,2.9290618896484375,-1.2618929147720337,0.8189176321029663
1663860780927906800,0.41090673828125,1.23004150390625,-1.6077159643173218,-2.3238511085510254
1663860780937794600,0.420794677734375,-0.5855159759521484,-2.1013832092285156,-5.2501420974731445
1663860780947682300,0.430682373046875,-1.7551250457763672,-3.0405972003936768,-1.8543293476104736
1663860780957570000,0.440570068359375,-0.9173488616943359,-2.115814685821533,1.262023687362671
1663860780967457800,0.450457763671875,0.24808979034423828,-0.8001577854156494,1.451775074005127
1663860780977345300,0.46034521484375,-0.5804376602172852,-1.4047647714614868,0.6461960077285767
1663860780987233000,0.47023291015625,-0.8207321166992188,-3.3311636447906494,-0.583995521068573
1663860780997090300,0.48009033203125,-0.10365104675292969,-5.0809783935546875,-1.8654394149780273
1663860781006978000,0.48997802734375,0.6917896270751953,-5.0303955078125,-0.9292796850204468
1663860781016865500,0.499865478515625,1.8800201416015625,-4.105510711669922,1.1621315479278564
1663860781026753300,0.509753173828125,3.7041006088256836,-3.8890204429626465,1.851496696472168
1663860781036641000,0.51964111328125,4.638287544250488,-3.725423574447632,2.0802478790283203
1663860781046528800,0.52952880859375,3.6747303009033203,-2.913297414779663,3.3177132606506348
1663860781056385800,0.5393857421875,1.7923469543457031,-2.447453498840332,2.2515265941619873
1663860781066273500,0.5492734375,-1.3099784851074219,-3.277242660522461,0.750761866569519
1663860781076161300,0.559161376953125,-5.600424766540527,-3.3850479125976562,1.279676914215088
1663860781086018600,0.5690185546875,-8.001508712768555,-1.6477917432785034,3.1329736709594727
1663860781095936800,0.578936767578125,-6.833388805389404,-0.3599357604980469,4.223567008972168
1663860781105824300,0.58882421875,-4.522944927215576,-0.6725778579711914,4.427247047424316
1663860781115712000,0.5987119140625,-0.9004907608032227,-1.7404226064682007,3.5369019508361816
1663860781125599700,0.608599853515625,3.0622310638427734,-2.9741315841674805,3.0583784580230713
1663860781135487500,0.618487548828125,3.9319872856140137,-3.0881168842315674,3.918431043624878
1663860781145344500,0.628344482421875,2.216331958770752,-1.7987990379333496,5.5451202392578125
1663860781155232300,0.638232177734375,1.1331400871276855,0.1550605297088623,7.5419158935546875
1663860781165120000,0.6481201171875,-0.057790279388427734,1.7428209781646729,7.55649471282959
1663860781175007700,0.6580078125,-1.5739717483520508,1.828890085220337,6.906114101409912
1663860781184895500,0.6678955078125,-0.31078672409057617,0.7340397834777832,5.757022380828857
1663860781194783200,0.677783203125,2.0094804763793945,0.06205663084983826,4.492676734924316
1663860781204670700,0.687670654296875,1.6088275909423828,0.4713630676269531,3.821592330932617
1663860781214558500,0.697558349609375,0.3269972801208496,1.3435648679733276,3.9124937057495117
1663860781224446200,0.7074462890625,-0.6100039482116699,2.7217342853546143,4.348625183105469
1663860781234334000,0.717333984375,-0.7693743705749512,3.4587934017181396,4.474708557128906
1663860781244221700,0.7272216796875,0.9635906219482422,2.3459882736206055,3.202681064605713
1663860781254109200,0.737109130859375,3.688310146331787,2.6514711380004883,2.4795451164245605
1663860781263997000,0.746996826171875,3.847229480743408,3.2509653568267822,2.722017288208008
1663860781273854200,0.756854248046875,2.2162423133850098,3.5213117599487305,1.5093674659729004
1663860781283711200,0.766711181640625,0.1322498321533203,2.1169538497924805,-1.1015405654907227
1663860781293599000,0.776598876953125,-1.0409269332885742,1.4490793943405151,-2.1564908027648926
1663860781303486700,0.78648681640625,-2.2816076278686523,1.6986382007598877,-2.0018725395202637
1663860781313344000,0.796343994140625,-2.055583953857422,2.5308661460876465,-1.3024601936340332
1663860781323262200,0.80626220703125,-2.0584607124328613,1.4733173847198486,-1.9398293495178223
1663860781333119000,0.816118896484375,-0.9350028038024902,0.24314136803150177,-2.2260165214538574
1663860781343006700,0.8260068359375,-0.08499431610107422,-0.7461355924606323,-3.0371246337890625
1663860781352894500,0.83589453125,0.23533296585083008,-1.1397385597229004,-2.7229394912719727
1663860781362782000,0.845781982421875,1.1567254066467285,-0.6780800819396973,-1.345543384552002
1663860781372669700,0.855669677734375,1.5534043312072754,-0.2837669849395752,-1.2439460754394531
1663860781382557400,0.865557373046875,1.4697918891906738,-1.2198121547698975,-2.357086181640625
1663860781392445200,0.875445068359375,1.9043512344360352,-2.6277267932891846,-3.568439483642578
1663860781402333000,0.8853330078125,2.0588502883911133,-3.9960594177246094,-4.482509136199951
1663860781412220400,0.895220458984375,2.228053569793701,-5.136086463928223,-5.039483547210693
1663860781422108200,0.905108154296875,1.4171390533447266,-5.206511497497559,-4.645278453826904
1663860781431996000,0.914995849609375,-0.8062500953674316,-4.184795379638672,-3.140011787414551
1663860781441883600,0.924883544921875,-2.743867874145508,-2.9812426567077637,-1.485074520111084
1663860781451740700,0.93474072265625,-4.029066562652588,-2.349562644958496,-0.3521842956542969
1663860781461628400,0.94462841796875,-4.756615161895752,-3.0895791053771973,-0.4491243362426758
1663860781471516200,0.95451611328125,-4.445534706115723,-3.987788438796997,-0.2847561836242676
1663860781481404000,0.96440380859375,-4.281284332275391,-4.839493751525879,-0.2667808532714844
1663860781491261000,0.974260986328125,-3.8316164016723633,-5.153223037719727,-0.15654993057250977
1663860781501148700,0.984148681640625,-1.1213274002075195,-4.025679588317871,1.2278437614440918
1663860781511036400,0.994036376953125,0.5092329978942871,-3.008401393890381,3.189089775085449
1663860781520924200,1.003924072265625,1.3971376419067383,-2.5997743606567383,4.05443000793457
1663860781530812000,1.01381201171875,1.589503288269043,-2.8548309803009033,3.050199508666992
1663860781540699600,1.02369970703125,1.8821892738342285,-3.1612672805786133,0.569155216217041
1663860781550556700,1.033556640625,1.3729820251464844,-4.301290988922119,-1.0006914138793945
1663860781560475000,1.043474853515625,1.98606538772583,-4.554548263549805,0.18630075454711914
1663860781570362600,1.053362548828125,4.053149700164795,-3.692920207977295,1.9821553230285645
1663860781580250400,1.06325048828125,4.95013952255249,-3.756381034851074,2.4000725746154785
1663860781590138000,1.07313818359375,5.864945411682129,-5.5076823234558105,1.2770061492919922
1663860781599995100,1.0829951171875,6.1907148361206055,-5.245384216308594,0.7059030532836914
1663860781609883000,1.0928828125,3.249838352203369,-1.1638336181640625,2.9929275512695312
1663860781619740200,1.102740234375,1.0243680477142334,-1.2042655944824219,3.409954071044922
1663860781629658400,1.112658447265625,1.2603449821472168,-1.1919922828674316,1.5951428413391113
1663860781639545900,1.1225458984375,2.728070020675659,-0.8926968574523926,1.3979301452636719
1663860781649433600,1.13243359375,4.841337203979492,0.009136199951171875,4.487525463104248
1663860781659321300,1.1423212890625,8.469162940979004,1.2642788887023926,10.083650588989258
1663860781669209000,1.152208984375,11.363154411315918,3.3190059661865234,13.327986717224121
1663860781679066000,1.162066162109375,10.796937942504883,2.700716972351074,13.926050186157227
1663860781688953900,1.171953857421875,9.925445556640625,4.017720699310303,12.777632713317871
1663860781698841600,1.181841552734375,8.454267501831055,5.381546497344971,10.716768264770508
1663860781708729300,1.191729248046875,3.946965456008911,4.4656524658203125,7.947755813598633
1663860781718586400,1.20158642578125,-0.7048888206481934,3.790253162384033,4.418066501617432
1663860781728474000,1.21147412109375,-2.2661852836608887,4.9592695236206055,2.153761863708496
1663860781738361900,1.22136181640625,-0.9197328090667725,7.9510321617126465,3.212665557861328
1663860781748249600,1.23124951171875,-2.0211033821105957,8.00477409362793,7.407908916473389
1663860781758107000,1.24110693359375,-3.5460431575775146,7.060038089752197,10.010534286499023
1663860781768025000,1.251025146484375,0.9052844047546387,7.64650297164917,10.608619689941406
1663860781777912600,1.26091259765625,2.8522093296051025,7.723267078399658,9.773157119750977
1663860781787800300,1.27080029296875,0.3543062210083008,7.040182113647461,6.905570983886719
1663860781797657600,1.28065771484375,-2.299497127532959,6.891297340393066,3.810272216796875
1663860781807545300,1.29054541015625,-4.549770355224609,6.922245025634766,1.2778501510620117
1663860781817432800,1.300432861328125,-6.880545616149902,6.295632839202881,-1.7001619338989258
1663860781827320600,1.310320556640625,-10.531536102294922,5.309502601623535,-4.562614440917969
1663860781837208300,1.320208251953125,-11.283293724060059,3.0186266899108887,-7.1502275466918945
1663860781847096000,1.330095947265625,-12.139562606811523,-0.46132755279541016,-8.559651374816895
1663860781856983800,1.33998388671875,-12.381498336791992,-4.204977035522461,-10.10058879852295
1663860781866871300,1.349871337890625,-4.7783050537109375,-2.8989319801330566,-9.783211708068848
1663860781876759000,1.359759033203125,0.736281156539917,-5.719844818115234,-8.553006172180176
1663860781886646800,1.369646728515625,-2.6185669898986816,-4.596958160400391,-7.853838920593262
1663860781896534500,1.379534423828125,-4.837207317352295,-0.943906307220459,-6.5959367752075195
1663860781906422300,1.38942236328125,-2.5863914489746094,-0.975224494934082,-4.1878252029418945
1663860781916309800,1.399309814453125,-5.131069660186768,-0.420046329498291,-4.152055740356445
1663860781926197500,1.409197509765625,-4.162474632263184,-1.3980298042297363,-2.9249067306518555
1663860781936085200,1.419085205078125,-0.9477992653846741,-1.8633623123168945,-1.401102066040039
1663860781945973000,1.428972900390625,4.719542503356934,-1.9941606521606445,1.9550838470458984
1663860781955830300,1.438830322265625,1.54595148563385,-1.3653597831726074,3.676271438598633
1663860781965717800,1.4487177734375,3.830874443054199,-0.20147132873535156,1.7184715270996094
1663860781975605500,1.45860546875,4.243198394775391,-0.12891817092895508,0.3357515335083008
1663860781985493200,1.4684931640625,0.21195849776268005,-0.49477720260620117,-0.5999317169189453
1663860781995381000,1.478381103515625,-0.8088763952255249,1.354341983795166,-0.3857412338256836
1663860782005268700,1.488268798828125,-2.443354368209839,1.9246649742126465,0.8372421264648438
1663860782015125800,1.498125732421875,-2.510089159011841,0.722907543182373,1.127664566040039
1663860782024983000,1.507983154296875,-1.1799452304840088,-0.16063976287841797,0.20223426818847656
1663860782034870800,1.517870849609375,-0.7463304400444031,-0.7609028816223145,-0.21889305114746094
1663860782044727800,1.527727783203125,1.4022780656814575,-1.0408716201782227,0.5366544723510742
1663860782054615600,1.537615478515625,-0.5643207430839539,-0.8787975311279297,1.4064550399780273
1663860782064533800,1.54753369140625,-5.040325164794922,0.8056902885437012,3.332888603210449
1663860782074421500,1.55742138671875,-5.56548547744751,1.7166187763214111,3.270120620727539
1663860782084309200,1.567309326171875,-6.101722240447998,2.0240914821624756,1.505854606628418
1663860782094196700,1.57719677734375,-6.340658664703369,2.015742063522339,1.9217033386230469
1663860782104084500,1.58708447265625,-6.404933929443359,1.674328327178955,3.863022804260254
1663860782113972200,1.59697216796875,-2.647838830947876,2.0701189041137695,3.7227697372436523
1663860782123860000,1.60685986328125,-0.7411907911300659,1.8888952732086182,3.1172828674316406
1663860782133747700,1.616747802734375,0.32587939500808716,2.2314579486846924,3.7440185546875
1663860782143635200,1.62663525390625,2.051140069961548,2.2159345149993896,4.193245887756348
1663860782153523000,1.63652294921875,1.9749298095703125,1.9375591278076172,3.9809999465942383
1663860782163410700,1.64641064453125,-0.5056166052818298,2.2993249893188477,4.805050849914551
1663860782173268000,1.65626806640625,-1.4063178300857544,1.9412672519683838,5.377251625061035
1663860782183155700,1.66615576171875,0.9693353772163391,0.8472206592559814,4.554248809814453
1663860782193043200,1.676043212890625,1.1634430885314941,0.7415542602539062,3.543323516845703
1663860782202931000,1.685930908203125,2.398392677307129,0.23443055152893066,2.7802610397338867
1663860782212788200,1.695788330078125,8.52704906463623,-2.1221306324005127,2.4621639251708984
1663860782222676000,1.705676025390625,12.184953689575195,-1.6996662616729736,2.2135963439941406
1663860782232533000,1.715532958984375,5.6646952629089355,-3.189821243286133,-1.9219446182250977
1663860782242451200,1.725451171875,1.8844358921051025,-2.8334531784057617,-6.846956253051758
1663860782252339000,1.7353388671875,0.9152690172195435,-3.5759716033935547,-8.167205810546875
1663860782262226700,1.745226806640625,5.230121612548828,-4.2503180503845215,-6.970086097717285
1663860782272114400,1.755114501953125,5.820681571960449,-5.05516242980957,-4.779980659484863
1663860782282002000,1.765001953125,3.8501484394073486,-5.069180488586426,-2.612624168395996
1663860782291889700,1.7748896484375,0.7017433643341064,-6.595600128173828,-2.008197784423828
1663860782301777400,1.78477734375,0.1859506368637085,-7.166319847106934,-4.055265426635742
1663860782311665200,1.7946650390625,3.7218034267425537,-6.384944915771484,-6.002063751220703
1663860782321522200,1.804522216796875,3.3319339752197266,-3.8605546951293945,-7.577356338500977
1663860782331410000,1.814409912109375,-0.8137378692626953,-4.505380630493164,-5.574834823608398
1663860782341297700,1.824297607421875,5.551980495452881,-3.6071577072143555,-2.4934024810791016
1663860782351185400,1.834185302734375,4.334164619445801,-1.354337215423584,-2.077549934387207
1663860782361073200,1.8440732421875,1.0926718711853027,-1.422844648361206,-2.2237281799316406
1663860782370960600,1.853960693359375,1.5874671936035156,-1.4767489433288574,1.3143587112426758
1663860782380848400,1.863848388671875,3.693528175354004,-0.26023101806640625,5.2933349609375
1663860782390705700,1.87370556640625,-0.048179179430007935,-1.0992951393127441,2.231271743774414
1663860782400593400,1.883593505859375,-2.111349582672119,-1.5294482707977295,0.003742218017578125
1663860782410481200,1.893481201171875,-1.593300223350525,-3.0989925861358643,-0.9679794311523438
1663860782420368600,1.90336865234375,-2.6025218963623047,-3.7561326026916504,-3.420792579650879
1663860782430256400,1.91325634765625,-4.647197723388672,-3.7613167762756348,-5.925907135009766
1663860782440144100,1.92314404296875,-3.823796272277832,-2.306849956512451,-8.44366455078125
1663860782450031900,1.933031982421875,-2.550183057785034,-3.5795044898986816,-7.763175010681152
1663860782459919600,1.942919677734375,-1.6595063209533691,-2.5215253829956055,-3.4342918395996094
1663860782469776600,1.952776611328125,-0.6916713714599609,-0.777097225189209,-2.1687631607055664
1663860782479634000,1.962634033203125,-1.4761810302734375,-0.9893989562988281,-3.8834266662597656
1663860782489521700,1.972521728515625,-1.7743504047393799,-2.280261993408203,-4.170126914978027
1663860782499409200,1.9824091796875,2.6267569065093994,-2.3315882682800293,-0.769782543182373
1663860782509297000,1.992296875,3.9368984699249268,-0.5290098190307617,1.789766788482666
1663860782519184600,2.0021845703125,5.405440807342529,0.11083984375,7.082595348358154
1663860782529072400,2.012072265625,7.123245716094971,1.0923118591308594,9.639803886413574
1663860782538960100,2.021960205078125,1.2734808921813965,1.926295280456543,8.741193771362305
1663860782548847600,2.03184765625,-7.533991813659668,6.160606861114502,11.482022285461426
1663860782558735400,2.0417353515625,-9.609455108642578,5.034228324890137,12.55065631866455
1663860782568623000,2.051623046875,-4.43205451965332,1.6889605522155762,8.523223876953125
1663860782578510800,2.0615107421875,-2.883162021636963,0.17012786865234375,4.204220294952393
1663860782588398600,2.071398681640625,-2.9328882694244385,-2.9608211517333984,-0.4072432518005371
1663860782598286000,2.0812861328125,-1.7875099182128906,-5.885912895202637,-5.179530620574951
1663860782608173800,2.091173828125,0.5601394176483154,-6.500378131866455,-9.583599090576172
1663860782618031000,2.101031005859375,1.364994764328003,-5.404681205749512,-11.315362930297852
1663860782627918800,2.1109189453125,-0.6149501800537109,-1.9174699783325195,-5.865469932556152
1663860782637806600,2.120806640625,-1.2392498254776,0.2490391731262207,-2.246920108795166
1663860782647694000,2.130694091796875,-1.5321197509765625,1.0744023323059082,-0.3268771171569824
1663860782657581800,2.140581787109375,-4.91654634475708,1.1028289794921875,1.5676779747009277
1663860782667470600,2.150470703125,-5.180891513824463,1.9422173500061035,3.763126850128174
1663860782677328000,2.160327880859375,-0.9503192901611328,2.4464173316955566,5.10991096496582
1663860782687215600,2.170215576171875,1.1718732118606567,1.7664604187011719,5.696835517883301
1663860782697103400,2.180103271484375,0.5347387790679932,0.5826840400695801,3.5394930839538574
1663860782706990800,2.189990966796875,-2.531959056854248,-0.8820047378540039,1.6320343017578125
1663860782716878600,2.199878662109375,-3.759551525115967,-1.7864570617675781,2.4022183418273926
1663860782726766300,2.209766357421875,-4.036616802215576,-2.184687614440918,2.8575005531311035
1663860782736654000,2.219654052734375,-3.5094857215881348,-2.6784629821777344,2.4774699211120605
1663860782746511000,2.229510986328125,-1.9855345487594604,-1.8701229095458984,2.8672170639038086
1663860782756368400,2.239368408203125,0.46102380752563477,-1.1629018783569336,2.5410056114196777
1663860782766256000,2.249256103515625,0.8802734613418579,-0.7988643646240234,2.2313151359558105
1663860782776144000,2.259143798828125,-2.837808609008789,-0.6903533935546875,2.178168535232544
1663860782786001000,2.2690009765625,-5.686446189880371,-0.8412933349609375,2.5466654300689697
1663860782795888600,2.278888671875,-4.4758687019348145,-0.7760076522827148,2.7258174419403076
1663860782805806800,2.288806884765625,-3.037674903869629,-1.9386987686157227,1.6973352432250977
1663860782815694600,2.298694580078125,-3.7918155193328857,-3.631516456604004,0.17429065704345703
1663860782825551600,2.308551513671875,-3.813845634460449,-4.341352462768555,-1.459144115447998
1663860782835469800,2.3184697265625,-1.3595565557479858,-2.748058319091797,-1.1446363925933838
1663860782845357600,2.328357666015625,1.100343942642212,-1.8649663925170898,-0.7516725063323975
1663860782855245300,2.338245361328125,1.2647407054901123,-2.7425222396850586,-1.2986985445022583
1663860782865102600,2.3481025390625,-0.8319346904754639,-4.928897857666016,-1.523683786392212
1663860782874959600,2.357959716796875,-0.9436628818511963,-8.668166160583496,-1.2047146558761597
1663860782884847400,2.367847412109375,0.0072040557861328125,-11.38967227935791,-1.5131592750549316
1663860782894735000,2.377735107421875,-2.1527280807495117,-15.475196838378906,-0.5096877813339233
1663860782904622800,2.387622802734375,-0.42316246032714844,-16.70700454711914,0.193536639213562
1663860782914479900,2.39747998046875,2.909208297729492,-13.752313613891602,2.823033332824707
1663860782924398000,2.407398193359375,2.970184087753296,-7.325387001037598,5.018382549285889
1663860782934285800,2.417285888671875,1.3712356090545654,-1.9071807861328125,2.500722646713257
1663860782944143000,2.42714306640625,0.8311572074890137,-1.5538721084594727,-2.8197600841522217
1663860782954061300,2.437061279296875,2.8566763401031494,-1.0907840728759766,-1.7159979343414307
1663860782963949000,2.446948974609375,8.86662483215332,6.7780303955078125,13.789904594421387
1663860782973806000,2.45680615234375,-0.27640771865844727,6.3963823318481445,2.698241949081421
1663860782983724300,2.466724365234375,7.814180850982666,7.252361297607422,1.4370687007904053
1663860782993581600,2.47658154296875,3.4052090644836426,3.4105615615844727,-2.1875576972961426
1663860783003469300,2.48646923828125,3.969452381134033,1.6325316429138184,-3.6673662662506104
1663860783013356800,2.496356689453125,3.2700648307800293,1.7994451522827148,-2.538015365600586
1663860783023244500,2.50624462890625,3.177083969116211,2.581495761871338,-1.280125379562378
1663860783033101800,2.516101806640625,4.056639671325684,2.674107074737549,-1.0816643238067627
1663860783043020000,2.52602001953125,4.44287109375,2.712465763092041,-0.888885498046875
1663860783052877000,2.535876953125,4.912655830383301,3.4153475761413574,-0.17198657989501953
1663860783062764800,2.545764892578125,4.795106410980225,4.197603225708008,0.8913917541503906
1663860783072652500,2.555652587890625,4.534888744354248,4.294057369232178,0.19321370124816895
1663860783082540300,2.565540283203125,4.4569993019104,4.148602485656738,-0.3921334743499756
1663860783092428000,2.575427978515625,4.279858112335205,4.754080772399902,0.6423747539520264
1663860783102315800,2.585315673828125,4.3165388107299805,5.332139015197754,1.3569958209991455
1663860783112203300,2.595203369140625,4.235601425170898,5.469936847686768,1.7500863075256348
1663860783122091000,2.605091064453125,3.910097599029541,5.189234733581543,2.165479898452759
1663860783131978800,2.614978759765625,3.315101146697998,4.744286060333252,2.363839626312256
1663860783141836000,2.6248359375,2.22632098197937,4.596065044403076,2.4699995517730713
1663860783151723500,2.6347236328125,0.7792410850524902,4.136264801025391,2.136728048324585
1663860783161611300,2.644611328125,-1.573352336883545,3.312067985534668,1.5011296272277832
1663860783171499000,2.6544990234375,-4.804459571838379,2.0783214569091797,0.8408653736114502
1663860783181386800,2.66438671875,-8.424453735351562,0.045027732849121094,0.1485447883605957
1663860783191274500,2.6742744140625,-12.153234481811523,-2.9065093994140625,-0.2548360824584961
1663860783201162000,2.684161865234375,-13.703198432922363,-6.638150215148926,-1.0842788219451904
1663860783211049700,2.6940498046875,-12.618871688842773,-11.398686408996582,-2.594021797180176
1663860783220937500,2.7039375,-13.453369140625,-15.659876823425293,-2.7723984718322754
1663860783230825200,2.7138251953125,-14.138853073120117,-17.090084075927734,-2.9654788970947266
1663860783240713000,2.723712890625,-10.480660438537598,-12.78911018371582,-3.2800822257995605
1663860783250600400,2.733600341796875,-6.32883882522583,-2.9772424697875977,-3.4266316890716553
1663860783260488200,2.74348828125,-3.0890402793884277,5.6080169677734375,-5.1436920166015625
1663860783270376000,2.7533759765625,-2.00179386138916,12.365654945373535,-2.0652425289154053
1663860783280263700,2.763263671875,-1.8983988761901855,14.037918090820312,2.480813980102539
1663860783290120700,2.77312060546875,-1.5300493240356445,7.252666473388672,2.0224666595458984
1663860783300008400,2.783008544921875,3.3207569122314453,-1.0898523330688477,-1.7320446968078613
1663860783309896200,2.792896240234375,7.376345157623291,-4.304558753967285,-0.5257596969604492
1663860783319784000,2.802783935546875,9.725566864013672,-6.0930023193359375,1.3309335708618164
1663860783329641200,2.81264111328125,4.095937728881836,-10.622759819030762,-1.4063775539398193
1663860783339528700,2.82252880859375,-6.463679313659668,-16.0726375579834,-1.534040927886963
1663860783349416400,2.83241650390625,-13.703794479370117,-17.5578556060791,4.5659379959106445
1663860783359304200,2.84230419921875,4.2276930809021,-11.549802780151367,4.907092571258545
1663860783369192000,2.85219189453125,22.97793960571289,1.114607810974121,-1.5963075160980225
1663860783379079700,2.86207958984375,18.276472091674805,10.97677230834961,-9.556416511535645
1663860783388967200,2.87196728515625,0.8297023773193359,11.68916130065918,-15.0198335647583
1663860783398824400,2.881824462890625,-16.765247344970703,6.694319725036621,-14.08150577545166
1663860783408712200,2.891712158203125,1.4597985744476318,3.501458168029785,-3.597301959991455
1663860783418600000,2.901599853515625,21.24849510192871,0.9420604705810547,3.9963274002075195
1663860783428487400,2.9114873046875,20.230228424072266,-0.22002506256103516,7.301807403564453
1663860783438375200,2.921375244140625,8.858431816101074,-2.4835710525512695,5.894324779510498
1663860783448263000,2.931262939453125,1.2268898487091064,-5.353221893310547,4.405389308929443
1663860783458150700,2.941150634765625,-0.6391534805297852,-6.395236968994141,4.915961265563965
1663860783468038400,2.951038330078125,2.5781304836273193,-6.8023223876953125,3.551471471786499
1663860783477926000,2.96092578125,3.0153510570526123,-6.659259796142578,1.4391419887542725
1663860783487783200,2.970783203125,0.2648355960845947,-5.156206130981445,0.42919230461120605
1663860783497671000,2.9806708984375,0.05727887153625488,-3.4179563522338867,-0.48351240158081055
1663860783507558700,2.99055859375,2.1409127712249756,-2.402406692504883,-1.3371894359588623
1663860783517415700,3.000415771484375,3.541145086288452,-1.700373649597168,-1.6695436239242554
1663860783527273000,3.01027294921875,3.2756385803222656,-0.9805641174316406,-1.6925724744796753
1663860783537191200,3.020191162109375,1.1759400367736816,-0.32426929473876953,-1.5186448097229004
1663860783547048400,3.03004833984375,-1.5388901233673096,0.1605968475341797,-1.3363690376281738
1663860783556936000,3.03993603515625,-2.158947467803955,0.5207901000976562,-1.5075550079345703
1663860783566854100,3.049854248046875,-1.1682630777359009,1.0637474060058594,-2.042379856109619
1663860783576711400,3.05971142578125,-0.479328453540802,1.8065366744995117,-2.2229557037353516
1663860783586599200,3.06959912109375,0.1595093458890915,2.1582021713256836,-1.488650918006897
1663860783596487000,3.07948681640625,0.8036826252937317,1.67919921875,-0.6279752254486084
1663860783606374400,3.08937451171875,0.3595794141292572,1.1333541870117188,0.2084900140762329
1663860783616231700,3.099231689453125,-0.0784544050693512,1.0212335586547852,1.1752547025680542
1663860783626150000,3.10914990234375,-0.35335278511047363,1.108311653137207,1.3840770721435547
1663860783636037600,3.11903759765625,-1.2972795963287354,1.0878543853759766,0.5525944232940674
1663860783645925400,3.12892529296875,-1.8338778018951416,1.2406587600708008,-0.7140141725540161
1663860783665670100,3.148670166015625,-2.8604538440704346,1.3694820404052734,-2.222548007965088
1663860783675558000,3.158557861328125,-3.089555263519287,1.5870380401611328,-1.313380479812622
1663860783685445600,3.168445556640625,-2.9468233585357666,1.8769655227661133,0.3417978286743164
1663860783695333000,3.1783330078125,-2.3450818061828613,1.4003658294677734,1.7035536766052246
1663860783705190400,3.1881904296875,-1.4472169876098633,0.19935321807861328,2.498198986053467
1663860783715078100,3.198078125,-1.474757432937622,-0.9673118591308594,3.2083024978637695
1663860783724966000,3.2079658203125,-2.8033738136291504,-1.7317008972167969,3.8144357204437256
1663860783734853400,3.217853271484375,-4.673216342926025,-2.2598304748535156,3.6732101440429688
1663860783744741000,3.2277412109375,-6.263149738311768,-2.623183250427246,3.0183961391448975
1663860783754628900,3.23762890625,-6.831116676330566,-2.8896493911743164,2.625732898712158
1663860783764516600,3.2475166015625,-5.119256496429443,-2.983682632446289,2.681074857711792
1663860783774404400,3.257404296875,-3.1792311668395996,-2.9119386672973633,3.111956834793091
1663860783784292000,3.2672919921875,-2.8341567516326904,-2.9482078552246094,3.7116615772247314
1663860783794179600,3.2771796875,-3.6338047981262207,-3.2535858154296875,4.145644187927246
1663860783804036900,3.287036865234375,-5.920492649078369,-3.74094295501709,4.243390083312988
1663860783813924600,3.296924560546875,-6.2900495529174805,-4.242030143737793,4.432944297790527
1663860783823812400,3.306812255859375,-3.3178954124450684,-4.572265625,4.841858863830566
1663860783833669400,3.31666943359375,-1.3598271608352661,-4.528450965881348,5.011541366577148
1663860783843557000,3.32655712890625,-2.4155235290527344,-4.325922012329102,4.788641929626465
1663860783853444900,3.33644482421875,-2.3490102291107178,-4.290087699890137,4.737442970275879
1663860783863332600,3.34633251953125,-2.268205165863037,-4.240983963012695,4.646003723144531
1663860783873220000,3.35622021484375,-2.1636486053466797,-4.179257392883301,4.516476154327393
1663860783883107800,3.36610791015625,-2.021871566772461,-4.109945297241211,4.3674702644348145
1663860783892995600,3.37599560546875,-1.834618330001831,-4.040079116821289,4.222688674926758
1663860783902852900,3.385852783203125,-1.5906615257263184,-3.9756317138671875,4.103895664215088
1663860783912740400,3.395740234375,-1.2831134796142578,-3.9238996505737305,4.032934665679932
1663860783922628000,3.405628173828125,-0.9277520179748535,-3.893098831176758,4.023036479949951
1663860783932515800,3.415515869140625,-0.5570455193519592,-3.8856382369995117,4.062124252319336
1663860783952291300,3.435291259765625,3.751912832260132,-7.648832321166992,-7.496357440948486
1663860783962178800,3.4451787109375,2.2758231163024902,-7.037546157836914,-7.303253650665283
1663860783972066600,3.455066650390625,-0.6822279691696167,-5.383155822753906,-3.645585536956787
1663860783981923800,3.464923828125,-2.746302604675293,-4.729641914367676,-1.0851259231567383
1663860783991811600,3.4748115234375,-1.5106319189071655,-5.134463310241699,0.8436763286590576
1663860784001729800,3.484729736328125,1.2220306396484375,-6.009870529174805,2.3319506645202637
1663860784011586800,3.4945869140625,2.849961280822754,-6.527427673339844,3.2134392261505127
1663860784021474600,3.504474609375,2.445922613143921,-6.449202537536621,4.017542839050293
1663860784031362300,3.5143623046875,2.083293914794922,-5.768169403076172,4.182483673095703
1663860784041250000,3.52425,2.0862343311309814,-4.311942100524902,2.84517765045166
1663860784051137800,3.5341376953125,2.9975152015686035,-2.729588508605957,1.5743950605392456
1663860784060994800,3.543994873046875,3.605074644088745,-0.9656858444213867,1.32114577293396
1663860784070913000,3.5539130859375,4.170762062072754,0.8556022644042969,1.0214810371398926
1663860784080800800,3.56380078125,5.539138317108154,2.4386415481567383,1.2853431701660156
1663860784090688500,3.5736884765625,5.745589256286621,3.8451881408691406,1.6892831325531006
1663860784100545500,3.583545654296875,5.914298057556152,4.616201400756836,1.4776031970977783
1663860784110433300,3.593433349609375,6.298162937164307,4.86338996887207,0.9661314487457275
1663860784120290600,3.60329052734375,6.622722148895264,4.915735244750977,0.4108487367630005
1663860784130208800,3.613208740234375,6.937307834625244,5.144251823425293,-0.060441017150878906
1663860784140096500,3.623096435546875,7.080182075500488,5.4558820724487305,-0.36131250858306885
1663860784149984000,3.63298388671875,7.162511348724365,5.645485877990723,-0.6855688095092773
1663860784159871700,3.642871826171875,7.206648349761963,5.793184280395508,-1.0434250831604004
1663860784169759500,3.652759521484375,7.462995529174805,6.249337196350098,-1.0385494232177734
1663860784179647200,3.662647216796875,7.758747100830078,6.480545997619629,-1.131289005279541
1663860784189535000,3.672534912109375,7.824096202850342,6.456297874450684,-1.2144054174423218
1663860784199392000,3.68239208984375,7.812484264373779,6.529660224914551,-1.0585365295410156
1663860784209279700,3.69227978515625,7.747640132904053,6.5722761154174805,-0.8771388530731201
1663860784219167500,3.70216748046875,7.4046454429626465,6.395503044128418,-0.7820122241973877
1663860784229055200,3.71205517578125,6.891504287719727,6.092453956604004,-0.634804368019104
1663860784238912300,3.721912353515625,5.966463088989258,5.779294967651367,-0.6569836139678955
1663860784248800000,3.731800048828125,3.8141303062438965,4.947685241699219,-0.8435566425323486
1663860784258687700,3.741687744140625,0.9568238258361816,3.319326400756836,-1.1582766771316528
1663860784268575500,3.751575439453125,-2.6120169162750244,1.4250946044921875,-1.5049904584884644
1663860784278463200,3.761463134765625,-7.341099739074707,-0.6113853454589844,-1.740081787109375
1663860784288350700,3.771350830078125,-9.549835205078125,-3.150601387023926,-1.1721237897872925
1663860784298238500,3.781238525390625,-10.079523086547852,-7.088255882263184,-1.0442121028900146
1663860784308126200,3.791126220703125,-17.29871940612793,-10.981531143188477,-1.5163743495941162
1663860784318014000,3.801013916015625,-26.123489379882812,-16.60866928100586,-2.6549620628356934
1663860784327901700,3.810901611328125,-16.641481399536133,-23.410621643066406,-5.257086753845215
1663860784337789200,3.8207890625,-6.200981616973877,-16.56027603149414,-1.0262700319290161
1663860784347646500,3.830646484375,-4.747984886169434,-2.9889917373657227,3.8354952335357666
1663860784357534200,3.8405341796875,-3.3937110900878906,5.042725563049316,2.62636137008667
1663860784367391200,3.85039111328125,-6.002856731414795,8.405210494995117,2.191671371459961
1663860784377309400,3.860309326171875,-0.36139678955078125,4.6605939865112305,0.6229205131530762
1663860784387197200,3.870197265625,17.586061477661133,-1.7744026184082031,1.831543207168579
1663860784397085000,3.8800849609375,19.342254638671875,-8.7099027633667,0.0014824867248535156
1663860784406972700,3.88997265625,-0.24832868576049805,-14.765437126159668,-6.296318531036377
1663860784416829700,3.89982958984375,-20.033855438232422,-17.37598419189453,-5.238327503204346
1663860784426687000,3.90968701171875,-11.445840835571289,-15.35292911529541,5.049973964691162
1663860784436605200,3.919605224609375,24.20747184753418,-1.8792762756347656,8.513373374938965
1663860784446493000,3.929492919921875,22.769386291503906,12.10370922088623,1.8087307214736938
1663860784456380700,3.939380615234375,9.980035781860352,14.35029125213623,-7.3583879470825195
1663860784466237700,3.94923779296875,-8.556367874145508,8.26521110534668,-12.855950355529785
1663860784476125400,3.95912548828125,-7.913157939910889,2.8282299041748047,-8.221636772155762
1663860784485982700,3.968982666015625,21.96653175354004,1.8817663192749023,4.457042694091797
1663860784495901000,3.97890087890625,26.39900779724121,1.758371353149414,8.652833938598633
1663860784505788700,3.98878857421875,7.775402545928955,-0.6205978393554688,3.5163121223449707
1663860784515645700,3.998645751953125,-2.308810234069824,-4.517997741699219,-1.2426342964172363
1663860784525564000,4.00856396484375,-1.9646720886230469,-7.429279327392578,-1.9380254745483398
1663860784535451600,4.01845166015625,2.9739909172058105,-8.350396156311035,-0.32606208324432373
1663860784545339400,4.02833935546875,4.572262763977051,-6.61112117767334,3.001675605773926
1663860784555227100,4.03822705078125,2.424483060836792,-5.259185791015625,4.097714900970459
1663860784565114600,4.048114501953125,1.3634064197540283,-4.492112159729004,2.38639497756958
1663860784575002400,4.05800244140625,1.8871865272521973,-3.070068359375,0.3284875154495239
1663860784584890000,4.06789013671875,2.277127265930176,-1.054701805114746,-0.7243566513061523
1663860784594777900,4.07777783203125,1.646141529083252,1.0541419982910156,-0.7402933835983276
1663860784604665600,4.08766552734375,1.0011866092681885,2.692072868347168,-1.1601601839065552
1663860784614553000,4.097552978515625,0.23014140129089355,3.454984664916992,-2.0102834701538086
1663860784624380000,4.1073798828125,-0.21976935863494873,3.46536922454834,-2.202414035797119
1663860784634267600,4.117267578125,0.47279685735702515,2.8712244033813477,-1.5098741054534912
1663860784644155100,4.127155029296875,1.0435283184051514,1.9434423446655273,-0.34602534770965576
1663860784654012400,4.137012451171875,0.7499678134918213,0.7724533081054688,0.5695011615753174
1663860784663930600,4.1469306640625,0.03653953969478607,0.05969429016113281,1.040218710899353
1663860784673818400,4.156818359375,-1.0488097667694092,-0.23449420928955078,1.2584720849990845
1663860784683706000,4.1667060546875,-1.4296627044677734,-0.2778444290161133,1.1147738695144653
1663860784693563100,4.176563232421875,-1.1673760414123535,0.27742862701416016,0.590364933013916
1663860784703420400,4.18642041015625,-1.5226120948791504,0.8590793609619141,-0.6005823612213135
1663860784713338600,4.196338623046875,-2.0462441444396973,1.3868303298950195,-1.83503258228302
1663860784723226400,4.206226318359375,-3.000514030456543,1.5265827178955078,-2.821610927581787
1663860784733114000,4.216114013671875,-4.395574569702148,1.394944190979004,-2.922976493835449
1663860784742971100,4.22597119140625,-4.946295261383057,1.1144914627075195,-2.1330344676971436
1663860784752889300,4.235889404296875,-4.394162178039551,0.7857122421264648,-0.4306635856628418
1663860784762746600,4.24574658203125,-2.6789159774780273,0.21566104888916016,1.3160371780395508
1663860784772634400,4.25563427734375,-0.9259713888168335,-0.6446208953857422,2.662485361099243
1663860784782491400,4.265491455078125,-0.6800662279129028,-1.2822370529174805,3.639493465423584
1663860784792409600,4.27540966796875,-1.7238714694976807,-1.5960350036621094,3.886132001876831
1663860784802297300,4.28529736328125,-3.5371928215026855,-1.8676795959472656,3.195466995239258
1663860784812154600,4.295154541015625,-5.834303855895996,-2.209282875061035,2.178551197052002
1663860784822042000,4.3050419921875,-6.955758094787598,-2.071840286254883,1.8983571529388428
1663860784831929900,4.314929931640625,-6.119219779968262,-1.787567138671875,2.8435847759246826
1663860784841817600,4.324817626953125,-2.9817848205566406,-2.118412971496582,4.322248935699463
1663860784851675000,4.3346748046875,-0.19521832466125488,-2.40914249420166,5.343111991882324
1663860784861562400,4.344562255859375,-0.6134815216064453,-2.522913932800293,5.515815734863281
1663860784871450000,4.3544501953125,-3.089256763458252,-3.562166213989258,5.024798393249512
1663860784881368300,4.364368408203125,-5.880005836486816,-5.490056037902832,4.136826515197754
1663860784891225600,4.3742255859375,-7.003843784332275,-6.665555953979492,3.876551628112793
1663860784901143800,4.384143798828125,-5.491767883300781,-7.090579032897949,3.89231538772583
1663860784911000800,4.394000732421875,-3.112675189971924,-6.620399475097656,3.922553062438965
1663860784920858000,4.403858154296875,-3.1085102558135986,-5.907975196838379,3.9491384029388428
1663860784930776300,4.4137763671875,-5.507734298706055,-5.70682430267334,3.193312168121338
1663860784940664000,4.4236640625,-7.558993339538574,-5.631357192993164,1.7181024551391602
1663860784950551800,4.4335517578125,-6.762679100036621,-5.588324546813965,0.1746358871459961
1663860784960439600,4.443439453125,-6.670328617095947,-6.071136474609375,-1.9217355251312256
1663860784970296600,4.453296630859375,-7.438116073608398,-6.9288434982299805,-4.200068473815918
1663860784980214800,4.46321484375,-4.26895809173584,-6.169599533081055,-5.718414306640625
1663860784990072000,4.473072021484375,1.8239340782165527,-4.7734527587890625,-5.704879283905029
1663860784999929000,4.48292919921875,6.227553844451904,-4.651219367980957,-4.661342144012451
1663860785009847300,4.492847412109375,6.3717498779296875,-6.633623123168945,-4.633723735809326
1663860785019735000,4.502735107421875,5.118982791900635,-9.493386268615723,-6.763792991638184
1663860785029592300,4.51259228515625,4.373971462249756,-10.559564590454102,-8.354005813598633
1663860785039510500,4.522510498046875,3.193544387817383,-8.274538040161133,-5.754974365234375
1663860785049398300,4.532398193359375,1.3714725971221924,-5.696876525878906,-2.468024253845215
1663860785059285800,4.54228564453125,-0.32633209228515625,-5.212557792663574,-1.1208350658416748
1663860785069173500,4.552173583984375,0.40899181365966797,-5.87111759185791,-0.3941079378128052
1663860785079061200,4.562061279296875,1.1139788627624512,-6.70493221282959,0.8030663728713989
1663860785088949000,4.571948974609375,1.4738759994506836,-7.191167831420898,2.1334214210510254
1663860785098836700,4.581836669921875,3.319931983947754,-7.087807655334473,2.536849021911621
1663860785108693800,4.59169384765625,3.79008150100708,-5.288753509521484,3.2697668075561523
1663860785118581500,4.60158154296875,3.6601572036743164,-2.9523849487304688,2.776602029800415
1663860785128469200,4.61146923828125,3.0165321826934814,0.07512187957763672,1.8962953090667725
1663860785138357000,4.62135693359375,3.4442672729492188,1.80377197265625,-0.001963973045349121
1663860785148244700,4.63124462890625,4.623185157775879,3.248074531555176,-0.30469465255737305
1663860785158132200,4.64113232421875,5.421137809753418,5.010745048522949,0.32005012035369873
1663860785168020000,4.65102001953125,6.21926736831665,5.802290916442871,0.11162817478179932
1663860785177907700,4.66090771484375,7.001247882843018,5.936418533325195,-0.2871978282928467
1663860785187795500,4.67079541015625,6.98110294342041,5.985394477844238,-0.500325083732605
1663860785197683200,4.68068310546875,6.7625412940979,5.7723588943481445,-0.7845057249069214
1663860785207570700,4.69057080078125,6.916224479675293,6.054792404174805,-0.37601518630981445
1663860785217428000,4.700427978515625,7.575042247772217,6.287906646728516,-0.21818292140960693
1663860785227315700,4.710315673828125,7.458460807800293,5.967267036437988,-0.7287731170654297
1663860785237203500,4.720203369140625,7.176043510437012,5.817200660705566,-1.1639530658721924
1663860785247091000,4.730091064453125,7.424496650695801,6.310781478881836,-1.251282811164856
1663860785256978700,4.739978759765625,7.396730422973633,6.384332656860352,-1.6233046054840088
1663860785266866400,4.749866455078125,7.16561222076416,6.345303535461426,-1.6890027523040771
1663860785276723700,4.7597236328125,7.166123390197754,6.439207077026367,-1.5032528638839722
1663860785286611200,4.769611083984375,6.997034549713135,6.752306938171387,-1.0577572584152222
1663860785296499000,4.7794990234375,6.466742992401123,6.6442975997924805,-0.7064226865768433
1663860785306356200,4.789356201171875,5.792237281799316,6.302308082580566,-0.43402111530303955
1663860785316244000,4.799243896484375,5.188307285308838,6.073426246643066,-0.27833306789398193
1663860785326131500,4.80913134765625,3.731243133544922,5.553503036499023,-0.4391061067581177
1663860785336019200,4.819019287109375,0.9008936882019043,4.517175674438477,-0.5645848512649536
1663860785345907000,4.828906982421875,-2.597581386566162,3.1389827728271484,-0.484325647354126
1663860785355794700,4.838794677734375,-7.613347053527832,1.379929542541504,0.011279702186584473
1663860785365682400,4.848682373046875,-12.551750183105469,-0.8974332809448242,0.39679718017578125
1663860785375570200,4.858570068359375,-15.357077598571777,-4.835356712341309,0.21003639698028564
1663860785385457700,4.868457763671875,-19.238466262817383,-11.873428344726562,-1.2298260927200317
1663860785395315000,4.87831494140625,-23.416452407836914,-21.23661231994629,-3.4733200073242188
1663860785405202700,4.88820263671875,-16.792890548706055,-28.68378448486328,-4.227014064788818
1663860785415059700,4.898059814453125,-11.215957641601562,-19.95683479309082,1.6593130826950073
1663860785424978000,4.90797802734375,-6.625446796417236,-4.952922821044922,1.8308155536651611
1663860785434865700,4.91786572265625,-0.9549822807312012,4.559401512145996,-1.7621148824691772
1663860785444753400,4.92775341796875,-0.11844635009765625,9.80378246307373,-2.456223964691162
1663860785454641200,4.93764111328125,4.207841396331787,7.175304412841797,-5.104278564453125
1663860785464498200,4.947498291015625,15.097719192504883,-0.0386810302734375,-5.312525749206543
1663860785474386000,4.957385986328125,12.551176071166992,-8.32811450958252,-5.5809125900268555
1663860785484243200,4.9672431640625,-2.184821128845215,-19.031524658203125,-8.85811996459961
1663860785494161400,4.977161376953125,-26.828731536865234,-25.0736026763916,-2.3601388931274414
1663860785504049200,4.987049072265625,-12.300427436828613,-19.2625732421875,13.480722427368164
1663860785513936600,4.9969365234375,38.918739318847656,1.420175552368164,14.127845764160156
1663860785523824400,5.006824462890625,36.30374526977539,16.954334259033203,4.525177001953125
1663860785533712100,5.016712158203125,18.69802474975586,18.997068405151367,-6.512150764465332
1663860785543599900,5.026599853515625,-13.501364707946777,12.506175994873047,-15.327587127685547
1663860785553487600,5.036487548828125,-16.941368103027344,5.851630210876465,-12.633125305175781
1663860785563375000,5.046375,27.56398582458496,1.3406648635864258,0.3752932548522949
1663860785573262800,5.056262939453125,30.058818817138672,-1.5699195861816406,6.36994743347168
1663860785583120100,5.0661201171875,5.763547420501709,-5.367889404296875,4.162221431732178
1663860785593007900,5.0760078125,-4.944977760314941,-10.344573974609375,-0.0915755033493042
1663860785602895600,5.0858955078125,-3.6299970149993896,-13.072723388671875,-0.9370842576026917
1663860785612783000,5.095783203125,2.713667392730713,-10.069441795349121,1.5398666858673096
1663860785622670800,5.1056708984375,5.033932685852051,-5.706211090087891,2.5675888061523438
1663860785632558600,5.11555859375,1.3742759227752686,-2.235711097717285,1.8402924537658691
1663860785642446300,5.1254462890625,-0.4883699417114258,-0.037247657775878906,-0.296631395816803
1663860785652303400,5.135303466796875,0.9918010234832764,1.7384099960327148,-1.5968990325927734
1663860785662191000,5.145191162109375,2.404733657836914,3.1958141326904297,-1.54298734664917
1663860785672078800,5.155078857421875,1.9164741039276123,3.920132637023926,-1.1389379501342773
1663860785681966600,5.164966552734375,0.9379504919052124,4.213962554931641,-0.8661645650863647
1663860785691823600,5.17482373046875,0.27144747972488403,3.7688560485839844,-1.1414390802383423
1663860785701681000,5.184680908203125,-0.46337831020355225,2.5296106338500977,-1.3388010263442993
1663860785711599000,5.19459912109375,-0.14230084419250488,0.7043867111206055,-0.7475463151931763
1663860785721456400,5.204456298828125,0.26043248176574707,-0.7166461944580078,0.44749343395233154
1663860785731344000,5.21434375,0.2617720365524292,-1.1862907409667969,1.2916127443313599
1663860785741231600,5.224231689453125,-0.08024799823760986,-1.0709104537963867,1.813187837600708
1663860785751119400,5.234119384765625,-0.44635307788848877,0.030898094177246094,2.292754650115967
1663860785760976600,5.2439765625,-1.429907202720642,1.0336627960205078,1.6070315837860107
1663860785770864000,5.253864013671875,-3.0689666271209717,1.5366888046264648,0.032451748847961426
1663860785780782300,5.2637822265625,-4.055716037750244,1.5234966278076172,-2.132779121398926
1663860785790639600,5.2736396484375,-3.237654209136963,1.6514978408813477,-3.3732166290283203
1663860785800557800,5.283557861328125,-3.3086583614349365,1.9174013137817383,-2.9239134788513184
1663860785810445600,5.293445556640625,-3.7655797004699707,1.714676856994629,-1.5069849491119385
1663860785820333300,5.303333251953125,-3.4542412757873535,1.1696662902832031,0.26671838760375977
1663860785830190300,5.3131904296875,-2.146219253540039,0.4957275390625,1.67646062374115
1663860785840047600,5.323047607421875,-0.991945743560791,-0.2924461364746094,2.8606138229370117
1663860785849935400,5.332935302734375,-0.8893842697143555,-1.1657867431640625,3.4416117668151855
1663860785859823000,5.342822998046875,-1.9206457138061523,-1.767350196838379,3.079508066177368
1663860785869741300,5.3527412109375,-3.8286702632904053,-1.7665910720825195,2.1434097290039062
1663860785879628800,5.36262890625,-5.684925079345703,-1.3801727294921875,1.0958398580551147
1663860785889516500,5.3725166015625,-6.799683570861816,-0.9776678085327148,0.9846315383911133
1663860785899404300,5.382404296875,-6.576050758361816,-1.1756649017333984,1.6129063367843628
1663860785909292000,5.3922919921875,-5.014115333557129,-2.003938674926758,1.5666016340255737
1663860785919179800,5.4021796875,-3.267333507537842,-2.360774040222168,1.8769904375076294
1663860785929067300,5.4120673828125,-1.8464343547821045,-2.2259998321533203,2.6094555854797363
1663860785938955000,5.421955078125,-1.2996280193328857,-2.138946533203125,2.7344906330108643
1663860785948812300,5.431812255859375,-2.1461095809936523,-2.501840591430664,2.093865394592285
1663860785958700000,5.441699951171875,-3.4934797286987305,-3.192294120788574,1.1865333318710327
1663860785968587500,5.45158740234375,-5.195249557495117,-3.636490821838379,0.8103522062301636
1663860785978475300,5.461475341796875,-6.05237340927124,-4.243639945983887,0.8777977228164673
1663860785988363000,5.471363037109375,-4.144278526306152,-5.6687822341918945,0.9502503871917725
1663860785998250800,5.481250732421875,-3.219846248626709,-6.824363708496094,1.1217145919799805
1663860786008107800,5.491107666015625,-4.318859100341797,-6.631839752197266,1.781780481338501
1663860786017995500,5.50099560546875,-5.893437385559082,-6.6284027099609375,0.9792181253433228
1663860786027883300,5.51088330078125,-7.399206161499023,-7.63405704498291,-1.000603199005127
1663860786037771000,5.52077099609375,-6.501691818237305,-9.147170066833496,-3.022221565246582
1663860786047658800,5.53065869140625,-5.588728904724121,-9.793440818786621,-5.359100818634033
1663860786057546200,5.540546142578125,-5.662017822265625,-9.212045669555664,-6.6756591796875
1663860786067434000,5.55043408203125,-3.5172245502471924,-6.040798187255859,-6.64171028137207
1663860786077321700,5.56032177734375,2.1535935401916504,-2.838298797607422,-6.561333656311035
1663860786087209500,5.57020947265625,6.177257061004639,-2.0560855865478516,-5.615198135375977
1663860786097066800,5.580066650390625,6.3734941482543945,-3.540363311767578,-5.532407760620117
1663860786106954200,5.589954345703125,5.290414333343506,-5.91816520690918,-5.585566520690918
1663860786116842000,5.599842041015625,4.800500869750977,-6.774463653564453,-4.2802348136901855
1663860786126729700,5.609729736328125,2.9299356937408447,-6.077971458435059,-2.598676919937134
1663860786136617500,5.619617431640625,0.4306209087371826,-5.451540946960449,-1.7440720796585083
1663860786146474500,5.629474609375,-0.06856989860534668,-4.492722511291504,-0.6121033430099487
1663860786156362200,5.6393623046875,1.0534541606903076,-4.315682411193848,0.5963773727416992
1663860786166250000,5.64925,1.2341663837432861,-5.331048011779785,0.8631449937820435
1663860786176137700,5.6591376953125,1.7491424083709717,-6.009772300720215,1.3886003494262695
1663860786186025500,5.669025390625,2.6790425777435303,-5.01016902923584,2.344761371612549
1663860786195913000,5.678912841796875,2.8385255336761475,-3.6207103729248047,3.221393585205078
1663860786205800700,5.68880078125,3.2023792266845703,-2.512251853942871,3.098623037338257
1663860786215688400,5.6986884765625,3.3133480548858643,-0.991786003112793,2.492091178894043
1663860786225576200,5.708576171875,4.457315921783447,0.9385013580322266,2.1498312950134277
1663860786235464000,5.7184638671875,5.013990879058838,2.0100221633911133,1.032562017440796
1663860786245351400,5.728351318359375,4.908671855926514,2.0718135833740234,0.29696476459503174
1663860786255208700,5.738208740234375,5.167594909667969,2.0672969818115234,0.20291805267333984
1663860786265096400,5.748096435546875,6.021999359130859,3.896738052368164,1.0784530639648438
1663860786274984200,5.757984130859375,6.877707004547119,5.815543174743652,0.8265467882156372
1663860786284871700,5.76787158203125,7.038105487823486,6.466226577758789,-0.0071190595626831055
1663860786294759400,5.777759521484375,6.969979763031006,6.569260597229004,-0.4674140214920044
1663860786304647200,5.787647216796875,7.024337291717529,6.634905815124512,-0.6921685934066772
1663860786314535000,5.797534912109375,7.185084819793701,6.774921417236328,-1.0010977983474731
1663860786324392200,5.80739208984375,7.54331111907959,7.128124237060547,-1.217400312423706
1663860786334279700,5.81727978515625,7.73294734954834,7.638936996459961,-1.362196922302246
1663860786344167400,5.82716748046875,7.971523761749268,8.000926971435547,-1.43828547000885
1663860786354055200,5.83705517578125,7.82794713973999,8.037188529968262,-1.3424882888793945
1663860786363943000,5.84694287109375,7.2625298500061035,7.951790809631348,-1.124584436416626
1663860786373830700,5.85683056640625,6.670966148376465,7.5523481369018555,-0.8178631067276001
1663860786383718100,5.86671826171875,6.0633721351623535,6.94514274597168,-0.518120527267456
1663860786393575400,5.876575439453125,5.198801517486572,6.0665082931518555,-0.44755232334136963
1663860786403463200,5.886463134765625,3.591695785522461,4.922405242919922,-0.39998435974121094
1663860786413320200,5.8963203125,1.4618430137634277,3.3164329528808594,-0.3036770224571228
1663860786423208000,5.9062080078125,-2.7865283489227295,1.2724370956420898,-0.07223963737487793
1663860786433095700,5.916095703125,-9.3583984375,-1.5083341598510742,0.5540940761566162
1663860786442953000,5.925952880859375,-15.980132102966309,-5.921510696411133,0.616127073764801
1663860786452871200,5.93587109375,-20.227951049804688,-13.473384857177734,-0.7284919619560242
1663860786462758700,5.945758544921875,-20.273969650268555,-23.728595733642578,-2.985389471054077
1663860786472646400,5.955646484375,-21.748132705688477,-29.89488410949707,-4.569799423217773
1663860786482534100,5.9655341796875,-18.803607940673828,-20.320411682128906,-0.540556788444519
1663860786492422000,5.975421875,-8.9285888671875,-5.637589454650879,-0.41803884506225586
1663860786502309600,5.9853095703125,-0.11808252334594727,4.176201820373535,-2.32235050201416
1663860786512197000,5.995197021484375,6.235592365264893,11.604127883911133,-1.6435222625732422
1663860786522084900,6.0050849609375,8.856712341308594,16.337791442871094,-1.390204668045044
1663860786531972600,6.01497265625,12.595149993896484,13.880093574523926,-4.469911575317383
1663860786541860400,6.0248603515625,18.887393951416016,5.414182662963867,-4.832633018493652
1663860786551717600,6.034717529296875,15.049934387207031,-2.60068416595459,-3.1875059604644775
1663860786561605000,6.044605224609375,2.5045084953308105,-8.796646118164062,-2.9704270362854004
1663860786571492900,6.054492919921875,-16.24313735961914,-15.84751033782959,-3.100712537765503
1663860786581380600,6.064380615234375,-14.471869468688965,-21.54230308532715,1.063054084777832
1663860786591238000,6.07423779296875,14.87153434753418,-12.606741905212402,7.317263603210449
1663860786601095000,6.084094970703125,22.1718692779541,1.8563566207885742,5.344012260437012
1663860786610982700,6.093982666015625,10.194541931152344,6.540329933166504,-4.169272422790527
1663860786620870400,6.103870361328125,-3.4102773666381836,5.121746063232422,-11.667113304138184
1663860786630758100,6.113758056640625,-1.4134483337402344,2.7157297134399414,-12.130531311035156
1663860786640645600,6.123645751953125,12.084512710571289,1.7814245223999023,-5.325142860412598
1663860786650533400,6.133533447265625,14.327478408813477,1.220015525817871,0.23893016576766968
1663860786660421000,6.143421142578125,10.652789115905762,0.03664970397949219,1.578622579574585
1663860786670278400,6.1532783203125,5.809476852416992,-1.9725370407104492,1.7186371088027954
1663860786680196600,6.163196533203125,2.6146140098571777,-3.9981164932250977,2.4125778675079346
1663860786690053600,6.1730537109375,1.842958688735962,-5.615586280822754,3.0470681190490723
1663860786699941400,6.18294140625,2.435211420059204,-6.79758358001709,2.5961978435516357
1663860786709798700,6.192798583984375,2.2085862159729004,-6.304104804992676,1.976892113685608
1663860786719686100,6.20268603515625,1.6501169204711914,-4.685861587524414,0.9681347608566284
1663860786729604400,6.212604248046875,2.411051034927368,-2.857391357421875,0.13062839210033417
1663860786739492000,6.2224921875,3.3063981533050537,-0.9750251770019531,-0.28890904784202576
1663860786749379800,6.2323798828125,2.787581205368042,0.4287557601928711,-0.7597105503082275
1663860786759267600,6.242267578125,1.458102822303772,1.2278861999511719,-1.7268742322921753
1663860786769155300,6.2521552734375,0.37333226203918457,1.7608470916748047,-2.622953414916992
1663860786779043000,6.26204296875,0.26195549964904785,2.118617057800293,-3.2617132663726807
1663860786788930600,6.2719306640625,0.6893888711929321,2.2728519439697266,-3.0251855850219727
1663860786798818300,6.281818359375,1.5039844512939453,2.3059234619140625,-1.8763870000839233
1663860786808675600,6.291675537109375,1.832831621170044,1.8583898544311523,-0.8129968047142029
1663860786818563300,6.301563232421875,1.5519064664840698,1.1177482604980469,-0.316788911819458
1663860786828450800,6.311450927734375,1.02744460105896,0.5947532653808594,-0.054816484451293945
1663860786838338600,6.321338623046875,0.45435631275177,0.3401479721069336,0.39976340532302856
1663860786848226300,6.331226318359375,-0.1795884370803833,0.18031883239746094,1.1104583740234375
1663860786858114000,6.341114013671875,-0.3484193682670593,0.24959850311279297,1.088173508644104
1663860786868001800,6.351001708984375,-0.6592718362808228,0.6796741485595703,0.8471561670303345
1663860786877889300,6.36088916015625,-1.2055476903915405,1.010554313659668,-0.03207284212112427
1663860786887777000,6.370777099609375,-1.7370269298553467,0.8033733367919922,-1.2348220348358154
1663860786897634300,6.38063427734375,-2.6876111030578613,0.8859748840332031,-1.213103175163269
1663860786907522000,6.39052197265625,-3.8540215492248535,0.5571975708007812,-0.8178309798240662
1663860786917379000,6.400379150390625,-3.711514949798584,0.45452117919921875,0.09051752090454102
1663860786927266800,6.410266845703125,-3.060873508453369,0.5162448883056641,1.5836985111236572
1663860786937124000,6.4201240234375,-2.7945985794067383,0.1815624237060547,2.3313326835632324
1663860786947011600,6.430011474609375,-2.905156135559082,-0.6672744750976562,2.5336756706237793
1663860786956929800,6.4399296875,-3.668750524520874,-1.768448829650879,2.6055994033813477
1663860786966817500,6.449817626953125,-5.108025550842285,-2.780048370361328,2.558289051055908
1663860786976705300,6.459705322265625,-6.803339958190918,-3.152277946472168,1.896509051322937
1663860786986593000,6.469593017578125,-7.086114406585693,-2.4710845947265625,1.112341046333313
1663860786996480800,6.479480712890625,-5.058894157409668,-1.4451074600219727,1.417300820350647
1663860787006368500,6.489368408203125,-2.826854944229126,-1.1867561340332031,2.473963737487793
1663860787016256000,6.499256103515625,-2.264310121536255,-1.7157506942749023,3.201936721801758
1663860787026143700,6.509143798828125,-3.2855918407440186,-2.6994056701660156,2.672048330307007
1663860787036031500,6.519031494140625,-4.634415149688721,-3.5416641235351562,1.195489525794983
1663860787045919200,6.528919189453125,-4.555018901824951,-3.5383453369140625,0.0563892126083374
1663860787055807000,6.538806884765625,-3.706244468688965,-3.157292366027832,-0.44972681999206543
1663860787065664000,6.5486640625,-4.478298187255859,-2.8313331604003906,-0.5643247365951538
1663860787075551700,6.5585517578125,-6.034651756286621,-2.9515724182128906,0.05067431926727295
1663860787085439500,6.568439453125,-5.896681785583496,-3.9238739013671875,0.8371249437332153
1663860787095327200,6.5783271484375,-6.00535249710083,-5.052581787109375,0.7314884662628174
1663860787105214700,6.588214599609375,-7.75960636138916,-5.522163391113281,-0.7002676725387573
1663860787115102500,6.5981025390625,-8.100289344787598,-4.9763641357421875,-1.6616555452346802
1663860787124959700,6.607959716796875,-6.608252048492432,-4.549193382263184,-2.0533595085144043
1663860787134847500,6.617847412109375,-6.953432083129883,-4.728484153747559,-2.6505930423736572
1663860787144735000,6.62773486328125,-5.523491859436035,-4.350876808166504,-3.720233917236328
1663860787154622700,6.637622802734375,-0.35848885774612427,-3.668105125427246,-4.849926948547363
1663860787164510500,6.647510498046875,3.872732400894165,-3.955270767211914,-4.099037170410156
1663860787174398200,6.657398193359375,4.345073699951172,-6.936957359313965,-3.3952739238739014
1663860787184286000,6.667285888671875,5.0004353523254395,-9.352526664733887,-3.543429136276245
1663860787194173400,6.67717333984375,5.617814540863037,-9.757855415344238,-4.055163860321045
1663860787204061200,6.687061279296875,4.536552906036377,-9.150980949401855,-2.919862985610962
1663860787213918500,6.69691845703125,1.160361886024475,-8.263327598571777,-0.23262250423431396
1663860787223806200,6.70680615234375,-0.5065622329711914,-7.438051223754883,1.5140855312347412
1663860787233694000,6.71669384765625,0.47763752937316895,-7.118791580200195,2.493314743041992
1663860787243581400,6.72658154296875,3.7322776317596436,-7.513430595397949,1.1122016906738281
1663860787253469200,6.73646923828125,4.314970016479492,-7.044766426086426,-0.3058696985244751
1663860787263357000,6.74635693359375,2.856966972351074,-5.624959945678711,-0.7998077869415283
1663860787273244700,6.75624462890625,2.282106637954712,-4.0651750564575195,-1.3419890403747559
1663860787283101700,6.766101806640625,2.4259629249572754,-2.525702476501465,-1.9778234958648682
1663860787292989400,6.775989501953125,3.4400506019592285,-1.0075616836547852,-1.724712610244751
1663860787302877200,6.785877197265625,4.380339622497559,0.5962247848510742,-1.0386462211608887
1663860787312765000,6.795764892578125,4.913853168487549,1.780141830444336,-0.830133318901062
1663860787322652700,6.805652587890625,5.529170036315918,2.8528966903686523,-0.7839354872703552
1663860787332540200,6.8155400390625,6.1431169509887695,3.9896373748779297,-0.6006015539169312
1663860787342428000,6.825427978515625,6.336305141448975,4.858543395996094,-0.7203797101974487
1663860787352315600,6.835315673828125,6.476892948150635,5.439858436584473,-0.34915101528167725
1663860787362173000,6.8451728515625,6.723339080810547,5.672455787658691,0.27722758054733276
1663860787372060400,6.855060302734375,6.9346842765808105,5.812978744506836,0.5864673256874084
1663860787381948200,6.8649482421875,7.113561630249023,6.057559967041016,0.8249834179878235
1663860787391836000,6.8748359375,7.359125137329102,6.415796279907227,0.992315411567688
1663860787401693200,6.884693115234375,7.407303810119629,6.807275772094727,0.9724459648132324
1663860787411580700,6.89458056640625,7.548076629638672,6.921270370483398,0.7228918075561523
1663860787421468400,6.904468505859375,7.455381393432617,6.970623970031738,0.22896945476531982
1663860787431356200,6.914356201171875,7.106515407562256,7.162023544311523,-0.2354491949081421
1663860787441213400,6.92421337890625,6.990630626678467,7.121865749359131,-0.6854782104492188
1663860787451070500,6.934070556640625,6.814058303833008,6.982485771179199,-0.6121599674224854
1663860787460988700,6.94398876953125,6.695189476013184,6.892268180847168,-0.2690197229385376
1663860787470876400,6.95387646484375,6.559964179992676,6.840366363525391,-0.015559554100036621
1663860787480733700,6.963733642578125,6.205047130584717,6.758196830749512,-0.1205294132232666
1663860787490621400,6.973621337890625,5.2060747146606445,6.497715950012207,-0.3815690279006958
1663860787500539600,6.98353955078125,3.3943376541137695,5.59439754486084,-0.5319837331771851
1663860787510396700,6.993396728515625,-0.05732011795043945,3.55637264251709,-0.5360183715820312
1663860787520284400,7.003284423828125,-6.140273094177246,0.4968700408935547,0.21844077110290527
1663860787530172200,7.013172119140625,-13.768213272094727,-3.858083724975586,1.218887448310852
1663860787540060000,7.023059814453125,-17.425888061523438,-9.453449249267578,1.5792090892791748
1663860787549917000,7.0329169921875,-14.997964859008789,-16.61054229736328,1.72034752368927
1663860787559835100,7.042835205078125,-17.119810104370117,-27.143085479736328,-2.287626266479492
1663860787569692400,7.0526923828125,-25.16490936279297,-30.022254943847656,-7.071959018707275
1663860787579580200,7.062580078125,-18.7038516998291,-20.958751678466797,-4.560260772705078
1663860787589467600,7.072467529296875,-4.207629203796387,-4.503939628601074,-4.467911720275879
1663860787599355400,7.08235546875,4.476247310638428,7.01950740814209,-4.949024677276611
1663860787609243100,7.0922431640625,7.833866119384766,14.184701919555664,-4.184905052185059
1663860787619100400,7.102100341796875,10.52367115020752,13.862465858459473,-5.762125015258789
1663860787629018600,7.1120185546875,15.850961685180664,7.323676109313965,-5.2237043380737305
1663860787638906000,7.121906005859375,12.06093978881836,0.3072338104248047,0.1517200469970703
1663860787648763400,7.131763427734375,-1.6575121879577637,-7.204903602600098,0.45596063137054443
1663860787658651100,7.141651123046875,-11.587886810302734,-13.05886459350586,3.006331205368042
1663860787668539000,7.151538818359375,-2.3570609092712402,-13.730938911437988,8.801909446716309
1663860787678426400,7.16142626953125,15.420751571655273,-4.575018882751465,7.404049873352051
1663860787688314000,7.171314208984375,18.78227996826172,5.632012367248535,1.710714340209961
1663860787698201900,7.181201904296875,14.685253143310547,8.305143356323242,-5.507180213928223
1663860787708089600,7.191089599609375,0.742882251739502,4.091791152954102,-14.410456657409668
1663860787717947000,7.20094677734375,-9.449807167053223,0.7298383712768555,-14.501893997192383
1663860787727834400,7.21083447265625,8.685076713562012,0.32990550994873047,-3.9452688694000244
1663860787737691600,7.220691650390625,20.61663818359375,0.42605113983154297,4.997096061706543
1663860787747609900,7.23060986328125,14.048245429992676,-1.6617107391357422,5.2789530754089355
1663860787757497600,7.24049755859375,5.291214466094971,-4.446768760681152,2.351426124572754
1663860787767385300,7.25038525390625,2.0691428184509277,-5.802394866943359,1.491707682609558
1663860787777272800,7.26027294921875,1.7723093032836914,-6.307709693908691,1.136167049407959
1663860787787130000,7.270130126953125,1.3415334224700928,-5.762967109680176,0.9118143320083618
1663860787797017900,7.280017822265625,1.1599278450012207,-4.0465898513793945,1.0745197534561157
1663860787806905600,7.289905517578125,1.8003945350646973,-2.0063247680664062,1.4654439687728882
1663860787816762600,7.2997626953125,2.1570396423339844,-0.4464397430419922,1.0518114566802979
1663860787826650400,7.309650390625,2.8019158840179443,0.5776557922363281,0.2623797655105591
1663860787836568600,7.319568603515625,2.8716909885406494,1.3448295593261719,0.00870048999786377
1663860787846425900,7.32942578125,2.273381471633911,1.629709243774414,-0.3930935263633728
1663860787856344000,7.339343994140625,2.078453302383423,1.7258472442626953,-1.0178778171539307
1663860787866201000,7.349201171875,0.8259145021438599,1.8600873947143555,-0.8298901319503784
1663860787876088800,7.3590888671875,0.4546424150466919,1.5291881561279297,-0.8911648392677307
1663860787885976600,7.3689765625,0.6261403560638428,1.068007469177246,-0.7174161076545715
1663860787895864300,7.3788642578125,0.42616522312164307,0.7641677856445312,-0.07728862762451172
1663860787905751800,7.388751708984375,0.47696757316589355,0.6206865310668945,0.5235427618026733
1663860787915609000,7.398609130859375,0.19574931263923645,0.44221973419189453,0.7841240763664246
1663860787925496800,7.408496826171875,-0.06431545317173004,0.28424930572509766,0.49798810482025146
1663860787935415000,7.4184150390625,-0.27507132291793823,0.16089630126953125,0.5038624405860901
1663860787945302800,7.428302734375,-0.6967933177947998,0.1820240020751953,0.7301686406135559
1663860787955190500,7.4381904296875,-1.1392147541046143,0.7207069396972656,0.8219157457351685
1663860787965047600,7.448047607421875,-1.5952825546264648,1.2861413955688477,0.5462108254432678
1663860787974935300,7.457935302734375,-1.2881128787994385,0.9635114669799805,-1.0679454803466797
1663860787984823000,7.467822998046875,-1.5596303939819336,0.8458805084228516,-2.4027795791625977
1663860787994710800,7.477710693359375,-2.780543804168701,0.6806449890136719,-2.1833324432373047
1663860788004598300,7.487598388671875,-3.0449185371398926,0.5041141510009766,-0.8129503726959229
1663860788014455600,7.49745556640625,-2.5281410217285156,0.18329620361328125,0.6505266427993774
1663860788024343300,7.50734326171875,-1.9109970331192017,-0.35896968841552734,1.5359293222427368
1663860788034231000,7.51723095703125,-2.2178022861480713,-0.9523782730102539,2.296945810317993
1663860788044118500,7.527118408203125,-3.1591577529907227,-1.3728809356689453,2.823650598526001
1663860788054006300,7.53700634765625,-4.471511363983154,-1.792440414428711,2.481980800628662
1663860788063894000,7.54689404296875,-5.737417221069336,-2.065031051635742,1.8931159973144531
1663860788073781800,7.55678173828125,-6.27140998840332,-1.915745735168457,1.1710071563720703
1663860788083669500,7.56666943359375,-5.849947929382324,-1.4698143005371094,0.8236696720123291
1663860788093557000,7.576556884765625,-4.369306564331055,-1.099381446838379,1.38723886013031
1663860788103444700,7.58644482421875,-2.7697627544403076,-1.1947154998779297,2.431457042694092
1663860788113332500,7.59633251953125,-1.987757682800293,-2.0418434143066406,3.1102137565612793
1663860788123189800,7.606189697265625,-3.0584607124328613,-3.4112892150878906,3.267596483230591
1663860788133077200,7.6160771484375,-4.294384956359863,-4.307919502258301,2.6952362060546875
1663860788142965000,7.625965087890625,-3.811286687850952,-3.914523124694824,1.6206668615341187
1663860788152852700,7.635852783203125,-3.774200916290283,-3.018416404724121,1.4351892471313477
1663860788162710000,7.6457099609375,-5.428858280181885,-2.9486351013183594,1.7446496486663818
1663860788172597800,7.65559765625,-6.001134395599365,-3.610380172729492,2.397946357727051
1663860788182485200,7.6654853515625,-4.616781234741211,-4.592443466186523,3.2461071014404297
1663860788192373000,7.675373046875,-5.233985900878906,-5.657047271728516,2.6813106536865234
1663860788202260700,7.6852607421875,-7.704893112182617,-6.233999252319336,0.15629816055297852
1663860788212148500,7.6951484375,-8.201897621154785,-6.190321922302246,-1.4189941883087158
1663860788222005500,7.705005615234375,-6.377647876739502,-6.6484479904174805,-1.8670145273208618
1663860788231923700,7.714923828125,-5.408010482788086,-6.694293022155762,-2.508608818054199
1663860788241811500,7.7248115234375,-3.7196969985961914,-5.379934310913086,-2.8752951622009277
1663860788251699200,7.73469921875,2.156996488571167,-4.772402763366699,-2.131197452545166
1663860788261587000,7.7445869140625,7.84685754776001,-5.520380973815918,-1.2709434032440186
1663860788271474700,7.754474609375,8.041746139526367,-6.861533164978027,-1.4063293933868408
1663860788281331700,7.764331787109375,5.937839984893799,-8.130722999572754,-2.9782614707946777
1663860788291219500,7.774219482421875,4.425125598907471,-8.826254844665527,-4.306070804595947
1663860788301107200,7.784107177734375,1.355869174003601,-8.105703353881836,-2.9768433570861816
1663860788310995000,7.793994873046875,-1.3348321914672852,-6.684301376342773,-0.3281981945037842
1663860788320882400,7.80388232421875,-0.6909379959106445,-6.473681449890137,0.9142986536026001
1663860788330770200,7.813770263671875,2.4200315475463867,-6.859926223754883,0.9289941787719727
1663860788340658000,7.823657958984375,4.181060791015625,-6.912365913391113,0.4569737911224365
1663860788350545700,7.833545654296875,4.397876739501953,-6.212775230407715,0.2901803255081177
1663860788360433400,7.843433349609375,3.9498541355133057,-5.071037292480469,-0.240386962890625
1663860788370290400,7.85329052734375,3.304965019226074,-3.7104644775390625,-0.7551259994506836
1663860788380178200,7.86317822265625,3.503347396850586,-1.8854913711547852,-1.446250557899475
1663860788390066000,7.87306591796875,4.8217339515686035,0.18261051177978516,-1.6015968322753906
1663860788399923200,7.882923095703125,5.679906368255615,2.4500389099121094,-0.7697099447250366
1663860788409810700,7.892810791015625,6.08876371383667,3.6978864669799805,-0.5493673086166382
1663860788419698400,7.902698486328125,6.171140670776367,4.607165336608887,-1.0517202615737915
1663860788429555700,7.9125556640625,6.451208591461182,5.388393402099609,-0.8405765295028687
1663860788439474000,7.922473876953125,6.767642498016357,5.679811477661133,0.15777969360351562
1663860788449331000,7.9323310546875,7.001297473907471,5.487957000732422,0.5929220914840698
1663860788459218700,7.94221875,7.002089977264404,5.334222793579102,0.8570261001586914
1663860788469076000,7.952075927734375,7.102611541748047,5.207066535949707,0.9004420042037964
1663860788478994200,7.961994140625,7.282880783081055,5.180660247802734,0.8530945777893066
1663860788488882000,7.9718818359375,7.584181785583496,5.221564292907715,0.7039780616760254
1663860788498769400,7.981769287109375,7.84589958190918,5.395820617675781,0.5300021171569824
1663860788508657200,7.9916572265625,8.222569465637207,5.763580322265625,0.3091937303543091
1663860788518545000,8.001544921875,8.426105499267578,6.156974792480469,-0.25097858905792236
1663860788528432600,8.0114326171875,8.389564514160156,6.491909980773926,-0.8712372779846191
1663860788538320400,8.0213203125,8.176279067993164,6.7058491706848145,-1.2500799894332886
1663860788548207900,8.031207763671874,7.9533772468566895,6.790433406829834,-1.109298825263977
1663860788558095600,8.041095703125,7.565371990203857,6.642397403717041,-0.8141647577285767
1663860788567983400,8.0509833984375,6.658536434173584,6.343273162841797,-0.6789456605911255
1663860788577871000,8.06087109375,4.794052600860596,5.787919998168945,-0.6193548440933228
1663860788587758800,8.0707587890625,2.1384172439575195,4.687295913696289,-0.4899320602416992
1663860788597646600,8.080646484375,-1.7040200233459473,2.837259292602539,-0.20994925498962402
1663860788607503600,8.090503662109375,-6.309184551239014,0.37772655487060547,-0.08136880397796631
1663860788617391400,8.100391357421875,-10.407268524169922,-2.8747901916503906,-0.39715611934661865
1663860788627279000,8.110279052734375,-13.75501823425293,-7.080453872680664,-0.20065319538116455
1663860788637166800,8.120166748046875,-15.777884483337402,-12.093814849853516,0.37776458263397217
1663860788647054300,8.130054443359375,-18.326679229736328,-18.148351669311523,-0.6899832487106323
1663860788656942000,8.139942138671875,-14.185978889465332,-23.198177337646484,-3.25883150100708
1663860788666829800,8.149829833984375,-9.914409637451172,-16.438941955566406,-0.76319420337677
1663860788676717600,8.159717529296875,-6.162291049957275,-4.636288642883301,1.149379849433899
1663860788686574600,8.16957470703125,-1.4722323417663574,3.8081483840942383,0.5799705982208252
1663860788696462300,8.17946240234375,-1.3748078346252441,10.675498008728027,0.8147021532058716
1663860788706350000,8.18935009765625,-1.481907844543457,13.48744010925293,-0.26577281951904297
1663860788716207400,8.199207275390625,5.3057475090026855,8.790217399597168,-1.9785467386245728
1663860788726094800,8.2090947265625,17.32606315612793,1.2141742706298828,-0.25754404067993164
1663860788735982600,8.218982666015625,17.7847900390625,-4.567649841308594,-0.15637099742889404
1663860788745870300,8.228870361328125,5.58912992477417,-9.571870803833008,-2.8620169162750244
1663860788755758000,8.238758056640625,-7.038832187652588,-14.847858428955078,-1.594373345375061
1663860788765645800,8.248645751953125,-10.938879013061523,-17.928115844726562,2.7056221961975098
1663860788775533300,8.258533203125,7.389756202697754,-10.911201477050781,2.0995893478393555
1663860788785421000,8.268421142578125,17.738040924072266,2.5118722915649414,-0.4430506229400635
1663860788795308800,8.278308837890625,12.996140480041504,8.465591430664062,-7.439716339111328
1663860788805196500,8.288196533203125,-1.1228642463684082,7.260467529296875,-13.885553359985352
1663860788815084300,8.298084228515625,-3.3220272064208984,4.723136901855469,-12.149808883666992
1663860788824972000,8.307971923828125,13.197933197021484,3.0442981719970703,-1.4305421113967896
1663860788834829000,8.3178291015625,21.154375076293945,1.6711397171020508,6.275256156921387
1663860788844716800,8.327716796875,12.679218292236328,-0.07666873931884766,6.277351379394531
1663860788854604500,8.3376044921875,3.575198173522949,-2.8157005310058594,3.495492458343506
1663860788864492300,8.3474921875,-0.7374415397644043,-5.336400985717773,2.8790149688720703
1663860788874379800,8.3573798828125,0.9426460266113281,-6.426112174987793,4.075392246246338
1663860788884267500,8.367267578125,3.467029571533203,-6.387171745300293,4.892853736877441
1663860788894155300,8.3771552734375,2.790998697280884,-5.94350528717041,3.8674204349517822
1663860788904012500,8.387012451171875,2.4551663398742676,-4.897222518920898,2.5623817443847656
1663860788913869600,8.39686962890625,3.31196665763855,-2.8377294540405273,1.516699194908142
1663860788923726800,8.406726806640625,3.9222168922424316,-0.796961784362793,0.4970129728317261
1663860788933645000,8.41664501953125,3.449113130569458,0.8133563995361328,-1.0788242816925049
1663860788943532800,8.42653271484375,1.7180346250534058,2.1404190063476562,-2.388892889022827
1663860788953389800,8.436389892578125,-0.2533607482910156,3.0276670455932617,-3.5239787101745605
1663860788963277600,8.446277587890625,-1.1283001899719238,3.328028678894043,-4.4806036949157715
1663860788973165300,8.456165283203125,-0.11195385456085205,3.231874465942383,-3.7496674060821533
1663860788983053000,8.466052978515625,1.069676160812378,2.733706474304199,-1.9274612665176392
1663860788992940500,8.4759404296875,1.2605347633361816,2.014097213745117,-0.9038195610046387
1663860789002828300,8.485828369140625,1.0743308067321777,1.1742095947265625,0.2264937162399292
1663860789012716000,8.495716064453125,0.48007911443710327,-0.10144710540771484,1.4394018650054932
1663860789022603800,8.505603759765625,0.6284846663475037,-0.9684286117553711,1.9154813289642334
1663860789032491500,8.515491455078125,0.5175054669380188,-0.6183271408081055,1.8776177167892456
1663860789042379000,8.52537890625,-0.7247388958930969,0.45156192779541016,1.45784330368042
1663860789052266800,8.535266845703125,-2.0038745403289795,1.5933723449707031,0.21685516834259033
1663860789062154500,8.545154541015625,-1.7849862575531006,1.809525489807129,-1.6345338821411133
1663860789072042200,8.555042236328125,-1.704016923904419,1.6581220626831055,-2.8495922088623047
1663860789081930000,8.564929931640625,-2.863227605819702,1.522552490234375,-2.9667015075683594
1663860789091817700,8.574817626953125,-3.7648611068725586,0.9606208801269531,-1.8885483741760254
1663860789101705200,8.584705322265625,-3.110055923461914,0.3418245315551758,0.03249216079711914
1663860789111593000,8.594593017578125,-1.9837502241134644,-0.5075340270996094,2.0694632530212402
1663860789121480700,8.604480712890625,-1.3514275550842285,-1.3312969207763672,3.778961420059204
1663860789131338000,8.614337890625,-2.205493450164795,-2.025358200073242,4.544809341430664
1663860789141195000,8.624195068359375,-3.7847511768341064,-2.455913543701172,4.304788589477539
1663860789151082800,8.634082763671875,-5.565801620483398,-2.613093376159668,3.6209683418273926
1663860789160970500,8.643970458984375,-6.597264289855957,-2.48947811126709,3.089392900466919
1663860789170858200,8.653858154296875,-5.649380207061768,-2.207021713256836,3.324410915374756
1663860789180745700,8.663745849609375,-3.357527732849121,-1.9527244567871094,4.061435699462891
1663860789190633500,8.673633544921875,-2.2636282444000244,-2.7332334518432617,4.533864974975586
1663860789200521200,8.683521240234375,-3.3012118339538574,-4.6904096603393555,4.272709846496582
1663860789210409000,8.693408935546875,-4.547306060791016,-5.7518720626831055,3.506753921508789
1663860789220296700,8.703296630859375,-4.100058555603027,-5.122043609619141,2.5075390338897705
1663860789230153700,8.71315380859375,-4.005429267883301,-4.308149337768555,2.088191509246826
1663860789240041500,8.72304150390625,-4.608776092529297,-4.261166572570801,2.5781426429748535
1663860789249929200,8.73292919921875,-4.511199951171875,-4.802769660949707,2.894073486328125
1663860789259817000,8.74281689453125,-5.4363884925842285,-5.484952926635742,2.3670666217803955
1663860789269674000,8.752674072265625,-7.8865509033203125,-5.783196449279785,0.8853142261505127
1663860789279561700,8.762561767578125,-8.256086349487305,-5.189482688903809,-0.1493513584136963
1663860789289419000,8.7724189453125,-6.0437798500061035,-5.099767684936523,-0.9711711406707764
1663860789299337200,8.782337158203125,-5.3410139083862305,-5.439495086669922,-2.461670398712158
1663860789309225000,8.792224853515625,-5.592081069946289,-4.812898635864258,-4.770832538604736
1663860789319112400,8.802112548828125,-1.460373044013977,-3.3232078552246094,-5.782793998718262
1663860789328969700,8.8119697265625,5.993602752685547,-2.582521438598633,-4.085508346557617
1663860789338888000,8.821887939453125,8.452746391296387,-3.8360462188720703,-2.4130067825317383
1663860789348745200,8.8317451171875,5.671868801116943,-6.402589797973633,-2.8937883377075195
1663860789358602200,8.841602294921875,2.502357006072998,-8.821927070617676,-4.008050918579102
1663860789368520400,8.8515205078125,1.7679662704467773,-9.7718505859375,-3.870022773742676
1663860789378408200,8.861408203125,1.0263742208480835,-8.354202270507812,-1.270763635635376
1663860789388296000,8.8712958984375,0.4981555938720703,-6.646181106567383,1.2135897874832153
1663860789398183700,8.88118359375,0.8972744941711426,-6.378192901611328,1.8333219289779663
1663860789408071200,8.8910712890625,1.4273483753204346,-7.043776512145996,0.955018162727356
1663860789417959000,8.900958984375,3.1289916038513184,-7.056669235229492,-0.20883607864379883
1663860789427846700,8.9108466796875,5.135636329650879,-6.196344375610352,0.023276209831237793
1663860789437734400,8.920734375,4.86067008972168,-4.880993843078613,0.6816202402114868
1663860789447622100,8.9306220703125,2.893221855163574,-3.454925537109375,0.3409855365753174
1663860789457509600,8.940509521484374,2.723565101623535,-2.1227588653564453,-0.869458794593811
1663860789467397400,8.9503974609375,4.488226890563965,-0.2139730453491211,-1.319918155670166
1663860789477285000,8.96028515625,5.574812412261963,2.0502662658691406,-0.8175411224365234
1663860789487172900,8.9701728515625,5.990087032318115,4.015504837036133,-0.6898430585861206
1663860789497030000,8.98002978515625,6.39511775970459,5.021147727966309,-0.9371229410171509
1663860789506887200,8.98988720703125,6.854726314544678,5.610828399658203,-0.47995901107788086
1663860789516744400,8.999744384765625,7.3479814529418945,6.126766204833984,0.23556041717529297
1663860789526662700,9.00966259765625,7.600535869598389,6.18113899230957,0.5603563785552979
1663860789536550400,9.01955029296875,7.640653610229492,5.9478960037231445,0.4803464412689209
1663860789546438000,9.02943798828125,7.595577716827393,5.713137626647949,0.3145705461502075
1663860789556325600,9.03932568359375,7.365214824676514,5.630257606506348,0.39268195629119873
1663860789566213400,9.04921337890625,7.403002738952637,5.697915077209473,0.4707232713699341
1663860789576101000,9.05910107421875,7.786337852478027,6.066954612731934,0.43397223949432373
1663860789585988900,9.06898876953125,8.318355560302734,6.642815589904785,0.12793755531311035
1663860789595876400,9.07887646484375,8.592019081115723,7.349573135375977,-0.35996127128601074
1663860789605764000,9.08876416015625,8.440227508544922,7.961544990539551,-0.7296065092086792
1663860789615651800,9.09865185546875,7.933104038238525,8.06362533569336,-1.0197921991348267
1663860789625539600,9.10853955078125,7.74495792388916,7.713944435119629,-0.9029077291488647
1663860789635427300,9.11842724609375,7.269110202789307,7.079721450805664,-0.623309850692749
1663860789645284400,9.128284423828125,5.9010467529296875,6.079912185668945,-0.48987627029418945
1663860789655172000,9.138172119140625,3.572392463684082,4.480741500854492,-0.44144952297210693
1663860789665059800,9.148059814453125,-0.6689105033874512,2.073648452758789,-0.1789339780807495
1663860789674947600,9.157947509765625,-6.670532703399658,-1.0122137069702148,0.3474339246749878
1663860789684835000,9.1678349609375,-12.465675354003906,-4.988710403442383,0.8444924354553223
1663860789694722800,9.177722900390625,-14.883075714111328,-10.380841255187988,0.8409311771392822
1663860789704610600,9.187610595703125,-16.686582565307617,-17.071836471557617,0.422369122505188
1663860789714467800,9.1974677734375,-18.5399169921875,-24.94249725341797,-2.300079345703125
1663860789724324900,9.207324951171875,-16.10353660583496,-25.01184844970703,-2.6807641983032227
1663860789734212600,9.217212646484375,-10.715068817138672,-12.693196296691895,-0.2728670835494995
1663860789744070000,9.22706982421875,-3.8145599365234375,-1.1957883834838867,-2.1112570762634277
1663860789753988000,9.236988037109375,0.9390726089477539,7.70556640625,-1.843690037727356
1663860789763875800,9.246875732421875,3.2726478576660156,14.368731498718262,0.2506171464920044
1663860789773763300,9.256763427734375,3.309931755065918,16.430580139160156,0.7445791959762573
1663860789783651000,9.266651123046875,6.9444780349731445,11.053375244140625,-0.3274344205856323
1663860789793538800,9.276538818359375,13.620033264160156,3.026364326477051,1.3853979110717773
1663860789803426600,9.286426513671875,13.670164108276367,-2.3971776962280273,2.533268451690674
1663860789813314300,9.296314208984375,8.382944107055664,-6.1380414962768555,2.311650276184082
1663860789823171300,9.30617138671875,2.085355758666992,-9.506791114807129,1.8323373794555664
1663860789833059000,9.31605908203125,-6.795731544494629,-13.876988410949707,-1.1233586072921753
1663860789842946800,9.32594677734375,-4.514190673828125,-15.575440406799316,-4.511825084686279
1663860789852834600,9.33583447265625,7.636633396148682,-8.150487899780273,-4.310870170593262
1663860789862722000,9.34572216796875,10.361377716064453,-0.3563880920410156,-8.007393836975098
1663860789872609800,9.35560986328125,3.758756637573242,3.1575469970703125,-12.721938133239746
1663860789882497500,9.36549755859375,4.1522722244262695,5.852053642272949,-9.992429733276367
1663860789892385300,9.37538525390625,11.159585952758789,6.041667938232422,-3.534998893737793
1663860789902273000,9.38527294921875,16.139320373535156,4.078057289123535,2.6598823070526123
1663860789912160500,9.395160400390624,14.057783126831055,1.8881492614746094,5.168875694274902
1663860789922048300,9.40504833984375,8.721597671508789,-0.7979612350463867,5.1135711669921875
1663860789931905500,9.414905517578125,4.293327331542969,-3.588472366333008,5.560966968536377
1663860789941793300,9.424793212890625,0.7140898704528809,-6.045900344848633,6.462492942810059
1663860789951680800,9.4346806640625,0.03629708290100098,-7.470283508300781,6.461152076721191
1663860789961568500,9.444568603515625,1.2645387649536133,-7.904825210571289,4.2878499031066895
1663860789971456300,9.454456298828125,2.312004804611206,-6.632856369018555,2.6975808143615723
1663860789981344000,9.464343994140625,3.0814478397369385,-4.253470420837402,2.2230372428894043
1663860789991231700,9.474231689453125,3.0517075061798096,-2.0361862182617188,0.7747339606285095
1663860790001119500,9.484119384765625,2.8554704189300537,0.03303813934326172,-1.359555959701538
1663860790010976500,9.4939765625,1.442143201828003,1.9222354888916016,-2.5766730308532715
1663860790020864300,9.5038642578125,-0.14210963249206543,3.407022476196289,-3.334184408187866
1663860790030752000,9.513751953125,0.17225360870361328,4.025555610656738,-4.9065093994140625
1663860790040639700,9.5236396484375,0.8934255838394165,4.246681213378906,-4.7922868728637695
1663860790050527200,9.53352734375,1.3834095001220703,4.1911211013793945,-3.0530595779418945
1663860790060415000,9.5434150390625,1.4635701179504395,3.41152286529541,-1.7473512887954712
1663860790070272300,9.553272216796875,1.3362774848937988,2.194232940673828,-0.8596590757369995
1663860790080129300,9.56312939453125,0.5393946170806885,0.6717967987060547,-0.00895702838897705
1663860790090017000,9.57301708984375,0.12926283478736877,-0.7182025909423828,0.7185882329940796
1663860790099904800,9.58290478515625,0.16056188941001892,-1.097372055053711,1.7446248531341553
1663860790109792500,9.59279248046875,-0.7629708051681519,-0.44330787658691406,2.2134242057800293
1663860790119680300,9.60268017578125,-1.8039253950119019,0.5400829315185547,1.5262351036071777
1663860790129537300,9.612537353515625,-1.6713547706604004,1.4152450561523438,-0.03802180290222168
1663860790139455500,9.62245556640625,-1.5228569507598877,1.9429655075073242,-1.354580283164978
1663860790149312800,9.632312744140625,-2.4177136421203613,1.9054327011108398,-1.8631714582443237
1663860790159200500,9.642200439453125,-3.306330919265747,1.627960205078125,-1.529660940170288
1663860790169088000,9.652087890625,-3.1213889122009277,1.2853412628173828,-0.43070340156555176
1663860790178945300,9.6619453125,-2.0664548873901367,0.6101064682006836,1.329459547996521
1663860790188833000,9.6718330078125,-1.1633238792419434,-0.5235509872436523,2.9097070693969727
1663860790198751200,9.681751220703125,-1.8712619543075562,-1.4879150390625,3.8457190990448
1663860790208639000,9.691638916015625,-3.6177990436553955,-2.2042131423950195,3.8833048343658447
1663860790218526700,9.701526611328125,-5.247974872589111,-2.504977226257324,3.3589165210723877
1663860790228383700,9.7113837890625,-6.6136932373046875,-2.643320083618164,3.017991781234741
1663860790238271500,9.721271484375,-6.57432746887207,-2.7103567123413086,3.3157379627227783
1663860790248159200,9.7311591796875,-4.523797512054443,-2.3743629455566406,4.298630237579346
1663860790258047000,9.741046875,-2.8218696117401123,-2.279294967651367,4.974817752838135
1663860790267934500,9.7509345703125,-3.319612979888916,-3.483478546142578,4.735766410827637
1663860790277822200,9.760822265625,-5.211977958679199,-5.265927314758301,4.0133748054504395
1663860790297567200,9.780567138671875,-5.4472784996032715,-5.154431343078613,3.195483922958374
1663860790307454700,9.790454833984375,-2.978322982788086,-5.361666679382324,4.160589218139648
1663860790317342500,9.800342529296875,-2.4999701976776123,-5.8673810958862305,5.0712785720825195
1663860790327230200,9.810230224609375,-4.571863174438477,-6.025582313537598,3.725461006164551
1663860790337118000,9.820117919921875,-6.919407367706299,-5.48295783996582,1.055224895477295
1663860790346975000,9.82997509765625,-7.969231128692627,-5.133420944213867,0.18443846702575684
1663860790356862700,9.83986279296875,-6.570660591125488,-5.803802490234375,-0.3613264560699463
1663860790366750500,9.84975048828125,-6.7079176902771,-6.262005805969238,-2.7362303733825684
1663860790376638200,9.85963818359375,-6.812041282653809,-4.659490585327148,-5.437775611877441
1663860790386526000,9.86952587890625,-1.8619153499603271,-2.386699676513672,-6.743256092071533
1663860790396383000,9.879383056640625,5.11636209487915,-1.4092292785644531,-5.374610900878906
1663860790406270700,9.889270751953125,7.48620080947876,-2.7352991104125977,-2.3732261657714844
1663860790416158500,9.899158447265625,6.8520002365112305,-6.216414451599121,-1.7993332147598267
1663860790426046200,9.909046142578125,4.528757095336914,-8.97673511505127,-2.9917454719543457
1663860790435933700,9.91893359375,3.318883180618286,-9.692358016967773,-3.119049310684204
1663860790445821400,9.928821533203125,2.2364625930786133,-8.098479270935059,-1.3845419883728027
1663860790455709200,9.938709228515625,0.9868581295013428,-6.168239593505859,-0.10010731220245361
1663860790465597000,9.948596923828125,0.75,-5.661779403686523,0.3659282922744751
1663860790475484700,9.958484619140625,-0.14826035499572754,-5.940763473510742,1.1137323379516602
1663860790485372400,9.968372314453125,-0.12735843658447266,-6.37476921081543,1.7094639539718628
1663860790495260000,9.978260009765625,0.10030508041381836,-6.430678367614746,1.664617896080017
1663860790505117200,9.9881171875,0.3257131576538086,-6.484577178955078,1.5799130201339722
1663860790515005000,9.9980048828125,0.5721108913421631,-6.543261528015137,1.4328389167785645
1663860790524892700,10.007892578125,0.8216605186462402,-6.609537124633789,1.2655272483825684
1663860790534780200,10.0177802734375,1.0636892318725586,-6.686922073364258,1.1317157745361328
1663860790554555600,10.0375556640625,5.70839262008667,3.416275978088379,-0.5598636865615845
1663860790564413000,10.047412841796875,6.54334020614624,5.370370864868164,-0.7096874713897705
1663860790574300400,10.057300537109375,7.238775730133057,6.673300743103027,-0.8683179616928101
1663860790584218600,10.067218505859374,7.327136993408203,7.347346305847168,-0.3785264492034912
1663860790594076000,10.077075927734375,7.319055080413818,7.290302276611328,0.08849859237670898
1663860790603963600,10.086963623046875,7.604302883148193,7.028205871582031,0.6246100664138794
1663860790613820700,10.096820556640624,7.700284957885742,6.658903121948242,0.9661016464233398
1663860790623739000,10.10673876953125,7.422118663787842,6.363957405090332,0.9229469299316406
1663860790633626600,10.116626708984375,7.428861618041992,6.273526191711426,0.6254502534866333
1663860790643514400,10.126514404296875,7.720242977142334,6.476584434509277,0.2632415294647217
1663860790653402000,10.136402099609375,8.254547119140625,6.947323799133301,-0.16051888465881348
1663860790663289900,10.146289794921875,8.787589073181152,7.407702445983887,-0.5463428497314453
1663860790673177600,10.156177490234375,8.944796562194824,7.795732498168945,-0.827079176902771
1663860790683034600,10.16603466796875,8.793815612792969,8.01092529296875,-1.0494412183761597
1663860790692892000,10.175891845703125,8.51385498046875,7.535744667053223,-1.2223654985427856
1663860790702810000,10.18581005859375,8.182245254516602,6.772133827209473,-1.2129051685333252
1663860790712697900,10.19569775390625,7.462177276611328,6.0515031814575195,-1.2224299907684326
1663860790722585300,10.20558544921875,5.720756530761719,5.027616500854492,-1.0252069234848022
1663860790732442600,10.215442626953125,2.514279365539551,3.2134389877319336,-1.3002537488937378
1663860790742330400,10.225330322265625,-2.86140775680542,0.987309455871582,-1.3179607391357422
1663860790752218000,10.235218017578125,-9.15882682800293,-1.9529991149902344,-1.123561143875122
1663860790762075100,10.2450751953125,-13.301780700683594,-5.8669538497924805,-0.5662287473678589
1663860790771993300,10.254993408203125,-14.817682266235352,-10.934942245483398,0.5107547044754028
1663860790781881000,10.264881103515625,-20.933753967285156,-17.608840942382812,0.4294147491455078
1663860790791768800,10.274768798828125,-25.96185302734375,-26.564178466796875,-3.051903009414673
1663860790801656600,10.284656494140625,-13.892019271850586,-24.16606330871582,-1.632813811302185
1663860790811544000,10.2945439453125,-4.878021240234375,-9.568617820739746,0.9970998764038086
1663860790821401300,10.3044013671875,0.34847068786621094,1.6689071655273438,-1.5216399431228638
1663860790831289000,10.3142890625,3.184981346130371,9.733511924743652,-1.291142225265503
1663860790841146000,10.32414599609375,1.2069087028503418,13.980581283569336,-2.0477943420410156
1663860790851064300,10.334064208984374,3.1261892318725586,10.07275390625,-4.201452732086182
1663860790860952000,10.3439521484375,11.412818908691406,0.6081991195678711,-1.9753284454345703
1663860790870839800,10.35383984375,10.530986785888672,-7.626041412353516,1.4599299430847168
1663860790880697000,10.363697021484375,-3.5535221099853516,-15.146044731140137,0.08625507354736328
1663860790890615300,10.373615234375,-12.178930282592773,-19.88277816772461,4.479222297668457
1663860790900472300,10.383472412109375,2.923318862915039,-13.748537063598633,12.470547676086426
1663860790910360000,10.393360107421875,22.753726959228516,0.8171424865722656,7.1680707931518555
1663860790920217300,10.40321728515625,23.924306869506836,11.72297477722168,-1.448401927947998
1663860790930135600,10.413135498046875,13.102516174316406,12.433079719543457,-11.88616943359375
1663860790939992600,10.42299267578125,-16.793672561645508,5.871578216552734,-22.916179656982422
1663860790949910800,10.432910888671875,-9.914268493652344,2.7148313522338867,-16.536327362060547
1663860790959768000,10.44276806640625,24.24446678161621,2.555779457092285,2.6699416637420654
1663860790969655800,10.45265576171875,26.318397521972656,0.39241695404052734,10.129693984985352
1663860790979543600,10.46254345703125,10.666065216064453,-2.9687423706054688,6.91195821762085
1663860790989431000,10.47243115234375,0.6767082214355469,-6.629704475402832,4.090272903442383
1663860790999318800,10.48231884765625,-1.094231128692627,-8.647903442382812,4.292484283447266
1663860791009206500,10.49220654296875,1.7354745864868164,-8.550376892089844,5.204903602600098
1663860791019063800,10.502063720703125,3.6751456260681152,-6.571993827819824,5.536071300506592
1663860791028951300,10.511951416015625,2.384620189666748,-4.388301849365234,4.676236152648926
1663860791038839000,10.521839111328125,1.959453821182251,-2.311558723449707,2.692491292953491
1663860791048696300,10.5316962890625,3.296809434890747,-0.24073028564453125,0.7196944952011108
1663860791058614500,10.541614501953125,3.720900774002075,1.4944658279418945,-0.015592694282531738
1663860791068502300,10.551502197265625,2.6889915466308594,2.4367733001708984,-0.5285837650299072
1663860791078359300,10.561359375,0.6973648071289062,2.651744842529297,-1.8349629640579224
1663860791088247000,10.5712470703125,-0.9246857166290283,2.681399345397949,-2.999647617340088
1663860791098165200,10.581165283203125,-1.1693507432937622,2.779202461242676,-2.9136033058166504
1663860791108022500,10.5910224609375,0.12955141067504883,2.5776901245117188,-1.7430752515792847
1663860791117910000,10.600909912109374,1.2395597696304321,1.9672822952270508,-0.493099570274353
1663860791127797800,10.6107978515625,1.0962281227111816,1.1951208114624023,0.08524835109710693
1663860791137685500,10.620685546875,0.3204139471054077,0.41692447662353516,0.19725263118743896
1663860791147573200,10.6305732421875,-0.36961978673934937,0.08284759521484375,0.49670958518981934
1663860791157461000,10.6404609375,-0.6973898410797119,0.1784687042236328,0.7042129039764404
1663860791167348700,10.6503486328125,-0.787024974822998,0.8519086837768555,1.0093333721160889
1663860791177236200,10.660236328125,-0.9916476607322693,1.648188591003418,1.0448081493377686
1663860791187124000,10.6701240234375,-1.3720860481262207,2.1028146743774414,0.8739547729492188
1663860791197011700,10.68001171875,-1.655602216720581,2.0396270751953125,-0.08096802234649658
1663860791206899500,10.6898994140625,-1.4817776679992676,1.5963916778564453,-1.2027544975280762
1663860791216787200,10.699787109375,-1.9267306327819824,1.3318109512329102,-2.0347001552581787
1663860791226674700,10.7096748046875,-3.2035531997680664,0.9534749984741211,-2.302565097808838
1663860791236562400,10.7195625,-3.9353766441345215,0.9703741073608398,-1.3832807540893555
1663860791246450200,10.7294501953125,-3.5224502086639404,0.9816761016845703,0.5139834880828857
1663860791256338000,10.739337890625,-2.289048433303833,0.42084312438964844,2.427729845046997
1663860791266195000,10.74919482421875,-1.7187564373016357,-0.5165719985961914,3.667617082595825
1663860791276082700,10.759082763671875,-2.3447892665863037,-1.502577781677246,4.210504531860352
1663860791285940000,10.76893994140625,-4.277743339538574,-2.1791610717773438,4.405058860778809
1663860791295827700,10.77882763671875,-5.657887935638428,-2.5001935958862305,4.521147727966309
1663860791305715200,10.788715087890624,-5.2897796630859375,-2.7305898666381836,4.767919540405273
1663860791315603000,10.79860302734375,-4.719059944152832,-2.710272789001465,5.307761192321777
1663860791325490700,10.80849072265625,-4.250236511230469,-3.3086118698120117,5.555584907531738
1663860791335378400,10.81837841796875,-4.303205490112305,-4.878478050231934,5.040084362030029
1663860791345266200,10.82826611328125,-4.610532283782959,-5.850249290466309,4.352830410003662
1663860791355153700,10.838153564453124,-4.254425048828125,-6.0620832443237305,3.512990951538086
1663860791365041400,10.84804150390625,-3.3698489665985107,-6.319704055786133,3.095149040222168
1663860791374929200,10.85792919921875,-3.7366533279418945,-6.840771675109863,3.377934455871582
1663860791384817000,10.86781689453125,-5.378664016723633,-7.209860801696777,3.1995301246643066
1663860791394704600,10.87770458984375,-7.067840099334717,-6.7453413009643555,2.0887887477874756
1663860791404561700,10.887561767578125,-7.926459312438965,-6.029019355773926,1.0322918891906738
1663860791414449400,10.897449462890625,-6.472718238830566,-5.934558868408203,0.44737935066223145
1663860791424306700,10.907306640625,-6.060733795166016,-6.499656677246094,-1.2450095415115356
1663860791434194400,10.9171943359375,-7.261445045471191,-5.818221092224121,-4.352047443389893
1663860791444051500,10.927051513671875,-4.677496433258057,-3.746053695678711,-6.645997047424316
1663860791453969700,10.9369697265625,1.8028925657272339,-2.0677623748779297,-6.320178031921387
1663860791463857400,10.946857421875,7.27581262588501,-2.36306095123291,-3.4798965454101562
1663860791473745200,10.9567451171875,7.77670955657959,-5.43385124206543,-1.7689005136489868
1663860791483602200,10.966602294921875,6.566354751586914,-8.803629875183105,-2.6763696670532227
1663860791493490000,10.976489990234375,5.7115349769592285,-10.057671546936035,-4.0549635887146
1663860791503377700,10.986377685546875,3.515644073486328,-9.015726089477539,-3.6517298221588135
1663860791513265400,10.996265380859375,1.0487377643585205,-6.622537612915039,-1.9171788692474365
1663860791523122400,11.006122314453124,0.29378795623779297,-5.377821922302246,-0.5923497676849365
1663860791533040600,11.01604052734375,0.449307918548584,-5.433686256408691,0.16579532623291016
1663860791542928400,11.025928466796875,0.5645589828491211,-5.492429733276367,1.2639670372009277
1663860791552816000,11.035816162109375,2.283679485321045,-5.5194807052612305,1.9659631252288818
1663860791562704000,11.045703857421875,4.816512107849121,-5.364084243774414,2.3953089714050293
1663860791572591600,11.055591552734375,5.235228538513184,-5.210909843444824,2.8918328285217285
1663860791582479000,11.06547900390625,4.334574222564697,-4.125933647155762,1.626151442527771
1663860791592366800,11.075366943359375,3.397597312927246,-2.1528196334838867,-0.2064974308013916
1663860791602254600,11.085254638671875,4.217141151428223,0.6069154739379883,-0.9455283880233765
1663860791612142300,11.095142333984375,4.945949554443359,3.2627315521240234,-0.455607533454895
1663860791622030000,11.105030029296875,5.950100898742676,5.246973991394043,-0.3418290615081787
1663860791631887000,11.11488720703125,7.097246170043945,6.876008987426758,-0.022781729698181152
1663860791641774800,11.12477490234375,7.558283805847168,7.702149391174316,0.5729060173034668
1663860791651662600,11.13466259765625,7.550529956817627,7.824158668518066,0.8155523538589478
1663860791661550300,11.14455029296875,7.337912082672119,7.569219589233398,0.843437910079956
1663860791671438000,11.15443798828125,7.44917106628418,7.178561210632324,0.8744634389877319
1663860791681295000,11.164295166015625,7.608577728271484,6.871539115905762,1.0773028135299683
1663860791691182800,11.174182861328125,7.670275688171387,6.546380996704102,0.832241415977478
1663860791701070600,11.184070556640625,7.934108734130859,6.429798126220703,0.40605783462524414
1663860791710958300,11.193958251953125,8.273781776428223,6.573391914367676,-0.11390256881713867
1663860791720845800,11.203845703125,8.426197052001953,6.920846939086914,-0.6297080516815186
1663860791730703000,11.213703125,8.476780891418457,7.289157867431641,-0.9498409032821655
1663860791740590800,11.2235908203125,8.13404655456543,7.270354270935059,-1.1862001419067383
1663860791750478600,11.233478515625,7.601962566375732,6.985010147094727,-1.1055970191955566
1663860791760366000,11.243365966796874,7.200056552886963,6.485511779785156,-0.9201335906982422
1663860791770253800,11.25325390625,6.657805442810059,5.796314239501953,-0.8351830244064331
1663860791780141600,11.2631416015625,5.600389003753662,5.120338439941406,-0.8061137199401855
1663860791790029300,11.273029296875,3.409470558166504,4.062612533569336,-0.8836596012115479
1663860791799917000,11.2829169921875,-0.5372672080993652,2.268484115600586,-0.9114153385162354
1663860791809804500,11.292804443359374,-6.431979656219482,-0.09667682647705078,-0.7380679845809937
1663860791819692300,11.3026923828125,-13.035530090332031,-3.1467056274414062,-0.6024463176727295
1663860791829580000,11.312580078125,-16.155284881591797,-7.592949867248535,-0.8899345397949219
1663860791839467800,11.3224677734375,-17.172922134399414,-13.97666072845459,-0.6254701614379883
1663860791849325000,11.332324951171875,-20.67840576171875,-22.663692474365234,-1.7149088382720947
1663860791859212500,11.342212646484375,-19.139541625976562,-26.99523162841797,-2.103774070739746
1663860791869100300,11.352100341796875,-11.866446495056152,-16.240196228027344,2.5285990238189697
1663860791878988000,11.361988037109375,-4.95901346206665,-3.551608085632324,1.3021804094314575
1663860791888875800,11.371875732421875,0.707026481628418,5.832310676574707,-0.27175068855285645
1663860791898763500,11.381763427734375,0.6838321685791016,12.010655403137207,0.11183488368988037
1663860791908651000,11.391651123046875,0.9897189140319824,10.942046165466309,-2.056675672531128
1663860791918538800,11.401538818359375,11.33360481262207,2.545093536376953,-2.340057849884033
1663860791928396000,11.41139599609375,16.570484161376953,-5.332479476928711,0.17231881618499756
1663860791938253000,11.421253173828125,4.5468926429748535,-11.712348937988281,-1.2859325408935547
1663860791948110300,11.4311103515625,-9.365948677062988,-15.580938339233398,-1.3611211776733398
1663860791958028500,11.441028564453125,-7.419200420379639,-13.905388832092285,5.579034328460693
1663860791967885800,11.4508857421875,14.719240188598633,-3.703946113586426,6.988306999206543
1663860791977804000,11.460803955078125,23.39487075805664,8.801924705505371,2.4920220375061035
1663860791987661000,11.4706611328125,19.492900848388672,13.524544715881348,-4.89970588684082
1663860791997548800,11.480548828125,1.6270833015441895,8.627948760986328,-15.001590728759766
1663860792007436500,11.4904365234375,-17.229753494262695,3.3718442916870117,-17.401155471801758
1663860792017293600,11.50029345703125,6.728701114654541,2.241213798522949,-4.198463439941406
1663860792027181300,11.510181396484375,29.02944564819336,1.2133598327636719,7.891646862030029
1663860792037099500,11.520099609375,18.680274963378906,-1.5187301635742188,7.879780292510986
1663860792046987300,11.5299873046875,4.089120864868164,-4.80501651763916,3.3080368041992188
1663860792056875000,11.539875,-1.271672248840332,-6.532032012939453,2.695427417755127
1663860792066762800,11.5497626953125,0.581434965133667,-7.429622650146484,3.3429479598999023
1663860792076650500,11.559650390625,3.275352954864502,-7.160488128662109,3.016605854034424
1663860792086538000,11.5695380859375,3.5014796257019043,-5.468748092651367,2.769852876663208
1663860792096425700,11.57942578125,2.3536605834960938,-3.444514274597168,2.3351571559906006
1663860792106313500,11.5893134765625,1.9810891151428223,-1.4990100860595703,1.2635923624038696
1663860792116201200,11.599201171875,2.8351550102233887,0.47597312927246094,0.11058402061462402
1663860792126089000,11.6090888671875,3.2231786251068115,2.0697689056396484,-0.8932303190231323
1663860792135976400,11.6189765625,2.612075090408325,2.9204368591308594,-1.869255542755127
1663860792145833700,11.628833740234375,0.8271075487136841,3.3351917266845703,-2.4190094470977783
1663860792155721500,11.638721435546875,-0.4007866382598877,3.157895088195801,-2.7143330574035645
1663860792165609200,11.648609130859375,-0.390419602394104,2.6077613830566406,-1.9034091234207153
1663860792175496700,11.65849658203125,0.37743717432022095,1.9357452392578125,-0.15233135223388672
1663860792185384400,11.668384521484375,0.9035311937332153,1.0957298278808594,0.7660989761352539
1663860792195272200,11.678272216796875,0.6362559795379639,0.2808218002319336,1.2863945960998535
1663860792205160000,11.688159912109375,-0.37956932187080383,-0.44716835021972656,1.88173246383667
1663860792215047700,11.698047607421875,-1.0019659996032715,-0.5739850997924805,1.8167226314544678
1663860792224874200,11.707874267578125,-1.4367731809616089,0.05000495910644531,1.487295389175415
1663860792234762000,11.717761962890625,-2.1937780380249023,1.0980720520019531,0.8693298101425171
1663860792244619000,11.727618896484374,-2.767641305923462,2.2036209106445312,0.06807076930999756
1663860792254537200,11.737537109375,-1.652334213256836,2.513721466064453,-1.123206615447998
1663860792264425000,11.747425048828125,-1.4014205932617188,2.2092065811157227,-1.8896020650863647
1663860792274282200,11.7572822265625,-2.574519634246826,1.7708663940429688,-1.5877304077148438
1663860792284200400,11.767200439453125,-3.028942584991455,1.3362903594970703,-0.8908071517944336
1663860792294088200,11.777088134765625,-2.694979429244995,0.7416248321533203,-0.044834017753601074
1663860792303976000,11.786975830078125,-2.428788423538208,-0.0997018814086914,1.086363673210144
1663860792313863400,11.796863525390625,-2.201406478881836,-1.216501235961914,2.051482915878296
1663860792323751200,11.806751220703125,-2.587891101837158,-1.8537988662719727,2.918376922607422
1663860792333639000,11.816638916015625,-3.551827907562256,-1.8566341400146484,2.9441628456115723
1663860792343496200,11.82649609375,-5.353740692138672,-1.62744140625,2.23968768119812
1663860792353383700,11.8363837890625,-7.316677093505859,-1.6754684448242188,1.823014736175537
1663860792363271400,11.846271484375,-7.565369129180908,-2.1364059448242188,1.5928955078125
1663860792373159200,11.8561591796875,-5.4424028396606445,-2.1633729934692383,2.107708215713501
1663860792383047000,11.866046875,-3.071167469024658,-2.0915889739990234,3.4373674392700195
1663860792392934700,11.8759345703125,-2.550750732421875,-3.1616525650024414,4.517786026000977
1663860792402822100,11.885822265625,-4.29874324798584,-5.314632415771484,4.524497985839844
1663860792412710000,11.8957099609375,-6.162903785705566,-6.58005428314209,3.8685648441314697
1663860792422567200,11.905567138671875,-5.739904880523682,-6.435481071472168,3.8086893558502197
1663860792432455000,11.915454833984375,-3.8288779258728027,-6.02439022064209,4.4355316162109375
1663860792442342400,11.92534228515625,-3.2678232192993164,-5.766413688659668,4.822324752807617
1663860792452230100,11.935230224609375,-4.477949142456055,-5.655176162719727,3.932574510574341
1663860792462118000,11.945117919921875,-6.412322998046875,-5.578513145446777,1.7484257221221924
1663860792472005600,11.955005615234375,-7.802870750427246,-5.464505195617676,-0.3908705711364746
1663860792481893400,11.964893310546875,-7.202732086181641,-6.284082412719727,-1.933150053024292
1663860792491780900,11.97478076171875,-6.962107181549072,-6.830204010009766,-3.767841100692749
1663860792501668600,11.984668701171875,-7.023336410522461,-5.695240020751953,-6.11527156829834
1663860792511526000,11.99452587890625,-1.2713212966918945,-3.520587921142578,-6.795348167419434
1663860792521383000,12.0043828125,7.288790225982666,-1.8938522338867188,-4.769758224487305
1663860792531270700,12.014270751953125,8.894484519958496,-3.018392562866211,-2.7411751747131348
1663860792541158400,12.024158447265625,5.987411022186279,-6.50590705871582,-3.3368425369262695
1663860792551046100,12.034046142578125,3.68892765045166,-9.390769004821777,-4.850408554077148
1663860792560903400,12.0439033203125,2.853102207183838,-10.291422843933105,-4.744402885437012
1663860792570821600,12.053821533203125,0.3145483732223511,-8.523451805114746,-1.7859423160552979
1663860792580709000,12.063709228515625,-0.6042747497558594,-6.362730979919434,1.6854394674301147
1663860792590596900,12.073596923828125,0.8601937294006348,-5.917034149169922,2.6530792713165283
1663860792600484600,12.083484619140625,1.8756499290466309,-6.474315643310547,1.5513496398925781
1663860792610372400,12.093372314453125,2.8654043674468994,-6.461609840393066,1.0008753538131714
1663860792620229400,12.1032294921875,4.870515823364258,-5.904545783996582,1.2892078161239624
1663860792630117000,12.1131171875,5.264560699462891,-4.947535514831543,0.8146859407424927
1663860792639974400,12.122974365234375,3.696901321411133,-3.3460559844970703,-0.22858190536499023
1663860792649892600,12.132892578125,2.887223720550537,-0.8733024597167969,-1.2986629009246826
1663860792659749600,12.14274951171875,3.7208456993103027,1.7626256942749023,-0.3344050645828247
1663860792669634800,12.152634765625,4.876950740814209,3.353107452392578,0.25946474075317383
1663860792679522600,12.1625224609375,5.993687629699707,4.4997711181640625,0.2748410701751709
1663860792689410300,12.172410400390625,6.614718437194824,5.674613952636719,0.4936661720275879
1663860792699267600,12.182267578125,7.185269832611084,6.576695442199707,1.0093297958374023
1663860792709185800,12.192185791015625,7.428596019744873,7.152094841003418,1.386902928352356
1663860792719042800,12.202042724609376,7.530339241027832,7.31386661529541,1.4830007553100586
1663860792728961000,12.2119609375,7.518922805786133,7.127284049987793,1.5330830812454224
1663860792738818300,12.221818359375,7.594012260437012,7.01259708404541,1.4618120193481445
1663860792748706000,12.2317060546875,8.111350059509277,6.97184944152832,1.3283692598342896
1663860792758593800,12.24159375,8.533416748046875,7.11655330657959,0.9986382722854614
1663860792768481300,12.251481201171876,8.944952011108398,7.545769691467285,0.5568126440048218
1663860792778369000,12.261369140625,9.214094161987305,7.9588518142700195,0.1387162208557129
1663860792788226300,12.271226318359375,9.09516716003418,8.149429321289062,-0.08331525325775146
1663860792798144500,12.28114453125,8.682283401489258,8.020256996154785,0.0656050443649292
1663860792808001500,12.29100146484375,8.082319259643555,7.619768142700195,0.4761216640472412
1663860792817858800,12.30085888671875,7.629295825958252,7.120067596435547,0.7423793077468872
1663860792827746600,12.31074658203125,6.827045440673828,6.700425148010254,0.850206732749939
1663860792837634300,12.32063427734375,4.731409549713135,5.804302215576172,0.7735856771469116
1663860792847521800,12.330521728515626,1.6731023788452148,3.959408760070801,0.3147777318954468
1663860792857409500,12.340409423828126,-3.3503479957580566,1.324538230895996,-0.012009024620056152
1663860792867297300,12.35029736328125,-10.63376522064209,-1.8821744918823242,0.03727447986602783
1663860792877185000,12.36018505859375,-16.744718551635742,-5.899209022521973,-0.9223994016647339
1663860792887072800,12.37007275390625,-17.053998947143555,-11.259005546569824,-1.799540400505066
1663860792896960300,12.379960205078126,-19.661828994750977,-19.36396026611328,-2.9064173698425293
1663860792906817500,12.389817626953125,-24.385631561279297,-28.710296630859375,-5.001245975494385
1663860792916705300,12.399705322265625,-16.14668083190918,-24.83928108215332,-1.234885573387146
1663860792926593000,12.409593017578125,-6.493546009063721,-9.443915367126465,0.9979434013366699
1663860792936511200,12.41951123046875,0.6728215217590332,1.8961296081542969,-1.7173677682876587
1663860792946398700,12.429398681640626,3.7328996658325195,10.950572967529297,-0.4215039014816284
1663860792956256000,12.439256103515625,0.6688680648803711,15.59809398651123,-0.7412171363830566
1663860792966143700,12.449143798828125,4.263878345489502,11.691679954528809,-1.972593069076538
1663860792976001000,12.4590009765625,17.731067657470703,3.0215492248535156,1.6680889129638672
1663860792985919200,12.468919189453125,15.380313873291016,-4.056765556335449,4.746931076049805
1663860792995806700,12.478806640625,2.556915283203125,-9.698144912719727,2.197490692138672
1663860793005664000,12.4886640625,-6.280705451965332,-14.877408027648926,1.99927818775177
1663860793015582200,12.498582275390625,-2.083282947540283,-14.835884094238281,3.179319381713867
1663860793025439500,12.508439453125,11.23171615600586,-4.429324150085449,1.2306208610534668
1663860793035327000,12.518326904296876,18.580280303955078,5.7932281494140625,-2.7929959297180176
1663860793045214700,12.528214599609376,9.15604305267334,7.234135627746582,-10.948664665222168
1663860793055102500,12.5381025390625,-9.242451667785645,4.2460126876831055,-15.860187530517578
1663860793064959700,12.547959716796875,-1.3186583518981934,2.398036003112793,-9.521981239318848
1663860793074847200,12.55784716796875,18.971773147583008,1.6469669342041016,2.0074172019958496
1663860793084765400,12.567765380859376,20.905384063720703,0.4370918273925781,6.720178127288818
1663860793094653200,12.577653076171876,10.76766586303711,-1.4500646591186523,4.876537799835205
1663860793104510500,12.587510498046875,3.1961007118225098,-3.5456371307373047,3.057771682739258
1663860793114367500,12.597367431640626,1.1512622833251953,-4.794726371765137,3.5507218837738037
1663860793124255200,12.607255126953126,2.993530035018921,-5.269597053527832,4.613070487976074
1663860793134173400,12.61717333984375,3.4884090423583984,-5.641867637634277,3.753458023071289
1663860793144061200,12.627061279296875,2.163846254348755,-5.131779670715332,2.809490203857422
1663860793153949000,12.636948974609375,1.4990756511688232,-3.736635208129883,2.4291508197784424
1663860793163836700,12.646836669921875,2.153249502182007,-1.9000768661499023,1.762970209121704
1663860793173724200,12.65672412109375,3.133145332336426,-0.166839599609375,0.6252994537353516
1663860793183612000,12.66661181640625,2.8507742881774902,1.274500846862793,-0.31518876552581787
1663860793193499600,12.676499755859375,1.5286405086517334,2.236823081970215,-1.3057055473327637
1663860793203387400,12.686387451171875,-0.2052379846572876,2.6777944564819336,-2.3774900436401367
1663860793213275100,12.696275146484375,-1.3909145593643188,2.807525634765625,-2.79945707321167
1663860793223132200,12.706132080078126,-0.8586018681526184,2.658198356628418,-2.0888543128967285
1663860793233020000,12.71602001953125,0.11706775426864624,2.2818870544433594,-1.1756714582443237
1663860793242907600,12.72590771484375,0.898629903793335,1.9525556564331055,-0.752415657043457
1663860793252795400,12.73579541015625,0.8866590857505798,1.275564193725586,0.4768791198730469
1663860793262683100,12.74568310546875,0.23265774548053741,0.4098052978515625,1.0659229755401611
1663860793272570600,12.755570556640626,-0.37023425102233887,0.16524696350097656,0.9675555229187012
1663860793282458400,12.765458251953126,-1.3675942420959473,0.5362081527709961,0.438083291053772
1663860793292346000,12.77534619140625,-2.0102686882019043,1.2328462600708008,-0.26786863803863525
1663860793302233900,12.78523388671875,-1.4954442977905273,1.9393186569213867,-0.9111514091491699
1663860793312121600,12.79512158203125,-1.452325701713562,2.4667491912841797,-2.2652816772460938
1663860793321978600,12.804978515625,-2.8253612518310547,2.3316850662231445,-2.8996496200561523
1663860793331866400,12.814866455078125,-3.6302056312561035,2.06734561920166,-2.2552554607391357
1663860793341754000,12.824754150390625,-3.0761942863464355,1.78167724609375,-0.5408749580383301
1663860793351641900,12.834641845703125,-1.572645664215088,1.166250228881836,1.5981645584106445
1663860793361529300,12.844529296875,-0.40512943267822266,0.005860328674316406,3.012016534805298
