time,seconds_elapsed,z,y,x
1663860780759877000,0.242877197265625,8.696532249450684,3.1192376613616943,-3.288018226623535
1663860780769764900,0.252764892578125,8.992363929748535,2.7405741214752197,-2.7923169136047363
1663860780779652600,0.262652587890625,9.087291717529297,2.440904378890991,-2.7628815174102783
1663860780789540000,0.2725400390625,9.176883697509766,2.234938383102417,-2.638227939605713
1663860780799427800,0.282427734375,9.309208869934082,2.040990114212036,-2.3115785121917725
1663860780809315600,0.292315673828125,9.404524803161621,1.9415068626403809,-1.988930344581604
1663860780819203300,0.302203369140625,9.442934036254883,1.9657179117202759,-1.7712514400482178
1663860780829121500,0.31212158203125,9.467239379882812,2.011371374130249,-1.5799226760864258
1663860780839009300,0.32200927734375,9.489624977111816,2.056335926055908,-1.3743668794631958
1663860780848896800,0.331896728515625,9.509601593017578,2.092442512512207,-1.1660010814666748
1663860780858784500,0.341784423828125,9.52284049987793,2.098093032836914,-1.0411075353622437
1663860780868611300,0.351611328125,9.533445358276367,2.0676915645599365,-1.004217505455017
1663860780878498800,0.361498779296875,9.543861389160156,2.0460731983184814,-0.947987973690033
1663860780888356000,0.371356201171875,9.555785179138184,2.0279381275177,-0.8630369305610657
1663860780898274300,0.3812744140625,9.567611694335938,2.0225448608398438,-0.735201358795166
1663860780908162000,0.391162109375,9.578780174255371,2.030055046081543,-0.5442872047424316
1663860780918019000,0.40101904296875,9.584515571594238,2.0450286865234375,-0.3539981544017792
1663860780927906800,0.41090673828125,9.577839851379395,2.077592372894287,-0.34491801261901855
1663860780937794600,0.420794677734375,9.564727783203125,2.1092967987060547,-0.4870763123035431
1663860780947682300,0.430682373046875,9.566645622253418,2.1090903282165527,-0.4487919509410858
1663860780957570000,0.440570068359375,9.569114685058594,2.1309947967529297,-0.24758727848529816
1663860780967457800,0.450457763671875,9.56185531616211,2.176990032196045,-0.04512108489871025
1663860780977345300,0.46034521484375,9.559791564941406,2.1841883659362793,0.10046610981225967
1663860780987233000,0.47023291015625,9.576555252075195,2.103644609451294,0.18618032336235046
1663860780997090300,0.48009033203125,9.609491348266602,1.944852590560913,0.21356815099716187
1663860781006978000,0.48997802734375,9.638442993164062,1.7863084077835083,0.2826754152774811
1663860781016865500,0.499865478515625,9.653446197509766,1.665878176689148,0.4541032016277313
1663860781026753300,0.509753173828125,9.656638145446777,1.5661566257476807,0.6832809448242188
1663860781036641000,0.51964111328125,9.6430025100708,1.5085476636886597,0.95246422290802
1663860781046528800,0.52952880859375,9.600875854492188,1.530801773071289,1.2846107482910156
1663860781056385800,0.5393857421875,9.547797203063965,1.6080938577651978,1.5569223165512085
1663860781066273500,0.5492734375,9.504202842712402,1.679075002670288,1.7381700277328491
1663860781076161300,0.559161376953125,9.456945419311523,1.7383126020431519,1.92738676071167
1663860781086018600,0.5690185546875,9.385965347290039,1.8001857995986938,2.1984941959381104
1663860781095936800,0.578936767578125,9.29118824005127,1.8319447040557861,2.547192335128784
1663860781105824300,0.58882421875,9.174561500549316,1.8042117357254028,2.956794261932373
1663860781115712000,0.5987119140625,9.046372413635254,1.7068709135055542,3.379365921020508
1663860781125599700,0.608599853515625,8.927184104919434,1.5417935848236084,3.7548162937164307
1663860781135487500,0.618487548828125,8.818269729614258,1.353450059890747,4.071445465087891
1663860781145344500,0.628344482421875,8.704258918762207,1.1774410009384155,4.361179828643799
1663860781155232300,0.638232177734375,8.575545310974121,1.0256308317184448,4.645264625549316
1663860781165120000,0.6481201171875,8.44505786895752,0.9067482352256775,4.901957988739014
1663860781175007700,0.6580078125,8.321351051330566,0.7883544564247131,5.128743648529053
1663860781184895500,0.6678955078125,8.226021766662598,0.6328863501548767,5.301168441772461
1663860781194783200,0.677783203125,8.1669282913208,0.45478540658950806,5.409698486328125
1663860781204670700,0.687670654296875,8.116108894348145,0.29507774114608765,5.496552467346191
1663860781214558500,0.697558349609375,8.033868789672852,0.18015840649604797,5.620931625366211
1663860781224446200,0.7074462890625,7.896735191345215,0.13235197961330414,5.813297271728516
1663860781234334000,0.717333984375,7.721116542816162,0.12947611510753632,6.044665336608887
1663860781244221700,0.7272216796875,7.571191787719727,0.10708528757095337,6.231852054595947
1663860781254109200,0.737109130859375,7.500594615936279,0.06274218112230301,6.317240238189697
1663860781263997000,0.746996826171875,7.487304210662842,0.01711178570985794,6.333274841308594
1663860781273854200,0.756854248046875,7.483107566833496,-0.0007995961932465434,6.338255882263184
1663860781283711200,0.766711181640625,7.464674949645996,-0.014807749539613724,6.359936714172363
1663860781293599000,0.776598876953125,7.422938823699951,-0.03570519760251045,6.4085164070129395
1663860781303486700,0.78648681640625,7.35850715637207,-0.06256956607103348,6.482194900512695
1663860781313344000,0.796343994140625,7.293303489685059,-0.09321068972349167,6.5551066398620605
1663860781323262200,0.80626220703125,7.242008686065674,-0.1575583964586258,6.610512733459473
1663860781333119000,0.816118896484375,7.206496238708496,-0.2642744779586792,6.645822525024414
1663860781343006700,0.8260068359375,7.1827569007873535,-0.4025413691997528,6.664559841156006
1663860781352894500,0.83589453125,7.153158664703369,-0.5540955662727356,6.685482978820801
1663860781362782000,0.845781982421875,7.111512184143066,-0.6918597221374512,6.717001438140869
1663860781372669700,0.855669677734375,7.0664567947387695,-0.7996395230293274,6.752492427825928
1663860781382557400,0.865557373046875,7.026619911193848,-0.8987324237823486,6.781538963317871
1663860781392445200,0.875445068359375,7.000617980957031,-1.0036916732788086,6.793697834014893
1663860781402333000,0.8853330078125,6.981010437011719,-1.1189831495285034,6.795863151550293
1663860781412220400,0.895220458984375,6.961686134338379,-1.2491915225982666,6.792998313903809
1663860781422108200,0.905108154296875,6.929443836212158,-1.385079026222229,6.799614429473877
1663860781431996000,0.914995849609375,6.86558723449707,-1.5153794288635254,6.83650016784668
1663860781441883600,0.924883544921875,6.7629828453063965,-1.6363691091537476,6.910480976104736
1663860781451740700,0.93474072265625,6.626572608947754,-1.7534589767456055,7.013153553009033
1663860781461628400,0.94462841796875,6.470364093780518,-1.8942922353744507,7.121546268463135
1663860781471516200,0.95451611328125,6.304108619689941,-2.0723092555999756,7.220396995544434
1663860781481404000,0.96440380859375,6.138454437255859,-2.3030123710632324,7.292866230010986
1663860781491261000,0.974260986328125,5.976339340209961,-2.5946600437164307,7.329494476318359
1663860781501148700,0.984148681640625,5.81874418258667,-2.9092655181884766,7.33817195892334
1663860781511036400,0.994036376953125,5.665643215179443,-3.2176806926727295,7.3292155265808105
1663860781520924200,1.003924072265625,5.525604248046875,-3.506371259689331,7.303659915924072
1663860781530812000,1.01381201171875,5.409068584442139,-3.780193328857422,7.2541375160217285
1663860781540699600,1.02369970703125,5.326683521270752,-4.050054550170898,7.168953895568848
1663860781550556700,1.033556640625,5.250790596008301,-4.341165065765381,7.0536417961120605
1663860781560475000,1.043474853515625,5.15579891204834,-4.647220611572266,6.927586555480957
1663860781570362600,1.053362548828125,5.042777061462402,-4.934596061706543,6.811060428619385
1663860781580250400,1.06325048828125,4.894576549530029,-5.180780410766602,6.735950946807861
1663860781590138000,1.07313818359375,4.71315860748291,-5.3936381340026855,6.698148250579834
1663860781599995100,1.0829951171875,4.529681205749512,-5.577938079833984,6.67375373840332
1663860781609883000,1.0928828125,4.353965759277344,-5.731717586517334,6.660390377044678
1663860781619740200,1.102740234375,4.179007053375244,-5.8976521492004395,6.6275177001953125
1663860781629658400,1.112658447265625,4.010756015777588,-6.0884480476379395,6.558584690093994
1663860781639545900,1.1225458984375,3.8387463092803955,-6.286518573760986,6.474109172821045
1663860781649433600,1.13243359375,3.6496989727020264,-6.454289436340332,6.418118953704834
1663860781659321300,1.1423212890625,3.456127166748047,-6.555332660675049,6.422863483428955
1663860781669209000,1.152208984375,3.30176043510437,-6.579079627990723,6.479543209075928
1663860781679066000,1.162066162109375,3.198629379272461,-6.565828800201416,6.544390678405762
1663860781688953900,1.171953857421875,3.158860683441162,-6.5285115242004395,6.600797653198242
1663860781698841600,1.181841552734375,3.1827239990234375,-6.4730024337768555,6.643860340118408
1663860781708729300,1.191729248046875,3.2224762439727783,-6.418392658233643,6.67759370803833
1663860781718586400,1.20158642578125,3.226173162460327,-6.3753790855407715,6.716899871826172
1663860781728474000,1.21147412109375,3.174269437789917,-6.338768005371094,6.776017665863037
1663860781738361900,1.22136181640625,3.0892152786254883,-6.277979850769043,6.871252059936523
1663860781748249600,1.23124951171875,2.969896078109741,-6.180324077606201,7.010969638824463
1663860781758107000,1.24110693359375,2.8126320838928223,-6.054487228393555,7.183501243591309
1663860781768025000,1.251025146484375,2.6778266429901123,-5.897110462188721,7.363675594329834
1663860781777912600,1.26091259765625,2.603466272354126,-5.709267616271973,7.53635311126709
1663860781787800300,1.27080029296875,2.559922695159912,-5.504614353179932,7.701714038848877
1663860781797657600,1.28065771484375,2.508989095687866,-5.288331031799316,7.868222236633301
1663860781807545300,1.29054541015625,2.4188358783721924,-5.058931827545166,8.04529857635498
1663860781817432800,1.300432861328125,2.276890277862549,-4.830010414123535,8.225396156311035
1663860781827320600,1.310320556640625,2.0759756565093994,-4.62553071975708,8.394354820251465
1663860781837208300,1.320208251953125,1.8467347621917725,-4.4808526039123535,8.525368690490723
1663860781847096000,1.330095947265625,1.6167241334915161,-4.421581745147705,8.60268497467041
1663860781856983800,1.33998388671875,1.3954404592514038,-4.445796489715576,8.62890625
1663860781866871300,1.349871337890625,1.2430610656738281,-4.489294528961182,8.629682540893555
1663860781876759000,1.359759033203125,1.1518272161483765,-4.551273345947266,8.609854698181152
1663860781886646800,1.369646728515625,1.018261194229126,-4.594913482666016,8.60350513458252
1663860781896534500,1.379534423828125,0.8061379194259644,-4.592881679534912,8.62704849243164
1663860781906422300,1.38942236328125,0.5706039071083069,-4.558178901672363,8.664168357849121
1663860781916309800,1.399309814453125,0.3156419098377228,-4.50361967086792,8.705639839172363
1663860781926197500,1.409197509765625,0.07327183336019516,-4.461633682250977,8.73263168334961
1663860781936085200,1.419085205078125,-0.12381294369697571,-4.441701412200928,8.742216110229492
1663860781945973000,1.428972900390625,-0.20587404072284698,-4.435374736785889,8.743881225585938
1663860781955830300,1.438830322265625,-0.24473007023334503,-4.4247727394104,8.748250961303711
1663860781965717800,1.4487177734375,-0.27084335684776306,-4.4066081047058105,8.756645202636719
1663860781975605500,1.45860546875,-0.2841126024723053,-4.386124134063721,8.766502380371094
1663860781985493200,1.4684931640625,-0.3154536485671997,-4.375036239624023,8.770971298217773
1663860781995381000,1.478381103515625,-0.34794294834136963,-4.361371040344238,8.776546478271484
1663860782005268700,1.488268798828125,-0.38708436489105225,-4.341506004333496,8.78475284576416
1663860782015125800,1.498125732421875,-0.44331204891204834,-4.318354606628418,8.793501853942871
1663860782024983000,1.507983154296875,-0.4905896782875061,-4.294189929962158,8.802820205688477
1663860782034870800,1.517870849609375,-0.5112152099609375,-4.273892402648926,8.81152057647705
1663860782044727800,1.527727783203125,-0.504298210144043,-4.24814510345459,8.824359893798828
1663860782054615600,1.537615478515625,-0.5178754329681396,-4.203493118286133,8.844932556152344
1663860782064533800,1.54753369140625,-0.5788710713386536,-4.123945713043213,8.878534317016602
1663860782074421500,1.55742138671875,-0.6401934027671814,-4.020349502563477,8.921733856201172
1663860782084309200,1.567309326171875,-0.6853764653205872,-3.914473056793213,8.965352058410645
1663860782094196700,1.57719677734375,-0.7180464863777161,-3.8178422451019287,9.00438117980957
1663860782104084500,1.58708447265625,-0.7468633055686951,-3.7281806468963623,9.039538383483887
1663860782113972200,1.59697216796875,-0.7534282207489014,-3.6352319717407227,9.076774597167969
1663860782123860000,1.60685986328125,-0.7379672527313232,-3.5443341732025146,9.113916397094727
1663860782133747700,1.616747802734375,-0.72065669298172,-3.4496359825134277,9.151559829711914
1663860782143635200,1.62663525390625,-0.7130517959594727,-3.34812068939209,9.189778327941895
1663860782153523000,1.63652294921875,-0.7244232296943665,-3.2427921295166016,9.22658634185791
1663860782163410700,1.64641064453125,-0.7596378922462463,-3.1294021606445312,9.262838363647461
1663860782173268000,1.65626806640625,-0.7914120554924011,-3.0109238624572754,9.299375534057617
1663860782183155700,1.66615576171875,-0.7798839807510376,-2.89601469039917,9.336770057678223
1663860782193043200,1.676043212890625,-0.7437840700149536,-2.7831382751464844,9.373969078063965
1663860782202931000,1.685930908203125,-0.7247897386550903,-2.6753084659576416,9.406793594360352
1663860782212788200,1.695788330078125,-0.7379233241081238,-2.5842413902282715,9.431201934814453
1663860782222676000,1.705676025390625,-0.7735894918441772,-2.4841883182525635,9.455198287963867
1663860782232533000,1.715532958984375,-0.8499213457107544,-2.3972010612487793,9.471084594726562
1663860782242451200,1.725451171875,-0.9600090384483337,-2.335089683532715,9.476081848144531
1663860782252339000,1.7353388671875,-1.1117998361587524,-2.3187508583068848,9.463491439819336
1663860782262226700,1.745226806640625,-1.2619035243988037,-2.3396122455596924,9.439501762390137
1663860782272114400,1.755114501953125,-1.4223692417144775,-2.388418436050415,9.404398918151855
1663860782282002000,1.765001953125,-1.586960792541504,-2.4469118118286133,9.362936019897461
1663860782291889700,1.7748896484375,-1.7076367139816284,-2.513810634613037,9.32390022277832
1663860782301777400,1.78477734375,-1.7188735008239746,-2.589019775390625,9.301227569580078
1663860782311665200,1.7946650390625,-1.6254695653915405,-2.68088436126709,9.291990280151367
1663860782321522200,1.804522216796875,-1.5216938257217407,-2.7921557426452637,9.276782989501953
1663860782331410000,1.814409912109375,-1.4227124452590942,-2.935208320617676,9.248289108276367
1663860782341297700,1.824297607421875,-1.2285491228103638,-3.0865609645843506,9.22681999206543
1663860782351185400,1.834185302734375,-1.0276716947555542,-3.2327215671539307,9.201292991638184
1663860782361073200,1.8440732421875,-0.9018464684486389,-3.382284164428711,9.16063404083252
1663860782370960600,1.853960693359375,-0.8085482716560364,-3.5299479961395264,9.11351203918457
1663860782380848400,1.863848388671875,-0.6810460686683655,-3.6513378620147705,9.076027870178223
1663860782390705700,1.87370556640625,-0.5109079480171204,-3.763359785079956,9.041377067565918
1663860782400593400,1.883593505859375,-0.30648714303970337,-3.8814687728881836,9.000591278076172
1663860782410481200,1.893481201171875,-0.09245672076940536,-4.013102054595947,8.94744873046875
1663860782420368600,1.90336865234375,0.07330872863531113,-4.152416229248047,8.883831024169922
1663860782430256400,1.91325634765625,0.15974918007850647,-4.301243305206299,8.811593055725098
1663860782440144100,1.92314404296875,0.18353959918022156,-4.465170860290527,8.72920036315918
1663860782450031900,1.933031982421875,0.18934686481952667,-4.674810886383057,8.618624687194824
1663860782459919600,1.942919677734375,0.2151072472333908,-4.917450904846191,8.48190975189209
1663860782469776600,1.952776611328125,0.2530725598335266,-5.174281120300293,8.326653480529785
1663860782479634000,1.962634033203125,0.2782975733280182,-5.452991485595703,8.146031379699707
1663860782489521700,1.972521728515625,0.28774741291999817,-5.76251220703125,7.929757118225098
1663860782499409200,1.9824091796875,0.30494219064712524,-6.076415061950684,7.691201686859131
1663860782509297000,1.992296875,0.3476335108280182,-6.3745012283325195,7.444143772125244
1663860782519184600,2.0021845703125,0.41201046109199524,-6.643673419952393,7.201544284820557
1663860782529072400,2.012072265625,0.5263174176216125,-6.865184783935547,6.983023166656494
1663860782538960100,2.021960205078125,0.690637469291687,-7.045034408569336,6.786818504333496
1663860782548847600,2.03184765625,0.8282038569450378,-7.178000450134277,6.630292892456055
1663860782558735400,2.0417353515625,0.9070914387702942,-7.280721664428711,6.506816387176514
1663860782568623000,2.051623046875,0.9796352982521057,-7.3702311515808105,6.394559383392334
1663860782578510800,2.0615107421875,1.0642520189285278,-7.445556163787842,6.292967796325684
1663860782588398600,2.071398681640625,1.1457839012145996,-7.509786128997803,6.2016682624816895
1663860782598286000,2.0812861328125,1.2246299982070923,-7.573852062225342,6.107982158660889
1663860782608173800,2.091173828125,1.3118741512298584,-7.648420810699463,5.9959187507629395
1663860782618031000,2.101031005859375,1.4114843606948853,-7.74066686630249,5.853219509124756
1663860782627918800,2.1109189453125,1.5114144086837769,-7.833785533905029,5.7024383544921875
1663860782637806600,2.120806640625,1.608199119567871,-7.921631813049316,5.552642345428467
1663860782647694000,2.130694091796875,1.7037192583084106,-8.015212059020996,5.387402057647705
1663860782657581800,2.140581787109375,1.7719016075134277,-8.120368003845215,5.2048420906066895
1663860782667470600,2.150470703125,1.781157374382019,-8.223421096801758,5.0371832847595215
1663860782677328000,2.160327880859375,1.747948408126831,-8.301941871643066,4.91862154006958
1663860782687215600,2.170215576171875,1.6975094079971313,-8.343192100524902,4.866209506988525
1663860782697103400,2.180103271484375,1.6511173248291016,-8.358834266662598,4.855315685272217
1663860782706990800,2.189990966796875,1.6119532585144043,-8.384665489196777,4.82383394241333
1663860782716878600,2.199878662109375,1.5641111135482788,-8.43647289276123,4.748671531677246
1663860782726766300,2.209766357421875,1.4882105588912964,-8.50706958770752,4.6460065841674805
1663860782736654000,2.219654052734375,1.3823648691177368,-8.59376335144043,4.5173749923706055
1663860782746511000,2.229510986328125,1.2611347436904907,-8.69137191772461,4.3634843826293945
1663860782756368400,2.239368408203125,1.1446794271469116,-8.792911529541016,4.188650131225586
1663860782766256000,2.249256103515625,1.035643219947815,-8.898019790649414,3.990373373031616
1663860782776144000,2.259143798828125,0.9046585559844971,-9.008548736572266,3.7680270671844482
1663860782786001000,2.2690009765625,0.7183857560157776,-9.122758865356445,3.5255608558654785
1663860782795888600,2.278888671875,0.4787191152572632,-9.23446273803711,3.2658722400665283
1663860782805806800,2.288806884765625,0.19663578271865845,-9.339642524719238,2.9837582111358643
1663860782815694600,2.298694580078125,-0.13040347397327423,-9.437518119812012,2.6620750427246094
1663860782825551600,2.308551513671875,-0.5004284977912903,-9.526790618896484,2.271608352661133
1663860782835469800,2.3184697265625,-0.8852680921554565,-9.597801208496094,1.808008074760437
1663860782845357600,2.328357666015625,-1.2383195161819458,-9.639602661132812,1.3095817565917969
1663860782855245300,2.338245361328125,-1.5411497354507446,-9.651840209960938,0.7982639074325562
1663860782865102600,2.3481025390625,-1.8152718544006348,-9.63320541381836,0.2766110599040985
1663860782874959600,2.357959716796875,-2.086989164352417,-9.578746795654297,-0.2499789595603943
1663860782884847400,2.367847412109375,-2.36068058013916,-9.487181663513184,-0.7687385678291321
1663860782894735000,2.377735107421875,-2.6401517391204834,-9.359172821044922,-1.26723051071167
1663860782904622800,2.387622802734375,-2.9044594764709473,-9.202634811401367,-1.7452843189239502
1663860782914479900,2.39747998046875,-3.1296398639678955,-9.038203239440918,-2.1648640632629395
1663860782924398000,2.407398193359375,-3.3404197692871094,-8.889204025268555,-2.448270559310913
1663860782934285800,2.417285888671875,-3.550976276397705,-8.779165267944336,-2.5470008850097656
1663860782944143000,2.42714306640625,-3.736029863357544,-8.711148262023926,-2.515625
1663860782954061300,2.437061279296875,-3.8913521766662598,-8.660840034484863,-2.453084945678711
1663860782963949000,2.446948974609375,-4.126832008361816,-8.563851356506348,-2.4083361625671387
1663860782973806000,2.45680615234375,-4.445324420928955,-8.371024131774902,-2.517028331756592
1663860782983724300,2.466724365234375,-4.604584217071533,-8.255154609680176,-2.6116302013397217
1663860782993581600,2.47658154296875,-4.764576435089111,-8.151341438293457,-2.6504414081573486
1663860783003469300,2.48646923828125,-4.873384952545166,-8.075469017028809,-2.6846394538879395
1663860783013356800,2.496356689453125,-4.944146633148193,-8.020122528076172,-2.7209267616271973
1663860783023244500,2.50624462890625,-4.990969657897949,-7.975081920623779,-2.7674317359924316
1663860783033101800,2.516101806640625,-5.012788772583008,-7.941733360290527,-2.823331356048584
1663860783043020000,2.52602001953125,-5.010644435882568,-7.9222517013549805,-2.881274938583374
1663860783052877000,2.535876953125,-4.985851764678955,-7.919765949249268,-2.9306952953338623
1663860783062764800,2.545764892578125,-4.9522223472595215,-7.930485725402832,-2.958594560623169
1663860783072652500,2.555652587890625,-4.911347389221191,-7.948997497558594,-2.9769961833953857
1663860783082540300,2.565540283203125,-4.85750150680542,-7.976095199584961,-2.992818593978882
1663860783092428000,2.575427978515625,-4.7913031578063965,-8.014779090881348,-2.9961836338043213
1663860783102315800,2.585315673828125,-4.709489822387695,-8.064878463745117,-2.9914591312408447
1663860783112203300,2.595203369140625,-4.609711647033691,-8.126091957092285,-2.981201648712158
1663860783122091000,2.605091064453125,-4.490825653076172,-8.199626922607422,-2.9612479209899902
1663860783131978800,2.614978759765625,-4.353589057922363,-8.284886360168457,-2.928703784942627
1663860783141836000,2.6248359375,-4.198777198791504,-8.380836486816406,-2.881361484527588
1663860783151723500,2.6347236328125,-4.024481296539307,-8.487899780273438,-2.815936326980591
1663860783161611300,2.644611328125,-3.838355541229248,-8.600716590881348,-2.7322325706481934
1663860783171499000,2.6544990234375,-3.6531829833984375,-8.709554672241211,-2.6397531032562256
1663860783181386800,2.66438671875,-3.4848196506500244,-8.803938865661621,-2.5528557300567627
1663860783191274500,2.6742744140625,-3.3554604053497314,-8.874348640441895,-2.4813735485076904
1663860783201162000,2.684161865234375,-3.2815463542938232,-8.917102813720703,-2.4263389110565186
1663860783211049700,2.6940498046875,-3.2678632736206055,-8.934039115905762,-2.3820998668670654
1663860783220937500,2.7039375,-3.3314480781555176,-8.921806335449219,-2.3394882678985596
1663860783230825200,2.7138251953125,-3.4754841327667236,-8.875596046447754,-2.305469036102295
1663860783240713000,2.723712890625,-3.6639363765716553,-8.79922103881836,-2.3064401149749756
1663860783250600400,2.733600341796875,-3.8493151664733887,-8.708381652832031,-2.348879814147949
1663860783260488200,2.74348828125,-3.986889362335205,-8.624282836914062,-2.4283411502838135
1663860783270376000,2.7533759765625,-4.08257532119751,-8.555849075317383,-2.5100598335266113
1663860783280263700,2.763263671875,-4.154087066650391,-8.507733345031738,-2.555861234664917
1663860783290120700,2.77312060546875,-4.205633163452148,-8.47708511352539,-2.573335647583008
1663860783300008400,2.783008544921875,-4.230381488800049,-8.458890914916992,-2.5925724506378174
1663860783309896200,2.792896240234375,-4.229076385498047,-8.45987319946289,-2.591492176055908
1663860783319784000,2.802783935546875,-4.176851272583008,-8.498995780944824,-2.5478172302246094
1663860783329641200,2.81264111328125,-4.077465057373047,-8.565484046936035,-2.4853873252868652
1663860783339528700,2.82252880859375,-4.019994258880615,-8.607283592224121,-2.4340713024139404
1663860783349416400,2.83241650390625,-4.102263450622559,-8.588539123535156,-2.361953020095825
1663860783359304200,2.84230419921875,-4.236630916595459,-8.544733047485352,-2.282296895980835
1663860783369192000,2.85219189453125,-4.264806747436523,-8.542486190795898,-2.237794876098633
1663860783379079700,2.86207958984375,-4.181324005126953,-8.580713272094727,-2.2490627765655518
1663860783388967200,2.87196728515625,-4.083047866821289,-8.612751960754395,-2.3064284324645996
1663860783398824400,2.881824462890625,-4.0519022941589355,-8.59522819519043,-2.423743724822998
1663860783408712200,2.891712158203125,-4.0418877601623535,-8.558931350708008,-2.5648036003112793
1663860783418600000,2.901599853515625,-4.00022554397583,-8.569001197814941,-2.596304178237915
1663860783428487400,2.9114873046875,-3.8770577907562256,-8.6560640335083,-2.492262840270996
1663860783438375200,2.921375244140625,-3.685279369354248,-8.785855293273926,-2.32332706451416
1663860783448263000,2.931262939453125,-3.46864652633667,-8.915032386779785,-2.1589508056640625
1663860783458150700,2.941150634765625,-3.2288832664489746,-9.034407615661621,-2.030805826187134
1663860783468038400,2.951038330078125,-2.9297356605529785,-9.154582023620605,-1.944387674331665
1663860783477926000,2.96092578125,-2.574927806854248,-9.272624969482422,-1.8864103555679321
1663860783487783200,2.970783203125,-2.2110869884490967,-9.374855041503906,-1.8421695232391357
1663860783497671000,2.9806708984375,-1.8716435432434082,-9.455577850341797,-1.8053724765777588
1663860783507558700,2.99055859375,-1.5651837587356567,-9.516210556030273,-1.7782927751541138
1663860783517415700,3.000415771484375,-1.2875713109970093,-9.56007194519043,-1.765661358833313
1663860783527273000,3.01027294921875,-1.0329318046569824,-9.589973449707031,-1.7708327770233154
1663860783537191200,3.020191162109375,-0.8001288175582886,-9.607921600341797,-1.793887734413147
1663860783547048400,3.03004833984375,-0.5967481136322021,-9.615809440612793,-1.8304375410079956
1663860783556936000,3.03993603515625,-0.42236414551734924,-9.617337226867676,-1.8705075979232788
1663860783566854100,3.049854248046875,-0.2789384424686432,-9.616491317749023,-1.9014980792999268
1663860783576711400,3.05971142578125,-0.1620723456144333,-9.616790771484375,-1.9134916067123413
1663860783586599200,3.06959912109375,-0.050157684832811356,-9.620329856872559,-1.9018754959106445
1663860783596487000,3.07948681640625,0.08806376159191132,-9.625341415405273,-1.874945878982544
1663860783606374400,3.08937451171875,0.2690037786960602,-9.626832962036133,-1.8498936891555786
1663860783616231700,3.099231689453125,0.4828254282474518,-9.62168025970459,-1.8331767320632935
1663860783626150000,3.10914990234375,0.7086825370788574,-9.610188484191895,-1.820012092590332
1663860783636037600,3.11903759765625,0.9187716245651245,-9.593742370605469,-1.81283438205719
1663860783645925400,3.12892529296875,1.0946590900421143,-9.573280334472656,-1.823299765586853
1663860783665670100,3.148670166015625,1.2917605638504028,-9.521014213562012,-1.9626562595367432
1663860783675558000,3.158557861328125,1.3599491119384766,-9.489724159240723,-2.065444231033325
1663860783685445600,3.168445556640625,1.418028712272644,-9.456093788146973,-2.1775848865509033
1663860783695333000,3.1783330078125,1.4816582202911377,-9.421294212341309,-2.2834835052490234
1663860783705190400,3.1881904296875,1.565108060836792,-9.384037971496582,-2.37921142578125
1663860783715078100,3.198078125,1.6762213706970215,-9.342300415039062,-2.4661874771118164
1663860783724966000,3.2079658203125,1.8077431917190552,-9.29731273651123,-2.542130708694458
1663860783734853400,3.217853271484375,1.9368865489959717,-9.25368595123291,-2.6054043769836426
1663860783744741000,3.2277412109375,2.036872625350952,-9.21661376953125,-2.659994602203369
1663860783754628900,3.23762890625,2.0931708812713623,-9.18989086151123,-2.708306074142456
1663860783764516600,3.2475166015625,2.112028121948242,-9.174155235290527,-2.746743679046631
1663860783774404400,3.257404296875,2.1080336570739746,-9.168085098266602,-2.7699811458587646
1663860783784292000,3.2672919921875,2.0898897647857666,-9.16923999786377,-2.7798898220062256
1663860783794179600,3.2771796875,2.0647523403167725,-9.17430591583252,-2.7819571495056152
1663860783804036900,3.287036865234375,2.0326085090637207,-9.181905746459961,-2.7805585861206055
1663860783813924600,3.296924560546875,1.9935758113861084,-9.191466331481934,-2.77722430229187
1663860783823812400,3.306812255859375,1.9522184133529663,-9.2018404006958,-2.772247076034546
1663860783833669400,3.31666943359375,1.9072291851043701,-9.214259147644043,-2.7622976303100586
1663860783843557000,3.32655712890625,1.849830150604248,-9.23314380645752,-2.738168478012085
1663860783853444900,3.33644482421875,1.7810274362564087,-9.262468338012695,-2.6842124462127686
1663860783863332600,3.34633251953125,1.697814702987671,-9.304953575134277,-2.5895261764526367
1663860783873220000,3.35622021484375,1.59064781665802,-9.359833717346191,-2.456369161605835
1663860783883107800,3.36610791015625,1.4459724426269531,-9.421929359436035,-2.3036487102508545
1663860783892995600,3.37599560546875,1.2555615901947021,-9.484109878540039,-2.1553707122802734
1663860783902852900,3.385852783203125,1.0082345008850098,-9.540371894836426,-2.0335090160369873
1663860783912740400,3.395740234375,0.6972372531890869,-9.58344841003418,-1.9600392580032349
1663860783922628000,3.405628173828125,0.33867132663726807,-9.60522174835205,-1.9481792449951172
1663860783932515800,3.415515869140625,-0.03464275598526001,-9.603461265563965,-1.9856280088424683
1663860783952291300,3.435291259765625,-0.6993399858474731,-9.55288314819336,-2.1032655239105225
1663860783962178800,3.4451787109375,-1.007707953453064,-9.509486198425293,-2.1736111640930176
1663860783972066600,3.455066650390625,-1.3130059242248535,-9.4599609375,-2.2261033058166504
1663860783981923800,3.464923828125,-1.6089766025543213,-9.410796165466309,-2.240196943283081
1663860783991811600,3.4748115234375,-1.8831897974014282,-9.364812850952148,-2.2190699577331543
1663860784001729800,3.484729736328125,-2.13818621635437,-9.322680473327637,-2.164754867553711
1663860784011586800,3.4945869140625,-2.3915107250213623,-9.282206535339355,-2.0716404914855957
1663860784021474600,3.504474609375,-2.6639184951782227,-9.237311363220215,-1.935457468032837
1663860784031362300,3.5143623046875,-2.9462790489196777,-9.184285163879395,-1.7716492414474487
1663860784041250000,3.52425,-3.218916416168213,-9.122306823730469,-1.6101198196411133
1663860784051137800,3.5341376953125,-3.4700706005096436,-9.052403450012207,-1.4774914979934692
1663860784060994800,3.543994873046875,-3.6951229572296143,-8.977863311767578,-1.3836253881454468
1663860784070913000,3.5539130859375,-3.897692918777466,-8.898931503295898,-1.336937427520752
1663860784080800800,3.56380078125,-4.080099582672119,-8.817143440246582,-1.3345974683761597
1663860784090688500,3.5736884765625,-4.252302646636963,-8.73255729675293,-1.3530552387237549
1663860784100545500,3.583545654296875,-4.41721248626709,-8.646252632141113,-1.378747820854187
1663860784110433300,3.593433349609375,-4.571060657501221,-8.560994148254395,-1.4089596271514893
1663860784120290600,3.60329052734375,-4.704826831817627,-8.482015609741211,-1.4458184242248535
1663860784130208800,3.613208740234375,-4.8152642250061035,-8.41203784942627,-1.4903866052627563
1663860784140096500,3.623096435546875,-4.900873184204102,-8.353797912597656,-1.53814697265625
1663860784149984000,3.63298388671875,-4.964757442474365,-8.307767868041992,-1.5819488763809204
1663860784159871700,3.642871826171875,-5.012260913848877,-8.272565841674805,-1.6162596940994263
1663860784169759500,3.652759521484375,-5.045349597930908,-8.247721672058105,-1.6400917768478394
1663860784179647200,3.662647216796875,-5.060777187347412,-8.235761642456055,-1.652619481086731
1663860784189535000,3.672534912109375,-5.0537285804748535,-8.239018440246582,-1.657943844795227
1663860784199392000,3.68239208984375,-5.019485950469971,-8.258935928344727,-1.6628692150115967
1663860784209279700,3.69227978515625,-4.955021858215332,-8.296452522277832,-1.669437050819397
1663860784219167500,3.70216748046875,-4.859737396240234,-8.351353645324707,-1.6757785081863403
1663860784229055200,3.71205517578125,-4.733397006988525,-8.423006057739258,-1.678780436515808
1663860784238912300,3.721912353515625,-4.578053951263428,-8.509740829467773,-1.6721612215042114
1663860784248800000,3.731800048828125,-4.398290634155273,-8.60819149017334,-1.650596261024475
1663860784258687700,3.741687744140625,-4.200882434844971,-8.712648391723633,-1.6163920164108276
1663860784268575500,3.751575439453125,-3.993817090988159,-8.816143989562988,-1.5796897411346436
1663860784278463200,3.761463134765625,-3.793511152267456,-8.908905982971191,-1.5527549982070923
1663860784288350700,3.771350830078125,-3.6095001697540283,-8.986313819885254,-1.545335292816162
1663860784298238500,3.781238525390625,-3.438030958175659,-9.050971984863281,-1.558921217918396
1663860784308126200,3.791126220703125,-3.315593957901001,-9.09070110321045,-1.592596411705017
1663860784318014000,3.801013916015625,-3.323721170425415,-9.078307151794434,-1.6454784870147705
1663860784327901700,3.810901611328125,-3.466447114944458,-9.009160995483398,-1.7289137840270996
1663860784337789200,3.8207890625,-3.693230390548706,-8.902144432067871,-1.811701774597168
1663860784347646500,3.830646484375,-3.9429845809936523,-8.785466194152832,-1.8544095754623413
1663860784357534200,3.8405341796875,-4.166827201843262,-8.680644035339355,-1.85859215259552
1663860784367391200,3.85039111328125,-4.34164571762085,-8.595804214477539,-1.8527401685714722
1663860784377309400,3.860309326171875,-4.448331832885742,-8.538122177124023,-1.866334080696106
1663860784387197200,3.870197265625,-4.452625274658203,-8.538349151611328,-1.8550244569778442
1663860784397085000,3.8800849609375,-4.3466291427612305,-8.611153602600098,-1.7678362131118774
1663860784406972700,3.88997265625,-4.203133583068848,-8.696165084838867,-1.6972841024398804
1663860784416829700,3.89982958984375,-4.198102951049805,-8.694859504699707,-1.716318130493164
1663860784426687000,3.90968701171875,-4.391304969787598,-8.588480949401855,-1.7677197456359863
1663860784436605200,3.919605224609375,-4.5823798179626465,-8.488127708435059,-1.767444372177124
1663860784446493000,3.929492919921875,-4.634451866149902,-8.467708587646484,-1.7292070388793945
1663860784456380700,3.939380615234375,-4.58306884765625,-8.495988845825195,-1.7274388074874878
1663860784466237700,3.94923779296875,-4.511603355407715,-8.523273468017578,-1.7803462743759155
1663860784476125400,3.95912548828125,-4.449741840362549,-8.534049987792969,-1.8815361261367798
1663860784485982700,3.968982666015625,-4.351498603820801,-8.579117774963379,-1.9061938524246216
1663860784495901000,3.97890087890625,-4.166172504425049,-8.701495170593262,-1.7599353790283203
1663860784505788700,3.98878857421875,-3.9282724857330322,-8.850438117980957,-1.5520315170288086
1663860784515645700,3.998645751953125,-3.7122795581817627,-8.96892261505127,-1.3956379890441895
1663860784525564000,4.00856396484375,-3.5201473236083984,-9.056118965148926,-1.32878839969635
1663860784535451600,4.01845166015625,-3.296081304550171,-9.136423110961914,-1.3535159826278687
1663860784545339400,4.02833935546875,-3.0142040252685547,-9.22302532196045,-1.4215363264083862
1663860784555227100,4.03822705078125,-2.7079172134399414,-9.309248924255371,-1.4749422073364258
1663860784565114600,4.048114501953125,-2.4140663146972656,-9.385306358337402,-1.502893090248108
1663860784575002400,4.05800244140625,-2.150116443634033,-9.446179389953613,-1.522201418876648
1663860784584890000,4.06789013671875,-1.9189039468765259,-9.491912841796875,-1.5465413331985474
1663860784594777900,4.07777783203125,-1.7140285968780518,-9.525700569152832,-1.5790965557098389
1663860784604665600,4.08766552734375,-1.5195910930633545,-9.55177116394043,-1.6201577186584473
1663860784614553000,4.097552978515625,-1.3186519145965576,-9.57312297821045,-1.6693897247314453
1663860784624380000,4.1073798828125,-1.1008163690567017,-9.591119766235352,-1.7230812311172485
1663860784634267600,4.117267578125,-0.8564928770065308,-9.606928825378418,-1.7730566263198853
1663860784644155100,4.127155029296875,-0.5951111316680908,-9.620162010192871,-1.8079583644866943
1663860784654012400,4.137012451171875,-0.33099114894866943,-9.629423141479492,-1.826204776763916
1663860784663930600,4.1469306640625,-0.06825058162212372,-9.633193969726562,-1.8350226879119873
1663860784673818400,4.156818359375,0.18328402936458588,-9.631155014038086,-1.8378386497497559
1663860784683706000,4.1667060546875,0.42214393615722656,-9.62365436553955,-1.8377859592437744
1663860784693563100,4.176563232421875,0.6475316882133484,-9.610167503356934,-1.8427600860595703
1663860784703420400,4.18642041015625,0.8535879254341125,-9.590458869934082,-1.8614188432693481
1663860784713338600,4.196338623046875,1.02686607837677,-9.565561294555664,-1.9015684127807617
1663860784723226400,4.206226318359375,1.1540858745574951,-9.53824520111084,-1.9647763967514038
1663860784733114000,4.216114013671875,1.240618109703064,-9.510111808776855,-2.0467076301574707
1663860784742971100,4.22597119140625,1.3062865734100342,-9.481504440307617,-2.1365997791290283
1663860784752889300,4.235889404296875,1.3728827238082886,-9.452435493469238,-2.22194766998291
1663860784762746600,4.24574658203125,1.454359531402588,-9.423018455505371,-2.2938945293426514
1663860784772634400,4.25563427734375,1.5579490661621094,-9.391253471374512,-2.3553192615509033
1663860784782491400,4.265491455078125,1.6793770790100098,-9.356143951416016,-2.4109432697296143
1663860784792409600,4.27540966796875,1.8096942901611328,-9.319220542907715,-2.459169864654541
1663860784802297300,4.28529736328125,1.9337139129638672,-9.28366756439209,-2.4989306926727295
1663860784812154600,4.295154541015625,2.033695697784424,-9.252307891845703,-2.5356006622314453
1663860784822042000,4.3050419921875,2.0999224185943604,-9.226819038391113,-2.574204206466675
1663860784831929900,4.314929931640625,2.1354212760925293,-9.207841873168945,-2.612661600112915
1663860784841817600,4.324817626953125,2.153625965118408,-9.194933891296387,-2.6430060863494873
1663860784851675000,4.3346748046875,2.167975902557373,-9.187259674072266,-2.6579174995422363
1663860784861562400,4.344562255859375,2.183751344680786,-9.184271812438965,-2.655330181121826
1663860784871450000,4.3544501953125,2.1928508281707764,-9.18589973449707,-2.6421666145324707
1663860784881368300,4.364368408203125,2.1807737350463867,-9.19337272644043,-2.6261203289031982
1663860784891225600,4.3742255859375,2.143508195877075,-9.208806037902832,-2.602623224258423
1663860784901143800,4.384143798828125,2.086731195449829,-9.233059883117676,-2.562525987625122
1663860784911000800,4.394000732421875,2.0176854133605957,-9.263952255249023,-2.5056979656219482
1663860784920858000,4.403858154296875,1.9345612525939941,-9.301430702209473,-2.4313082695007324
1663860784930776300,4.4137763671875,1.8273885250091553,-9.347969055175781,-2.3337764739990234
1663860784940664000,4.4236640625,1.6908050775527954,-9.402718544006348,-2.213696241378784
1663860784950551800,4.4335517578125,1.5222529172897339,-9.461784362792969,-2.080329418182373
1663860784960439600,4.443439453125,1.305907130241394,-9.521349906921387,-1.9516373872756958
1663860784970296600,4.453296630859375,1.02593195438385,-9.575974464416504,-1.8489328622817993
1663860784980214800,4.46321484375,0.6983731985092163,-9.616927146911621,-1.788117527961731
1663860784990072000,4.473072021484375,0.3597227931022644,-9.638813972473145,-1.7703808546066284
1663860784999929000,4.48292919921875,0.028175510466098785,-9.64468002319336,-1.774747610092163
1663860785009847300,4.492847412109375,-0.28795281052589417,-9.639029502868652,-1.7822920083999634
1663860785019735000,4.502735107421875,-0.5895078182220459,-9.622491836547852,-1.7973600625991821
1663860785029592300,4.51259228515625,-0.8941337466239929,-9.591559410095215,-1.8365485668182373
1663860785039510500,4.522510498046875,-1.2169761657714844,-9.545475006103516,-1.8903034925460815
1663860785049398300,4.532398193359375,-1.5489487648010254,-9.49078369140625,-1.922540545463562
1663860785059285800,4.54228564453125,-1.8658822774887085,-9.434261322021484,-1.9192619323730469
1663860785069173500,4.552173583984375,-2.151933431625366,-9.378687858581543,-1.8920340538024902
1663860785079061200,4.562061279296875,-2.4400908946990967,-9.319659233093262,-1.8331114053726196
1663860785088949000,4.571948974609375,-2.752763509750366,-9.251753807067871,-1.7313944101333618
1663860785098836700,4.581836669921875,-3.0738301277160645,-9.174864768981934,-1.5949313640594482
1663860785108693800,4.59169384765625,-3.3755550384521484,-9.094082832336426,-1.440024733543396
1663860785118581500,4.60158154296875,-3.639960289001465,-9.014532089233398,-1.2881263494491577
1663860785128469200,4.61146923828125,-3.8726816177368164,-8.935073852539062,-1.156365156173706
1663860785138357000,4.62135693359375,-4.080280780792236,-8.853205680847168,-1.0688563585281372
1663860785148244700,4.63124462890625,-4.266199111938477,-8.76875114440918,-1.0387279987335205
1663860785158132200,4.64113232421875,-4.433484077453613,-8.683761596679688,-1.0520954132080078
1663860785168020000,4.65102001953125,-4.586355209350586,-8.599370956420898,-1.089285135269165
1663860785177907700,4.66090771484375,-4.726902008056641,-8.516655921936035,-1.1372631788253784
1663860785187795500,4.67079541015625,-4.856258869171143,-8.4370756149292,-1.184438943862915
1663860785197683200,4.68068310546875,-4.96722412109375,-8.364940643310547,-1.234848141670227
1663860785207570700,4.69057080078125,-5.056613922119141,-8.302660942077637,-1.2910678386688232
1663860785217428000,4.700427978515625,-5.125749588012695,-8.25175952911377,-1.3437076807022095
1663860785227315700,4.710315673828125,-5.1807684898376465,-8.211014747619629,-1.3817646503448486
1663860785237203500,4.720203369140625,-5.22305154800415,-8.179512977600098,-1.4091402292251587
1663860785247091000,4.730091064453125,-5.2512664794921875,-8.158154487609863,-1.4279698133468628
1663860785256978700,4.739978759765625,-5.261965274810791,-8.149999618530273,-1.4351297616958618
1663860785266866400,4.749866455078125,-5.248650550842285,-8.15819263458252,-1.437340497970581
1663860785276723700,4.7597236328125,-5.205929756164551,-8.1846923828125,-1.4420448541641235
1663860785286611200,4.769611083984375,-5.132363319396973,-8.229972839355469,-1.448028564453125
1663860785296499000,4.7794990234375,-5.026907444000244,-8.294337272644043,-1.4507113695144653
1663860785306356200,4.789356201171875,-4.888162136077881,-8.377671241760254,-1.4459835290908813
1663860785316244000,4.799243896484375,-4.712967872619629,-8.480256080627441,-1.429532527923584
1663860785326131500,4.80913134765625,-4.503300666809082,-8.598690032958984,-1.3975679874420166
1663860785336019200,4.819019287109375,-4.26714563369751,-8.72548770904541,-1.3519313335418701
1663860785345907000,4.828906982421875,-4.015406131744385,-8.85190486907959,-1.3002642393112183
1663860785355794700,4.838794677734375,-3.7656755447387695,-8.96799373626709,-1.251060128211975
1663860785365682400,4.848682373046875,-3.5403027534484863,-9.064510345458984,-1.2129669189453125
1663860785375570200,4.858570068359375,-3.3600597381591797,-9.136756896972656,-1.1832407712936401
1663860785385457700,4.868457763671875,-3.255189895629883,-9.178213119506836,-1.1552180051803589
1663860785395315000,4.87831494140625,-3.258105754852295,-9.177633285522461,-1.15160071849823
1663860785405202700,4.88820263671875,-3.3792738914489746,-9.128175735473633,-1.194694995880127
1663860785415059700,4.898059814453125,-3.6066784858703613,-9.034460067749023,-1.241289734840393
1663860785424978000,4.90797802734375,-3.8723318576812744,-8.919265747070312,-1.2736272811889648
1663860785434865700,4.91786572265625,-4.105528831481934,-8.809245109558105,-1.3085196018218994
1663860785444753400,4.92775341796875,-4.285332679748535,-8.717706680297852,-1.34458327293396
1663860785454641200,4.93764111328125,-4.395282745361328,-8.656427383422852,-1.38496732711792
1663860785464498200,4.947498291015625,-4.400630950927734,-8.647977828979492,-1.4203234910964966
1663860785474386000,4.957385986328125,-4.301347255706787,-8.698365211486816,-1.4167698621749878
1663860785484243200,4.9672431640625,-4.188869476318359,-8.754119873046875,-1.4103740453720093
1663860785494161400,4.977161376953125,-4.2439045906066895,-8.722258567810059,-1.4428725242614746
1663860785504049200,4.987049072265625,-4.4926252365112305,-8.587554931640625,-1.4968674182891846
1663860785513936600,4.9969365234375,-4.669471263885498,-8.496047973632812,-1.4776965379714966
1663860785523824400,5.006824462890625,-4.662572383880615,-8.519369125366211,-1.3605709075927734
1663860785533712100,5.016712158203125,-4.531315326690674,-8.605957984924316,-1.2550092935562134
1663860785543599900,5.026599853515625,-4.3855462074279785,-8.686412811279297,-1.2180324792861938
1663860785553487600,5.036487548828125,-4.296329975128174,-8.72208023071289,-1.2795491218566895
1663860785563375000,5.046375,-4.179165363311768,-8.774580001831055,-1.3083240985870361
1663860785573262800,5.056262939453125,-3.938322067260742,-8.903817176818848,-1.1756000518798828
1663860785583120100,5.0661201171875,-3.612360954284668,-9.062300682067871,-0.9979755878448486
1663860785593007900,5.0760078125,-3.293255090713501,-9.19406795501709,-0.8910514712333679
1663860785602895600,5.0858955078125,-3.0097124576568604,-9.291753768920898,-0.8805301189422607
1663860785612783000,5.095783203125,-2.7346789836883545,-9.3716459274292,-0.9296106100082397
1663860785622670800,5.1056708984375,-2.460326910018921,-9.443614959716797,-0.9671151638031006
1663860785632558600,5.11555859375,-2.214555263519287,-9.504719734191895,-0.9625179767608643
1663860785642446300,5.1254462890625,-1.9994559288024902,-9.554533004760742,-0.939924418926239
1663860785652303400,5.135303466796875,-1.7999178171157837,-9.595711708068848,-0.9235748052597046
1663860785662191000,5.145191162109375,-1.6006698608398438,-9.631665229797363,-0.916118323802948
1663860785672078800,5.155078857421875,-1.391638159751892,-9.664046287536621,-0.9164897799491882
1663860785681966600,5.164966552734375,-1.166181206703186,-9.692630767822266,-0.9291520714759827
1663860785691823600,5.17482373046875,-0.9195215106010437,-9.716042518615723,-0.9609231948852539
1663860785701681000,5.184680908203125,-0.6542685031890869,-9.73225212097168,-1.0127218961715698
1663860785711599000,5.19459912109375,-0.376732736825943,-9.740059852600098,-1.0768879652023315
1663860785721456400,5.204456298828125,-0.09695101529359818,-9.739545822143555,-1.1411558389663696
1663860785731344000,5.21434375,0.18427516520023346,-9.731892585754395,-1.1944419145584106
1663860785741231600,5.224231689453125,0.4592426121234894,-9.71843433380127,-1.2294384241104126
1663860785751119400,5.234119384765625,0.7225809693336487,-9.700790405273438,-1.242149829864502
1663860785760976600,5.2439765625,0.9717069864273071,-9.67999267578125,-1.2344740629196167
1663860785770864000,5.253864013671875,1.1992920637130737,-9.656373977661133,-1.2192332744598389
1663860785780782300,5.2637822265625,1.3903329372406006,-9.631061553955078,-1.2165577411651611
1663860785790639600,5.2736396484375,1.5367499589920044,-9.605401992797852,-1.2429935932159424
1663860785800557800,5.283557861328125,1.6485477685928345,-9.579612731933594,-1.29756760597229
1663860785810445600,5.293445556640625,1.7371584177017212,-9.55462646484375,-1.3644753694534302
1663860785820333300,5.303333251953125,1.8116832971572876,-9.531323432922363,-1.429012656211853
1663860785830190300,5.3131904296875,1.882910132408142,-9.509122848510742,-1.4837820529937744
1663860785840047600,5.323047607421875,1.9638112783432007,-9.485692977905273,-1.5282211303710938
1663860785849935400,5.332935302734375,2.0640597343444824,-9.45909595489502,-1.5606268644332886
1663860785859823000,5.342822998046875,2.186880350112915,-9.428033828735352,-1.581180214881897
1663860785869741300,5.3527412109375,2.3269965648651123,-9.392038345336914,-1.5953326225280762
1663860785879628800,5.36262890625,2.468440055847168,-9.353201866149902,-1.610837697982788
1663860785889516500,5.3725166015625,2.5967986583709717,-9.313088417053223,-1.641158938407898
1663860785899404300,5.382404296875,2.6989574432373047,-9.27562427520752,-1.687837839126587
1663860785909292000,5.3922919921875,2.774168014526367,-9.244311332702637,-1.736981749534607
1663860785919179800,5.4021796875,2.834043025970459,-9.218199729919434,-1.7785906791687012
1663860785929067300,5.4120673828125,2.8821675777435303,-9.19735336303711,-1.8089206218719482
1663860785938955000,5.421955078125,2.9209110736846924,-9.181344985961914,-1.827992558479309
1663860785948812300,5.431812255859375,2.9521968364715576,-9.16982364654541,-1.8355497121810913
1663860785958700000,5.441699951171875,2.97653865814209,-9.16257381439209,-1.8324402570724487
1663860785968587500,5.45158740234375,2.9914324283599854,-9.159831047058105,-1.8218729496002197
1663860785978475300,5.461475341796875,2.9923219680786133,-9.163400650024414,-1.8023548126220703
1663860785988363000,5.471363037109375,2.975221872329712,-9.175202369689941,-1.7703372240066528
1663860785998250800,5.481250732421875,2.933076858520508,-9.197047233581543,-1.726776361465454
1663860786008107800,5.491107666015625,2.856255054473877,-9.232160568237305,-1.6671589612960815
1663860786017995500,5.50099560546875,2.741037368774414,-9.281942367553711,-1.5819722414016724
1663860786027883300,5.51088330078125,2.581134080886841,-9.34465503692627,-1.47836434841156
1663860786037771000,5.52077099609375,2.3713204860687256,-9.416366577148438,-1.370864987373352
1663860786047658800,5.53065869140625,2.1181678771972656,-9.489459991455078,-1.2782459259033203
1663860786057546200,5.540546142578125,1.8285328149795532,-9.557498931884766,-1.2169872522354126
1663860786067434000,5.55043408203125,1.50261390209198,-9.61666488647461,-1.1967846155166626
1663860786077321700,5.56032177734375,1.146230936050415,-9.662671089172363,-1.2203847169876099
1663860786087209500,5.57020947265625,0.7882528901100159,-9.69158935546875,-1.2736321687698364
1663860786097066800,5.580066650390625,0.4345041513442993,-9.704116821289062,-1.3459974527359009
1663860786106954200,5.589954345703125,0.07064487785100937,-9.69920825958252,-1.445947289466858
1663860786116842000,5.599842041015625,-0.310025691986084,-9.675634384155273,-1.567280888557434
1663860786126729700,5.609729736328125,-0.7135273218154907,-9.634952545166016,-1.681954264640808
1663860786136617500,5.619617431640625,-1.142411708831787,-9.578972816467285,-1.7631092071533203
1663860786146474500,5.629474609375,-1.5691521167755127,-9.511454582214355,-1.8001067638397217
1663860786156362200,5.6393623046875,-1.9654721021652222,-9.439723014831543,-1.7885617017745972
1663860786166250000,5.64925,-2.3208374977111816,-9.368481636047363,-1.7365643978118896
1663860786176137700,5.6591376953125,-2.644207239151001,-9.295709609985352,-1.6638314723968506
1663860786186025500,5.669025390625,-2.9477624893188477,-9.21949291229248,-1.5754462480545044
1663860786195913000,5.678912841796875,-3.2317543029785156,-9.141965866088867,-1.4664957523345947
1663860786205800700,5.68880078125,-3.487344264984131,-9.066329956054688,-1.3455475568771362
1663860786215688400,5.6986884765625,-3.714994430541992,-8.991761207580566,-1.231844425201416
1663860786225576200,5.708576171875,-3.9228479862213135,-8.915513038635254,-1.1381022930145264
1663860786235464000,5.7184638671875,-4.119902610778809,-8.835458755493164,-1.0636985301971436
1663860786245351400,5.728351318359375,-4.313884258270264,-8.748908996582031,-1.0086443424224854
1663860786255208700,5.738208740234375,-4.501821994781494,-8.656330108642578,-0.9858654737472534
1663860786265096400,5.748096435546875,-4.678075790405273,-8.56119155883789,-0.9959921836853027
1663860786274984200,5.757984130859375,-4.830801963806152,-8.473272323608398,-1.0185247659683228
1663860786284871700,5.76787158203125,-4.953634738922119,-8.398675918579102,-1.0460137128829956
1663860786294759400,5.777759521484375,-5.043290138244629,-8.340750694274902,-1.0805039405822754
1663860786304647200,5.787647216796875,-5.105713844299316,-8.297663688659668,-1.1184163093566895
1663860786314535000,5.797534912109375,-5.1485466957092285,-8.266615867614746,-1.151489496231079
1663860786324392200,5.80739208984375,-5.172144412994385,-8.248262405395508,-1.1770620346069336
1663860786334279700,5.81727978515625,-5.174288749694824,-8.244606018066406,-1.1931442022323608
1663860786344167400,5.82716748046875,-5.152019023895264,-8.257997512817383,-1.1969035863876343
1663860786354055200,5.83705517578125,-5.102009296417236,-8.290220260620117,-1.1883275508880615
1663860786363943000,5.84694287109375,-5.022275447845459,-8.341347694396973,-1.1700688600540161
1663860786373830700,5.85683056640625,-4.9128923416137695,-8.410064697265625,-1.1422260999679565
1663860786383718100,5.86671826171875,-4.7740254402160645,-8.494633674621582,-1.1046558618545532
1663860786393575400,5.876575439453125,-4.60598087310791,-8.59282398223877,-1.0576872825622559
1663860786403463200,5.886463134765625,-4.408534526824951,-8.70215892791748,-1.0038188695907593
1663860786413320200,5.8963203125,-4.183108806610107,-8.818694114685059,-0.950070321559906
1663860786423208000,5.9062080078125,-3.934842109680176,-8.93704605102539,-0.9036696553230286
1663860786433095700,5.916095703125,-3.68802809715271,-9.044721603393555,-0.8728341460227966
1663860786442953000,5.925952880859375,-3.4869253635406494,-9.1259765625,-0.8534055352210999
1663860786452871200,5.93587109375,-3.3786814212799072,-9.168006896972656,-0.8381823301315308
1663860786462758700,5.945758544921875,-3.381446599960327,-9.167694091796875,-0.8304184079170227
1663860786472646400,5.955646484375,-3.5014827251434326,-9.120351791381836,-0.8539221882820129
1663860786482534100,5.9655341796875,-3.7529714107513428,-9.014191627502441,-0.9110107421875
1663860786492422000,5.975421875,-4.075460910797119,-8.866063117980957,-0.9766903519630432
1663860786502309600,5.9853095703125,-4.380583763122559,-8.71098804473877,-1.0486024618148804
1663860786512197000,5.995197021484375,-4.620042324066162,-8.5769624710083,-1.123082160949707
1663860786522084900,6.0050849609375,-4.7880353927612305,-8.476054191589355,-1.1838994026184082
1663860786531972600,6.01497265625,-4.878417015075684,-8.415924072265625,-1.2424453496932983
1663860786541860400,6.0248603515625,-4.869229793548584,-8.41368579864502,-1.2926253080368042
1663860786551717600,6.034717529296875,-4.781010150909424,-8.467068672180176,-1.2732138633728027
1663860786561605000,6.044605224609375,-4.674011707305908,-8.537610054016113,-1.197177767753601
1663860786571492900,6.054492919921875,-4.647394180297852,-8.563581466674805,-1.1122931241989136
1663860786581380600,6.064380615234375,-4.733847141265869,-8.521738052368164,-1.0682061910629272
1663860786591238000,6.07423779296875,-4.786464214324951,-8.492907524108887,-1.0633339881896973
1663860786601095000,6.084094970703125,-4.743932247161865,-8.522356986999512,-1.0173122882843018
1663860786610982700,6.093982666015625,-4.679600715637207,-8.565999984741211,-0.9462361931800842
1663860786620870400,6.103870361328125,-4.6456217765808105,-8.587397575378418,-0.9193395376205444
1663860786630758100,6.113758056640625,-4.62759256362915,-8.593427658081055,-0.9532996416091919
1663860786640645600,6.123645751953125,-4.562067985534668,-8.625999450683594,-0.9747054576873779
1663860786650533400,6.133533447265625,-4.417559623718262,-8.707083702087402,-0.917743980884552
1663860786660421000,6.143421142578125,-4.216124534606934,-8.818063735961914,-0.7977680563926697
1663860786670278400,6.1532783203125,-3.9886856079101562,-8.934481620788574,-0.660159707069397
1663860786680196600,6.163196533203125,-3.7475509643554688,-9.046286582946777,-0.5393964052200317
1663860786690053600,6.1730537109375,-3.4935975074768066,-9.15233325958252,-0.4471750855445862
1663860786699941400,6.18294140625,-3.219796657562256,-9.255396842956543,-0.3754146993160248
1663860786709798700,6.192798583984375,-2.9374804496765137,-9.351225852966309,-0.310088574886322
1663860786719686100,6.20268603515625,-2.6623525619506836,-9.435200691223145,-0.24344323575496674
1663860786729604400,6.212604248046875,-2.4007930755615234,-9.506609916687012,-0.17591235041618347
1663860786739492000,6.2224921875,-2.1502339839935303,-9.567408561706543,-0.10750873386859894
1663860786749379800,6.2323798828125,-1.9057316780090332,-9.619611740112305,-0.0405169241130352
1663860786759267600,6.242267578125,-1.6622812747955322,-9.664731979370117,0.01322551816701889
1663860786769155300,6.2521552734375,-1.4192570447921753,-9.703315734863281,0.0419720783829689
1663860786779043000,6.26204296875,-1.1797776222229004,-9.735326766967773,0.043858081102371216
1663860786788930600,6.2719306640625,-0.9472342133522034,-9.760763168334961,0.025606514886021614
1663860786798818300,6.281818359375,-0.7184397578239441,-9.780298233032227,0.00022272796195466071
1663860786808675600,6.291675537109375,-0.48489847779273987,-9.794631958007812,-0.021249499171972275
1663860786818563300,6.301563232421875,-0.23771612346172333,-9.803693771362305,-0.03829202055931091
1663860786828450800,6.311450927734375,0.023053953424096107,-9.806450843811035,-0.058077581226825714
1663860786838338600,6.321338623046875,0.2963327467441559,-9.801774978637695,-0.0882921889424324
1663860786848226300,6.331226318359375,0.5776812434196472,-9.7887544631958,-0.1301947832107544
1663860786858114000,6.341114013671875,0.8490387797355652,-9.768190383911133,-0.1788034290075302
1663860786868001800,6.351001708984375,1.0884461402893066,-9.743369102478027,-0.22896070778369904
1663860786877889300,6.36088916015625,1.2818533182144165,-9.718473434448242,-0.2801854610443115
1663860786887777000,6.370777099609375,1.4278771877288818,-9.69616413116455,-0.3405171036720276
1663860786897634300,6.38063427734375,1.5342156887054443,-9.676855087280273,-0.41838693618774414
1663860786907522000,6.39052197265625,1.610334873199463,-9.660054206848145,-0.5104604959487915
1663860786917379000,6.400379150390625,1.6707136631011963,-9.64414119720459,-0.6079756617546082
1663860786927266800,6.410266845703125,1.7423759698867798,-9.625264167785645,-0.6991477012634277
1663860786937124000,6.4201240234375,1.8481709957122803,-9.599668502807617,-0.7752549052238464
1663860786947011600,6.430011474609375,1.9898995161056519,-9.565823554992676,-0.8400601744651794
1663860786956929800,6.4399296875,2.144745111465454,-9.526715278625488,-0.9011991620063782
1663860786966817500,6.449817626953125,2.2785353660583496,-9.489570617675781,-0.9626570343971252
1663860786976705300,6.459705322265625,2.3650963306427,-9.462087631225586,-1.0225473642349243
1663860786986593000,6.469593017578125,2.397956132888794,-9.447961807250977,-1.0752742290496826
1663860786996480800,6.479480712890625,2.3939156532287598,-9.444524765014648,-1.1137787103652954
1663860787006368500,6.489368408203125,2.3767287731170654,-9.446255683898926,-1.135694980621338
1663860787016256000,6.499256103515625,2.359914779663086,-9.44934368133545,-1.1450384855270386
1663860787026143700,6.509143798828125,2.343907356262207,-9.453185081481934,-1.1461982727050781
1663860787036031500,6.519031494140625,2.3247017860412598,-9.457923889160156,-1.1462208032608032
1663860787045919200,6.528919189453125,2.3018360137939453,-9.462677001953125,-1.1531199216842651
1663860787055807000,6.538806884765625,2.2758820056915283,-9.467130661010742,-1.1679831743240356
1663860787065664000,6.5486640625,2.243126630783081,-9.472638130187988,-1.1865471601486206
1663860787075551700,6.5585517578125,2.193178653717041,-9.48265266418457,-1.1998590230941772
1663860787085439500,6.568439453125,2.1200859546661377,-9.50009536743164,-1.1932322978973389
1663860787095327200,6.5783271484375,2.0231387615203857,-9.525712013244629,-1.1567625999450684
1663860787105214700,6.588214599609375,1.9011907577514648,-9.558099746704102,-1.0948041677474976
1663860787115102500,6.5981025390625,1.7529760599136353,-9.593877792358398,-1.027119755744934
1663860787124959700,6.607959716796875,1.5758858919143677,-9.630600929260254,-0.9687587022781372
1663860787134847500,6.617847412109375,1.3578522205352783,-9.668062210083008,-0.9247746467590332
1663860787144735000,6.62773486328125,1.0903114080429077,-9.70431900024414,-0.8987700939178467
1663860787154622700,6.637622802734375,0.7789624929428101,-9.734524726867676,-0.8958985805511475
1663860787164510500,6.647510498046875,0.44266477227211,-9.754050254821777,-0.9126412868499756
1663860787174398200,6.657398193359375,0.0977524146437645,-9.761129379272461,-0.9387125372886658
1663860787184286000,6.667285888671875,-0.24913854897022247,-9.754534721374512,-0.9784597158432007
1663860787194173400,6.67717333984375,-0.6085231900215149,-9.732688903808594,-1.0367509126663208
1663860787204061200,6.687061279296875,-0.9837274551391602,-9.693994522094727,-1.1086652278900146
1663860787213918500,6.69691845703125,-1.3632488250732422,-9.639918327331543,-1.1763982772827148
1663860787223806200,6.70680615234375,-1.750644564628601,-9.571786880493164,-1.2192316055297852
1663860787233694000,6.71669384765625,-2.1446261405944824,-9.490939140319824,-1.2218990325927734
1663860787243581400,6.72658154296875,-2.5222816467285156,-9.401640892028809,-1.190643310546875
1663860787253469200,6.73646923828125,-2.86725115776062,-9.308534622192383,-1.1403733491897583
1663860787263357000,6.74635693359375,-3.1793224811553955,-9.214005470275879,-1.0790674686431885
1663860787273244700,6.75624462890625,-3.461890459060669,-9.119148254394531,-1.0133291482925415
1663860787283101700,6.766101806640625,-3.723024606704712,-9.022095680236816,-0.9546012282371521
1663860787292989400,6.775989501953125,-3.9709465503692627,-8.920347213745117,-0.9106976985931396
1663860787302877200,6.785877197265625,-4.205382823944092,-8.815545082092285,-0.878239095211029
1663860787312765000,6.795764892578125,-4.428133010864258,-8.708185195922852,-0.854128897190094
1663860787322652700,6.805652587890625,-4.641744136810303,-8.597854614257812,-0.8375537991523743
1663860787332540200,6.8155400390625,-4.847034454345703,-8.484906196594238,-0.8264477849006653
1663860787342428000,6.825427978515625,-5.040933609008789,-8.371475219726562,-0.8232724666595459
1663860787352315600,6.835315673828125,-5.222654342651367,-8.258691787719727,-0.8296205401420593
1663860787362173000,6.8451728515625,-5.38540506362915,-8.151752471923828,-0.8465895056724548
1663860787372060400,6.855060302734375,-5.520026683807373,-8.057753562927246,-0.8788069486618042
1663860787381948200,6.8649482421875,-5.622006893157959,-7.981308460235596,-0.9285158514976501
1663860787391836000,6.8748359375,-5.6969404220581055,-7.920456409454346,-0.99077308177948
1663860787401693200,6.884693115234375,-5.753103733062744,-7.871372222900391,-1.0553094148635864
1663860787411580700,6.89458056640625,-5.792701244354248,-7.834246635437012,-1.1133636236190796
1663860787421468400,6.904468505859375,-5.812488079071045,-7.813164234161377,-1.1575101613998413
1663860787431356200,6.914356201171875,-5.808788299560547,-7.811258792877197,-1.1885322332382202
1663860787441213400,6.92421337890625,-5.77737283706665,-7.830825328826904,-1.2126530408859253
1663860787451070500,6.934070556640625,-5.716418266296387,-7.872562408447266,-1.2311375141143799
1663860787460988700,6.94398876953125,-5.624575614929199,-7.936766147613525,-1.2418842315673828
1663860787470876400,6.95387646484375,-5.501784324645996,-8.022339820861816,-1.2421056032180786
1663860787480733700,6.963733642578125,-5.3477582931518555,-8.127503395080566,-1.2310807704925537
1663860787490621400,6.973621337890625,-5.163426399230957,-8.249337196350098,-1.207412600517273
1663860787500539600,6.98353955078125,-4.951240539550781,-8.38347339630127,-1.1717368364334106
1663860787510396700,6.993396728515625,-4.717672824859619,-8.52266788482666,-1.1305243968963623
1663860787520284400,7.003284423828125,-4.472822666168213,-8.658318519592285,-1.094425916671753
1663860787530172200,7.013172119140625,-4.243879318237305,-8.775796890258789,-1.0701613426208496
1663860787540060000,7.023059814453125,-4.059930801391602,-8.864178657531738,-1.055314302444458
1663860787549917000,7.0329169921875,-3.9423203468322754,-8.920244216918945,-1.0284663438796997
1663860787559835100,7.042835205078125,-3.9128575325012207,-8.937821388244629,-0.9875720143318176
1663860787569692400,7.0526923828125,-4.023343086242676,-8.887947082519531,-0.9937385320663452
1663860787579580200,7.062580078125,-4.268763542175293,-8.762056350708008,-1.0837055444717407
1663860787589467600,7.072467529296875,-4.568603992462158,-8.591792106628418,-1.216282844543457
1663860787599355400,7.08235546875,-4.8436360359191895,-8.419512748718262,-1.3495861291885376
1663860787609243100,7.0922431640625,-5.0565643310546875,-8.273236274719238,-1.468027949333191
1663860787619100400,7.102100341796875,-5.1982855796813965,-8.166109085083008,-1.5693541765213013
1663860787629018600,7.1120185546875,-5.2439680099487305,-8.119242668151855,-1.6580336093902588
1663860787638906000,7.121906005859375,-5.1875081062316895,-8.147597312927246,-1.6961153745651245
1663860787648763400,7.131763427734375,-5.090790748596191,-8.211319923400879,-1.68180251121521
1663860787658651100,7.141651123046875,-5.066247940063477,-8.23337459564209,-1.647746205329895
1663860787668539000,7.151538818359375,-5.145586013793945,-8.197348594665527,-1.580127239227295
1663860787678426400,7.16142626953125,-5.213520050048828,-8.1720609664917,-1.485604166984558
1663860787688314000,7.171314208984375,-5.21432638168335,-8.191230773925781,-1.3729252815246582
1663860787698201900,7.181201904296875,-5.157486438751221,-8.244170188903809,-1.2666398286819458
1663860787708089600,7.191089599609375,-5.082458972930908,-8.300128936767578,-1.2028543949127197
1663860787717947000,7.20094677734375,-5.032478332519531,-8.326781272888184,-1.2285187244415283
1663860787727834400,7.21083447265625,-4.957401752471924,-8.360870361328125,-1.3001505136489868
1663860787737691600,7.220691650390625,-4.799737930297852,-8.456781387329102,-1.2711169719696045
1663860787747609900,7.23060986328125,-4.569505214691162,-8.604341506958008,-1.1204081773757935
1663860787757497600,7.24049755859375,-4.316580295562744,-8.754892349243164,-0.9430711269378662
1663860787767385300,7.25038525390625,-4.072177886962891,-8.885086059570312,-0.8018773198127747
1663860787777272800,7.26027294921875,-3.8364503383636475,-8.997383117675781,-0.7064990401268005
1663860787787130000,7.270130126953125,-3.5969624519348145,-9.099617958068848,-0.6551297903060913
1663860787797017900,7.280017822265625,-3.352473735809326,-9.194173812866211,-0.6312451958656311
1663860787806905600,7.289905517578125,-3.1108217239379883,-9.2800931930542,-0.6107757687568665
1663860787816762600,7.2997626953125,-2.8714630603790283,-9.358667373657227,-0.5834646224975586
1663860787826650400,7.309650390625,-2.631331443786621,-9.43091106414795,-0.551724374294281
1663860787836568600,7.319568603515625,-2.3886446952819824,-9.497097969055176,-0.5195180773735046
1663860787846425900,7.32942578125,-2.1386477947235107,-9.557821273803711,-0.4946046471595764
1663860787856344000,7.339343994140625,-1.8708791732788086,-9.614278793334961,-0.485638290643692
1663860787866201000,7.349201171875,-1.5964281558990479,-9.66333293914795,-0.4917372465133667
1663860787876088800,7.3590888671875,-1.321757435798645,-9.703817367553711,-0.5091944336891174
1663860787885976600,7.3689765625,-1.0530788898468018,-9.735312461853027,-0.5339714884757996
1663860787895864300,7.3788642578125,-0.7931475043296814,-9.758434295654297,-0.560587465763092
1663860787905751800,7.388751708984375,-0.5418403148651123,-9.77424430847168,-0.583906888961792
1663860787915609000,7.398609130859375,-0.3005273640155792,-9.783524513244629,-0.6022607088088989
1663860787925496800,7.408496826171875,-0.06809435039758682,-9.786661148071289,-0.6221129298210144
1663860787935415000,7.4184150390625,0.15597522258758545,-9.783605575561523,-0.6535376310348511
1663860787945302800,7.428302734375,0.37101343274116516,-9.774490356445312,-0.7014727592468262
1663860787955190500,7.4381904296875,0.5713277459144592,-9.760210037231445,-0.7630689740180969
1663860787965047600,7.448047607421875,0.743125855922699,-9.7431058883667,-0.8306869864463806
1663860787974935300,7.457935302734375,0.8827514052391052,-9.725020408630371,-0.902836263179779
1663860787984823000,7.467822998046875,1.0006660223007202,-9.705519676208496,-0.985875129699707
1663860787994710800,7.477710693359375,1.1081939935684204,-9.683939933776855,-1.078702449798584
1663860788004598300,7.487598388671875,1.2122156620025635,-9.660737037658691,-1.1709274053573608
1663860788014455600,7.49745556640625,1.320278525352478,-9.636483192443848,-1.2511736154556274
1663860788024343300,7.50734326171875,1.4424090385437012,-9.609956741333008,-1.3185573816299438
1663860788034231000,7.51723095703125,1.5828814506530762,-9.579324722290039,-1.3789197206497192
1663860788044118500,7.527118408203125,1.7374053001403809,-9.544264793395996,-1.4348572492599487
1663860788054006300,7.53700634765625,1.8870526552200317,-9.50747013092041,-1.489099144935608
1663860788063894000,7.54689404296875,2.0053536891937256,-9.473880767822266,-1.547426700592041
1663860788073781800,7.55678173828125,2.0730226039886475,-9.448236465454102,-1.6136302947998047
1663860788083669500,7.56666943359375,2.0892863273620605,-9.432442665100098,-1.683537483215332
1663860788093557000,7.576556884765625,2.07198166847229,-9.425044059753418,-1.7452284097671509
1663860788103444700,7.58644482421875,2.043677568435669,-9.422845840454102,-1.7898974418640137
1663860788113332500,7.59633251953125,2.016038656234741,-9.423291206359863,-1.8186675310134888
1663860788123189800,7.606189697265625,1.9898039102554321,-9.425546646118164,-1.8357913494110107
1663860788133077200,7.6160771484375,1.9656178951263428,-9.429532051086426,-1.8413755893707275
1663860788142965000,7.625965087890625,1.9484840631484985,-9.433247566223145,-1.8405545949935913
1663860788152852700,7.635852783203125,1.9324597120285034,-9.436470031738281,-1.8409308195114136
1663860788162710000,7.6457099609375,1.9040552377700806,-9.442710876464844,-1.838525652885437
1663860788172597800,7.65559765625,1.8543376922607422,-9.455979347229004,-1.8210632801055908
1663860788182485200,7.6654853515625,1.7803465127944946,-9.478727340698242,-1.7760837078094482
1663860788192373000,7.675373046875,1.6781054735183716,-9.511667251586914,-1.6978029012680054
1663860788202260700,7.6852607421875,1.5415533781051636,-9.551403999328613,-1.6014584302902222
1663860788212148500,7.6951484375,1.3601198196411133,-9.593179702758789,-1.513725757598877
1663860788222005500,7.705005615234375,1.1313573122024536,-9.633543014526367,-1.4440442323684692
1663860788231923700,7.714923828125,0.8637844324111938,-9.668668746948242,-1.3932406902313232
1663860788241811500,7.7248115234375,0.5691108703613281,-9.69473648071289,-1.3632993698120117
1663860788251699200,7.73469921875,0.2651609778404236,-9.709720611572266,-1.3495967388153076
1663860788261587000,7.7445869140625,-0.024143194779753685,-9.713788986206055,-1.346144437789917
1663860788271474700,7.754474609375,-0.30539512634277344,-9.708863258361816,-1.347252607345581
1663860788281331700,7.764331787109375,-0.6012431383132935,-9.693991661071777,-1.3547741174697876
1663860788291219500,7.774219482421875,-0.9276082515716553,-9.664947509765625,-1.3779393434524536
1663860788301107200,7.784107177734375,-1.2890359163284302,-9.61811351776123,-1.414447546005249
1663860788310995000,7.793994873046875,-1.6749037504196167,-9.553608894348145,-1.4469398260116577
1663860788320882400,7.80388232421875,-2.061561107635498,-9.475250244140625,-1.462864875793457
1663860788330770200,7.813770263671875,-2.4278171062469482,-9.388359069824219,-1.4611016511917114
1663860788340658000,7.823657958984375,-2.7687981128692627,-9.297042846679688,-1.4384535551071167
1663860788350545700,7.833545654296875,-3.089204788208008,-9.203672409057617,-1.3855010271072388
1663860788360433400,7.843433349609375,-3.3878214359283447,-9.109750747680664,-1.30594801902771
1663860788370290400,7.85329052734375,-3.663771390914917,-9.01478385925293,-1.2168973684310913
1663860788380178200,7.86317822265625,-3.9189579486846924,-8.916916847229004,-1.1405044794082642
1663860788390066000,7.87306591796875,-4.153507709503174,-8.816596984863281,-1.0892077684402466
1663860788399923200,7.882923095703125,-4.374675273895264,-8.713163375854492,-1.0551738739013672
1663860788409810700,7.892810791015625,-4.587289333343506,-8.605958938598633,-1.0318055152893066
1663860788419698400,7.902698486328125,-4.791622161865234,-8.494729042053223,-1.0248440504074097
1663860788429555700,7.9125556640625,-4.992185592651367,-8.377019882202148,-1.0363438129425049
1663860788439474000,7.922473876953125,-5.187814235687256,-8.254130363464355,-1.0612821578979492
1663860788449331000,7.9323310546875,-5.364727020263672,-8.135797500610352,-1.0949385166168213
1663860788459218700,7.94221875,-5.5164642333984375,-8.028179168701172,-1.1346113681793213
1663860788469076000,7.952075927734375,-5.638148784637451,-7.936438083648682,-1.1809386014938354
1663860788478994200,7.961994140625,-5.731266975402832,-7.860854148864746,-1.2369123697280884
1663860788488882000,7.9718818359375,-5.800969123840332,-7.799478530883789,-1.2989494800567627
1663860788498769400,7.981769287109375,-5.853944301605225,-7.74924898147583,-1.3604635000228882
1663860788508657200,7.9916572265625,-5.891689300537109,-7.710936069488525,-1.4141615629196167
1663860788518545000,8.001544921875,-5.910801410675049,-7.688698768615723,-1.4548981189727783
1663860788528432600,8.0114326171875,-5.906261444091797,-7.68662691116333,-1.4839917421340942
1663860788538320400,8.0213203125,-5.874040603637695,-7.706584453582764,-1.5081769227981567
1663860788548207900,8.031207763671874,-5.8110551834106445,-7.749877452850342,-1.5301727056503296
1663860788558095600,8.041095703125,-5.7145094871521,-7.818179130554199,-1.5462342500686646
1663860788567983400,8.0509833984375,-5.584177017211914,-7.910906791687012,-1.5507736206054688
1663860788577871000,8.06087109375,-5.422910213470459,-8.024540901184082,-1.5392159223556519
1663860788587758800,8.0707587890625,-5.235688209533691,-8.15328598022461,-1.5105865001678467
1663860788597646600,8.080646484375,-5.030125617980957,-8.289249420166016,-1.4685219526290894
1663860788607503600,8.090503662109375,-4.817871570587158,-8.421984672546387,-1.4243133068084717
1663860788617391400,8.100391357421875,-4.611788272857666,-8.541638374328613,-1.393631935119629
1663860788627279000,8.110279052734375,-4.430045127868652,-8.637968063354492,-1.389457106590271
1663860788637166800,8.120166748046875,-4.293978214263916,-8.703032493591309,-1.4104498624801636
1663860788647054300,8.130054443359375,-4.23903751373291,-8.723298072814941,-1.450866937637329
1663860788656942000,8.139942138671875,-4.287820339202881,-8.68967342376709,-1.5081654787063599
1663860788666829800,8.149829833984375,-4.447287559509277,-8.601263046264648,-1.5525140762329102
1663860788676717600,8.159717529296875,-4.660472393035889,-8.483110427856445,-1.5770959854125977
1663860788686574600,8.16957470703125,-4.851463317871094,-8.371603012084961,-1.5968599319458008
1663860788696462300,8.17946240234375,-4.998789310455322,-8.279343605041504,-1.623260736465454
1663860788706350000,8.18935009765625,-5.109116077423096,-8.200342178344727,-1.6797951459884644
1663860788716207400,8.199207275390625,-5.167701244354248,-8.146306037902832,-1.7615211009979248
1663860788726094800,8.2090947265625,-5.142575263977051,-8.154248237609863,-1.7979298830032349
1663860788735982600,8.218982666015625,-5.027757167816162,-8.239335060119629,-1.733614206314087
1663860788745870300,8.228870361328125,-4.8703083992004395,-8.352184295654297,-1.640578031539917
1663860788755758000,8.238758056640625,-4.789712905883789,-8.41378402709961,-1.5611764192581177
1663860788765645800,8.248645751953125,-4.8646368980407715,-8.386642456054688,-1.4730656147003174
1663860788775533300,8.258533203125,-4.971765041351318,-8.331937789916992,-1.4250479936599731
1663860788785421000,8.268421142578125,-5.004276275634766,-8.312176704406738,-1.4266515970230103
1663860788795308800,8.278308837890625,-4.979386329650879,-8.323691368103027,-1.44646418094635
1663860788805196500,8.288196533203125,-4.937152862548828,-8.339325904846191,-1.500181794166565
1663860788815084300,8.298084228515625,-4.885612487792969,-8.349876403808594,-1.606468677520752
1663860788824972000,8.307971923828125,-4.803717613220215,-8.386126518249512,-1.6635957956314087
1663860788834829000,8.3178291015625,-4.659010410308838,-8.485193252563477,-1.570196270942688
1663860788844716800,8.327716796875,-4.4531025886535645,-8.629176139831543,-1.3702499866485596
1663860788854604500,8.3376044921875,-4.225825786590576,-8.77202320098877,-1.168076753616333
1663860788864492300,8.3474921875,-4.001897811889648,-8.894197463989258,-1.0239393711090088
1663860788874379800,8.3573798828125,-3.7643558979034424,-9.00540828704834,-0.950073778629303
1663860788884267500,8.367267578125,-3.4880080223083496,-9.119325637817383,-0.9176569581031799
1663860788894155300,8.3771552734375,-3.1896347999572754,-9.230578422546387,-0.8905379176139832
1663860788904012500,8.387012451171875,-2.899507761001587,-9.32848072052002,-0.8617950677871704
1663860788913869600,8.39686962890625,-2.6299777030944824,-9.410505294799805,-0.8342694640159607
1663860788923726800,8.406726806640625,-2.3803369998931885,-9.478906631469727,-0.8091488480567932
1663860788933645000,8.41664501953125,-2.141735315322876,-9.536829948425293,-0.7951358556747437
1663860788943532800,8.42653271484375,-1.9139132499694824,-9.584376335144043,-0.8043928146362305
1663860788953389800,8.436389892578125,-1.6943883895874023,-9.622013092041016,-0.8463411927223206
1663860788963277600,8.446277587890625,-1.47913658618927,-9.650293350219727,-0.9243306517601013
1663860788973165300,8.456165283203125,-1.2635152339935303,-9.670466423034668,-1.0276119709014893
1663860788983053000,8.466052978515625,-1.0383418798446655,-9.685773849487305,-1.130501627922058
1663860788992940500,8.4759404296875,-0.8015771508216858,-9.698495864868164,-1.2112094163894653
1663860789002828300,8.485828369140625,-0.5587071776390076,-9.708931922912598,-1.2628769874572754
1663860789012716000,8.495716064453125,-0.30762791633605957,-9.716588973999023,-1.2898290157318115
1663860789022603800,8.505603759765625,-0.04303537681698799,-9.719271659851074,-1.305491328239441
1663860789032491500,8.515491455078125,0.22225278615951538,-9.714269638061523,-1.324364185333252
1663860789042379000,8.52537890625,0.4632723033428192,-9.701675415039062,-1.353981852531433
1663860789052266800,8.535266845703125,0.6544445157051086,-9.684752464294434,-1.395583987236023
1663860789062154500,8.545154541015625,0.788425624370575,-9.66622543334961,-1.4535691738128662
1663860789072042200,8.555042236328125,0.8820302486419678,-9.64565372467041,-1.534208059310913
1663860789081930000,8.564929931640625,0.9593984484672546,-9.621711730957031,-1.6348150968551636
1663860789091817700,8.574817626953125,1.0377135276794434,-9.594574928283691,-1.7428877353668213
1663860789101705200,8.584705322265625,1.1320627927780151,-9.564957618713379,-1.8440213203430176
1663860789111593000,8.594593017578125,1.2496753931045532,-9.53337287902832,-1.9296364784240723
1663860789121480700,8.604480712890625,1.384163498878479,-9.49990177154541,-2.001584529876709
1663860789131338000,8.614337890625,1.5181058645248413,-9.466083526611328,-2.063737630844116
1663860789141195000,8.624195068359375,1.6354351043701172,-9.434386253356934,-2.1185142993927
1663860789151082800,8.634082763671875,1.7208787202835083,-9.407950401306152,-2.1678171157836914
1663860789160970500,8.643970458984375,1.7643753290176392,-9.389676094055176,-2.2116403579711914
1663860789170858200,8.653858154296875,1.773746371269226,-9.37958812713623,-2.2466726303100586
1663860789180745700,8.663745849609375,1.7707082033157349,-9.374701499938965,-2.269348382949829
1663860789190633500,8.673633544921875,1.7727689743041992,-9.372034072875977,-2.278740406036377
1663860789200521200,8.683521240234375,1.7793267965316772,-9.371230125427246,-2.2769336700439453
1663860789210409000,8.693408935546875,1.781028151512146,-9.373077392578125,-2.267984390258789
1663860789220296700,8.703296630859375,1.7752647399902344,-9.376522064208984,-2.258237361907959
1663860789230153700,8.71315380859375,1.7588850259780884,-9.381196975708008,-2.25163197517395
1663860789240041500,8.72304150390625,1.7276641130447388,-9.39031982421875,-2.237739324569702
1663860789249929200,8.73292919921875,1.6783369779586792,-9.407879829406738,-2.201218366622925
1663860789259817000,8.74281689453125,1.5992159843444824,-9.436014175415039,-2.138814926147461
1663860789269674000,8.752674072265625,1.476175308227539,-9.473367691040039,-2.060729503631592
1663860789279561700,8.762561767578125,1.3073134422302246,-9.514814376831055,-1.98232901096344
1663860789289419000,8.7724189453125,1.096346139907837,-9.556066513061523,-1.9104974269866943
1663860789299337200,8.782337158203125,0.8454309701919556,-9.594411849975586,-1.8446916341781616
1663860789309225000,8.792224853515625,0.561631977558136,-9.624977111816406,-1.7929809093475342
1663860789319112400,8.802112548828125,0.2520811855792999,-9.642915725708008,-1.766640543937683
1663860789328969700,8.8119697265625,-0.05597802251577377,-9.64759635925293,-1.7581640481948853
1663860789338888000,8.821887939453125,-0.3492756187915802,-9.643997192382812,-1.744046926498413
1663860789348745200,8.8317451171875,-0.6355871558189392,-9.633481979370117,-1.7211720943450928
1663860789358602200,8.841602294921875,-0.9402068257331848,-9.611005783081055,-1.707323670387268
1663860789368520400,8.8515205078125,-1.2775390148162842,-9.570039749145508,-1.7183204889297485
1663860789378408200,8.861408203125,-1.650266408920288,-9.508244514465332,-1.7436383962631226
1663860789388296000,8.8712958984375,-2.0568456649780273,-9.427170753479004,-1.7516355514526367
1663860789398183700,8.88118359375,-2.4655601978302,-9.33292293548584,-1.7285712957382202
1663860789408071200,8.8910712890625,-2.831416130065918,-9.235618591308594,-1.6902127265930176
1663860789417959000,8.900958984375,-3.136348247528076,-9.143229484558105,-1.653800368309021
1663860789427846700,8.9108466796875,-3.397599458694458,-9.058629035949707,-1.6024831533432007
1663860789437734400,8.920734375,-3.6416008472442627,-8.979533195495605,-1.5090101957321167
1663860789447622100,8.9306220703125,-3.879319906234741,-8.900154113769531,-1.381491780281067
1663860789457509600,8.940509521484374,-4.106368541717529,-8.815853118896484,-1.2605031728744507
1663860789467397400,8.9503974609375,-4.326740741729736,-8.722966194152832,-1.1660016775131226
1663860789477285000,8.96028515625,-4.545206546783447,-8.620800018310547,-1.0923744440078735
1663860789487172900,8.9701728515625,-4.7587738037109375,-8.511544227600098,-1.0383039712905884
1663860789497030000,8.98002978515625,-4.96240234375,-8.397893905639648,-1.0101081132888794
1663860789506887200,8.98988720703125,-5.153762340545654,-8.281603813171387,-1.012001872062683
1663860789516744400,8.999744384765625,-5.328887462615967,-8.166926383972168,-1.0366593599319458
1663860789526662700,9.00966259765625,-5.483433246612549,-8.059599876403809,-1.0701440572738647
1663860789536550400,9.01955029296875,-5.609434604644775,-7.96722412109375,-1.1081364154815674
1663860789546438000,9.02943798828125,-5.704635143280029,-7.8931732177734375,-1.151235818862915
1663860789556325600,9.03932568359375,-5.773891925811768,-7.835531234741211,-1.1987502574920654
1663860789566213400,9.04921337890625,-5.822900295257568,-7.7913312911987305,-1.2487499713897705
1663860789576101000,9.05910107421875,-5.855198860168457,-7.759188175201416,-1.296934962272644
1663860789585988900,9.06898876953125,-5.870475769042969,-7.740721225738525,-1.3375840187072754
1663860789595876400,9.07887646484375,-5.866130352020264,-7.738847255706787,-1.3671663999557495
1663860789605764000,9.08876416015625,-5.837392330169678,-7.757148742675781,-1.3863180875778198
1663860789615651800,9.09865185546875,-5.779180526733398,-7.798362731933594,-1.3989266157150269
1663860789625539600,9.10853955078125,-5.685601711273193,-7.865437030792236,-1.406848430633545
1663860789635427300,9.11842724609375,-5.552603244781494,-7.959782123565674,-1.40743088722229
1663860789645284400,9.128284423828125,-5.382416248321533,-8.077885627746582,-1.395613670349121
1663860789655172000,9.138172119140625,-5.179450035095215,-8.213831901550293,-1.36991286277771
1663860789665059800,9.148059814453125,-4.9545578956604,-8.356795310974121,-1.3366758823394775
1663860789674947600,9.157947509765625,-4.727177619934082,-8.491779327392578,-1.3091439008712769
1663860789684835000,9.1678349609375,-4.526895046234131,-8.601917266845703,-1.2979340553283691
1663860789694722800,9.177722900390625,-4.37931489944458,-8.67751407623291,-1.3010568618774414
1663860789704610600,9.187610595703125,-4.305632591247559,-8.713593482971191,-1.3058359622955322
1663860789714467800,9.1974677734375,-4.316776275634766,-8.704724311828613,-1.3280051946640015
1663860789724324900,9.207324951171875,-4.428602695465088,-8.639480590820312,-1.3846466541290283
1663860789734212600,9.217212646484375,-4.640313625335693,-8.517301559448242,-1.4468775987625122
1663860789744070000,9.22706982421875,-4.882686138153076,-8.37002182006836,-1.5074777603149414
1663860789753988000,9.236988037109375,-5.094435691833496,-8.228384971618652,-1.584549069404602
1663860789763875800,9.246875732421875,-5.252415180206299,-8.111950874328613,-1.6669660806655884
1663860789773763300,9.256763427734375,-5.3561296463012695,-8.0282564163208,-1.7405036687850952
1663860789783651000,9.266651123046875,-5.396080493927002,-7.986846446990967,-1.806372046470642
1663860789793538800,9.276538818359375,-5.363980770111084,-8.003005027770996,-1.830303430557251
1663860789803426600,9.286426513671875,-5.267589569091797,-8.080891609191895,-1.7669371366500854
1663860789813314300,9.296314208984375,-5.1323561668396,-8.192343711853027,-1.6476664543151855
1663860789823171300,9.30617138671875,-5.019307613372803,-8.289483070373535,-1.5037974119186401
1663860789833059000,9.31605908203125,-4.992494106292725,-8.330945014953613,-1.3567397594451904
1663860789842946800,9.32594677734375,-5.036809921264648,-8.317835807800293,-1.2706502676010132
1663860789852834600,9.33583447265625,-5.067057132720947,-8.297523498535156,-1.2831311225891113
1663860789862722000,9.34572216796875,-5.056060791015625,-8.292729377746582,-1.3554576635360718
1663860789872609800,9.35560986328125,-5.027906894683838,-8.290644645690918,-1.4682503938674927
1663860789882497500,9.36549755859375,-4.9780802726745605,-8.293462753295898,-1.6148040294647217
1663860789892385300,9.37538525390625,-4.893332481384277,-8.325959205627441,-1.704139232635498
1663860789902273000,9.38527294921875,-4.762079238891602,-8.409759521484375,-1.6640119552612305
1663860789912160500,9.395160400390624,-4.577602386474609,-8.54017162322998,-1.5104382038116455
1663860789922048300,9.40504833984375,-4.351090908050537,-8.689599990844727,-1.315014362335205
1663860789931905500,9.414905517578125,-4.094480037689209,-8.837037086486816,-1.1456022262573242
1663860789941793300,9.424793212890625,-3.815034866333008,-8.976292610168457,-1.020809531211853
1663860789951680800,9.4346806640625,-3.5205445289611816,-9.1055326461792,-0.9302838444709778
1663860789961568500,9.444568603515625,-3.2200350761413574,-9.223102569580078,-0.8579838871955872
1663860789971456300,9.454456298828125,-2.9317283630371094,-9.324209213256836,-0.7965476512908936
1663860789981344000,9.464343994140625,-2.6637988090515137,-9.408670425415039,-0.7426226139068604
1663860789991231700,9.474231689453125,-2.411640167236328,-9.479761123657227,-0.6989371180534363
1663860790001119500,9.484119384765625,-2.173086166381836,-9.539155960083008,-0.6727360486984253
1663860790010976500,9.4939765625,-1.9481309652328491,-9.587662696838379,-0.6722444891929626
1663860790020864300,9.5038642578125,-1.72713041305542,-9.627485275268555,-0.7063568830490112
1663860790030752000,9.513751953125,-1.499071717262268,-9.65985107421875,-0.7813031673431396
1663860790040639700,9.5236396484375,-1.268206000328064,-9.683725357055664,-0.88741534948349
1663860790050527200,9.53352734375,-1.0425410270690918,-9.699662208557129,-1.0000243186950684
1663860790060415000,9.5434150390625,-0.8182070851325989,-9.71076488494873,-1.0963468551635742
1663860790070272300,9.553272216796875,-0.5849212408065796,-9.719535827636719,-1.1657023429870605
1663860790080129300,9.56312939453125,-0.3381495773792267,-9.726058959960938,-1.2082321643829346
1663860790090017000,9.57301708984375,-0.08094537258148193,-9.727882385253906,-1.2377963066101074
1663860790099904800,9.58290478515625,0.1752919703722,-9.722640037536621,-1.2688348293304443
1663860790109792500,9.59279248046875,0.4125962257385254,-9.711249351501465,-1.3006879091262817
1663860790119680300,9.60268017578125,0.6085557341575623,-9.696518898010254,-1.3332573175430298
1663860790129537300,9.612537353515625,0.7489031553268433,-9.68058967590332,-1.3768537044525146
1663860790139455500,9.62245556640625,0.8439841866493225,-9.662851333618164,-1.444782018661499
1663860790149312800,9.632312744140625,0.9155145883560181,-9.642461776733398,-1.5346500873565674
1663860790159200500,9.642200439453125,0.9856765270233154,-9.618939399719238,-1.6354881525039673
1663860790169088000,9.652087890625,1.0711307525634766,-9.59221076965332,-1.7356704473495483
1663860790178945300,9.6619453125,1.1811463832855225,-9.562314987182617,-1.826859474182129
1663860790188833000,9.6718330078125,1.31270432472229,-9.5292387008667,-1.9080888032913208
1663860790198751200,9.681751220703125,1.450792908668518,-9.494089126586914,-1.9818812608718872
1663860790208639000,9.691638916015625,1.5789905786514282,-9.459545135498047,-2.0479700565338135
1663860790218526700,9.701526611328125,1.6825892925262451,-9.42851448059082,-2.107700824737549
1663860790228383700,9.7113837890625,1.7481000423431396,-9.404274940490723,-2.161980152130127
1663860790238271500,9.721271484375,1.7722417116165161,-9.388876914978027,-2.2087364196777344
1663860790248159200,9.7311591796875,1.768667459487915,-9.381641387939453,-2.2420995235443115
1663860790258047000,9.741046875,1.7572108507156372,-9.379740715026855,-2.258995294570923
1663860790267934500,9.7509345703125,1.7470089197158813,-9.380664825439453,-2.2630691528320312
1663860790277822200,9.760822265625,1.734990119934082,-9.383729934692383,-2.259603261947632
1663860790297567200,9.780567138671875,1.6903743743896484,-9.395962715148926,-2.242523670196533
1663860790307454700,9.790454833984375,1.6491062641143799,-9.40919017791748,-2.217653274536133
1663860790317342500,9.800342529296875,1.5903047323226929,-9.431417465209961,-2.165565013885498
1663860790327230200,9.810230224609375,1.5089211463928223,-9.464973449707031,-2.075530529022217
1663860790337118000,9.820117919921875,1.400496006011963,-9.505209922790527,-1.9646838903427124
1663860790346975000,9.82997509765625,1.2578283548355103,-9.546565055847168,-1.857782244682312
1663860790356862700,9.83986279296875,1.070083737373352,-9.587611198425293,-1.7615389823913574
1663860790366750500,9.84975048828125,0.8263896703720093,-9.625264167785645,-1.6857541799545288
1663860790376638200,9.85963818359375,0.5244311094284058,-9.65286922454834,-1.6484746932983398
1663860790386526000,9.86952587890625,0.18663853406906128,-9.663691520690918,-1.6578985452651978
1663860790396383000,9.879383056640625,-0.14630384743213654,-9.656733512878418,-1.7019004821777344
1663860790406270700,9.889270751953125,-0.4586566388607025,-9.639144897460938,-1.7455371618270874
1663860790416158500,9.899158447265625,-0.7524070739746094,-9.616256713867188,-1.7697125673294067
1663860790426046200,9.909046142578125,-1.0457712411880493,-9.58443832397461,-1.7931218147277832
1663860790435933700,9.91893359375,-1.3604177236557007,-9.537527084350586,-1.8317277431488037
1663860790445821400,9.928821533203125,-1.7111395597457886,-9.473827362060547,-1.8678823709487915
1663860790455709200,9.938709228515625,-2.095871686935425,-9.395606994628906,-1.8709086179733276
1663860790465597000,9.948596923828125,-2.4821691513061523,-9.30838394165039,-1.8339033126831055
1663860790475484700,9.958484619140625,-2.819331169128418,-9.22280216217041,-1.7781109809875488
1663860790485372400,9.968372314453125,-3.078582763671875,-9.148722648620605,-1.7301981449127197
1663860790495260000,9.978260009765625,-3.288451910018921,-9.083771705627441,-1.6856932640075684
1663860790505117200,9.9881171875,-3.4956743717193604,-9.02098274230957,-1.6039037704467773
1663860790515005000,9.9980048828125,-3.722064256668091,-8.953977584838867,-1.4638707637786865
1663860790524892700,10.007892578125,-3.9508609771728516,-8.880165100097656,-1.3052772283554077
1663860790534780200,10.0177802734375,-4.17210054397583,-8.796319007873535,-1.1784497499465942
1663860790554555600,10.0375556640625,-4.5946736335754395,-8.590325355529785,-1.1250264644622803
1663860790564413000,10.047412841796875,-4.791319370269775,-8.480911254882812,-1.1348094940185547
1663860790574300400,10.057300537109375,-4.976372241973877,-8.369691848754883,-1.163779377937317
1663860790584218600,10.067218505859374,-5.143843173980713,-8.2623929977417,-1.2017148733139038
1663860790594076000,10.077075927734375,-5.282133102416992,-8.167428970336914,-1.2500226497650146
1663860790603963600,10.086963623046875,-5.3882832527160645,-8.08874225616455,-1.3072993755340576
1663860790613820700,10.096820556640624,-5.46504545211792,-8.028009414672852,-1.3618896007537842
1663860790623739000,10.10673876953125,-5.5205397605896,-7.982309341430664,-1.4059773683547974
1663860790633626600,10.116626708984375,-5.560155391693115,-7.948572158813477,-1.440576195716858
1663860790643514400,10.126514404296875,-5.588642120361328,-7.923442840576172,-1.4685070514678955
1663860790653402000,10.136402099609375,-5.607699871063232,-7.90583610534668,-1.4905864000320435
1663860790663289900,10.146289794921875,-5.614997863769531,-7.897781848907471,-1.5057363510131836
1663860790673177600,10.156177490234375,-5.604432106018066,-7.903714656829834,-1.5139391422271729
1663860790683034600,10.16603466796875,-5.569042682647705,-7.927824974060059,-1.5184670686721802
1663860790692892000,10.175891845703125,-5.502777099609375,-7.97329568862915,-1.5219676494598389
1663860790702810000,10.18581005859375,-5.401144981384277,-8.041805267333984,-1.5255792140960693
1663860790712697900,10.19569775390625,-5.264431953430176,-8.131755828857422,-1.5266568660736084
1663860790722585300,10.20558544921875,-5.095413684844971,-8.240218162536621,-1.5185356140136719
1663860790732442600,10.215442626953125,-4.900968551635742,-8.360815048217773,-1.4992204904556274
1663860790742330400,10.225330322265625,-4.691474914550781,-8.48363208770752,-1.4793362617492676
1663860790752218000,10.235218017578125,-4.487758159637451,-8.594242095947266,-1.472896695137024
1663860790762075100,10.2450751953125,-4.309234142303467,-8.682735443115234,-1.486940622329712
1663860790771993300,10.254993408203125,-4.164411544799805,-8.748629570007324,-1.51312255859375
1663860790781881000,10.264881103515625,-4.092118263244629,-8.777837753295898,-1.5409517288208008
1663860790791768800,10.274768798828125,-4.139029502868652,-8.745089530944824,-1.6006956100463867
1663860790801656600,10.284656494140625,-4.304729461669922,-8.64480209350586,-1.7050213813781738
1663860790811544000,10.2945439453125,-4.551715850830078,-8.503209114074707,-1.7741782665252686
1663860790821401300,10.3044013671875,-4.799826622009277,-8.360234260559082,-1.799594759941101
1663860790831289000,10.3142890625,-4.994132041931152,-8.242095947265625,-1.8157340288162231
1663860790841146000,10.32414599609375,-5.130950927734375,-8.151878356933594,-1.8413594961166382
1663860790851064300,10.334064208984374,-5.2122578620910645,-8.085210800170898,-1.9058151245117188
1663860790860952000,10.3439521484375,-5.197522163391113,-8.076543807983398,-1.9813103675842285
1663860790870839800,10.35383984375,-5.093352317810059,-8.141131401062012,-1.98749577999115
1663860790880697000,10.363697021484375,-4.987252235412598,-8.217351913452148,-1.9423800706863403
1663860790890615300,10.373615234375,-4.9932990074157715,-8.222537994384766,-1.90453040599823
1663860790900472300,10.383472412109375,-5.105865478515625,-8.164947509765625,-1.853145956993103
1663860790910360000,10.393360107421875,-5.18369722366333,-8.135411262512207,-1.7648690938949585
1663860790920217300,10.40321728515625,-5.179571628570557,-8.15900707244873,-1.6652435064315796
1663860790930135600,10.413135498046875,-5.123500823974609,-8.209257125854492,-1.5900378227233887
1663860790939992600,10.42299267578125,-5.073326110839844,-8.236468315124512,-1.6100711822509766
1663860790949910800,10.432910888671875,-5.021386623382568,-8.228267669677734,-1.8032338619232178
1663860790959768000,10.44276806640625,-4.914391994476318,-8.259480476379395,-1.949388027191162
1663860790969655800,10.45265576171875,-4.730901718139648,-8.38277816772461,-1.875625491142273
1663860790979543600,10.46254345703125,-4.499112606048584,-8.54892349243164,-1.6864968538284302
1663860790989431000,10.47243115234375,-4.277092933654785,-8.694472312927246,-1.5109643936157227
1663860790999318800,10.48231884765625,-4.072773456573486,-8.809053421020508,-1.408361554145813
1663860791009206500,10.49220654296875,-3.848836898803711,-8.913775444030762,-1.3789373636245728
1663860791019063800,10.502063720703125,-3.5940301418304443,-9.02031421661377,-1.3737797737121582
1663860791028951300,10.511951416015625,-3.3289361000061035,-9.124384880065918,-1.3543192148208618
1663860791038839000,10.521839111328125,-3.073110580444336,-9.21858024597168,-1.320666790008545
1663860791048696300,10.5316962890625,-2.8351781368255615,-9.300223350524902,-1.2798404693603516
1663860791058614500,10.541614501953125,-2.610856294631958,-9.371438980102539,-1.236908197402954
1663860791068502300,10.551502197265625,-2.390836477279663,-9.434372901916504,-1.2028732299804688
1663860791078359300,10.561359375,-2.1637322902679443,-9.489994049072266,-1.1952648162841797
1663860791088247000,10.5712470703125,-1.9255379438400269,-9.53686809539795,-1.229158878326416
1663860791098165200,10.581165283203125,-1.6809349060058594,-9.573559761047363,-1.300694227218628
1663860791108022500,10.5910224609375,-1.4354819059371948,-9.601496696472168,-1.3860177993774414
1663860791117910000,10.600909912109374,-1.187602162361145,-9.624667167663574,-1.4579966068267822
1663860791127797800,10.6107978515625,-0.9450923800468445,-9.6448974609375,-1.5010489225387573
1663860791137685500,10.620685546875,-0.713350772857666,-9.661982536315918,-1.5190808773040771
1663860791147573200,10.6305732421875,-0.4880073666572571,-9.674863815307617,-1.5261856317520142
1663860791157461000,10.6404609375,-0.2633630931377411,-9.682235717773438,-1.5347092151641846
1663860791167348700,10.6503486328125,-0.042066991329193115,-9.682944297790527,-1.5521624088287354
1663860791177236200,10.660236328125,0.16567154228687286,-9.677117347717285,-1.5799846649169922
1663860791187124000,10.6701240234375,0.34934571385383606,-9.666142463684082,-1.6167982816696167
1663860791197011700,10.68001171875,0.5022136569023132,-9.6517915725708,-1.6616530418395996
1663860791206899500,10.6898994140625,0.6251891255378723,-9.634230613708496,-1.7207926511764526
1663860791216787200,10.699787109375,0.73081374168396,-9.61260986328125,-1.7983416318893433
1663860791226674700,10.7096748046875,0.8351746797561646,-9.586748123168945,-1.8886845111846924
1663860791236562400,10.7195625,0.9473840594291687,-9.557133674621582,-1.9834392070770264
1663860791246450200,10.7294501953125,1.0686562061309814,-9.525360107421875,-2.0726494789123535
1663860791256338000,10.739337890625,1.1952660083770752,-9.493114471435547,-2.1500046253204346
1663860791266195000,10.74919482421875,1.3216439485549927,-9.460943222045898,-2.2168009281158447
1663860791276082700,10.759082763671875,1.444780707359314,-9.428817749023438,-2.2760467529296875
1663860791285940000,10.76893994140625,1.5536890029907227,-9.398987770080566,-2.3271162509918213
1663860791295827700,10.77882763671875,1.6328802108764648,-9.37494945526123,-2.369476556777954
1663860791305715200,10.788715087890624,1.6746894121170044,-9.359393119812012,-2.4015750885009766
1663860791315603000,10.79860302734375,1.6851576566696167,-9.352554321289062,-2.420820474624634
1663860791325490700,10.80849072265625,1.6805317401885986,-9.352644920349121,-2.4236791133880615
1663860791335378400,10.81837841796875,1.6728236675262451,-9.356409072875977,-2.4144694805145264
1663860791345266200,10.82826611328125,1.6652299165725708,-9.361908912658691,-2.3983492851257324
1663860791355153700,10.838153564453124,1.654923677444458,-9.369503021240234,-2.3757150173187256
1663860791365041400,10.84804150390625,1.635899305343628,-9.380188941955566,-2.3465447425842285
1663860791374929200,10.85792919921875,1.599950909614563,-9.396695137023926,-2.3049259185791016
1663860791384817000,10.86781689453125,1.5380111932754517,-9.422944068908691,-2.238980531692505
1663860791394704600,10.87770458984375,1.4414044618606567,-9.459477424621582,-2.14733624458313
1663860791404561700,10.887561767578125,1.3066070079803467,-9.501871109008789,-2.0439202785491943
1663860791414449400,10.897449462890625,1.129112958908081,-9.546198844909668,-1.9405094385147095
1663860791424306700,10.907306640625,0.899734377861023,-9.589041709899902,-1.8469308614730835
1663860791434194400,10.9171943359375,0.6177992224693298,-9.624139785766602,-1.7789462804794312
1663860791444051500,10.927051513671875,0.30330079793930054,-9.64376163482666,-1.7539215087890625
1663860791453969700,10.9369697265625,-0.022842993959784508,-9.64539909362793,-1.770918369293213
1663860791463857400,10.946857421875,-0.33538874983787537,-9.633790969848633,-1.8022124767303467
1663860791473745200,10.9567451171875,-0.6274573802947998,-9.615923881530762,-1.8195297718048096
1663860791483602200,10.966602294921875,-0.9095993638038635,-9.590629577636719,-1.8338007926940918
1663860791493490000,10.976489990234375,-1.2093490362167358,-9.550352096557617,-1.870465636253357
1663860791503377700,10.986377685546875,-1.55271577835083,-9.489945411682129,-1.9236408472061157
1663860791513265400,10.996265380859375,-1.9446406364440918,-9.409039497375488,-1.9643696546554565
1663860791523122400,11.006122314453124,-2.356387138366699,-9.311956405639648,-1.976181149482727
1663860791533040600,11.01604052734375,-2.73877215385437,-9.208372116088867,-1.968603491783142
1663860791542928400,11.025928466796875,-3.042553663253784,-9.114104270935059,-1.961211919784546
1663860791552816000,11.035816162109375,-3.2744972705841064,-9.035599708557129,-1.950896978378296
1663860791562704000,11.045703857421875,-3.484369993209839,-8.966962814331055,-1.9034541845321655
1663860791572591600,11.055591552734375,-3.710003614425659,-8.89967155456543,-1.789442539215088
1663860791582479000,11.06547900390625,-3.9424374103546143,-8.829492568969727,-1.6332865953445435
1663860791592366800,11.075366943359375,-4.166559219360352,-8.752837181091309,-1.4825712442398071
1663860791602254600,11.085254638671875,-4.38163423538208,-8.665334701538086,-1.37245774269104
1663860791612142300,11.095142333984375,-4.589069366455078,-8.566965103149414,-1.310707926750183
1663860791622030000,11.105030029296875,-4.78619384765625,-8.460638999938965,-1.2962749004364014
1663860791631887000,11.11488720703125,-4.9701642990112305,-8.350532531738281,-1.317750096321106
1663860791641774800,11.12477490234375,-5.139237403869629,-8.241247177124023,-1.356642484664917
1663860791651662600,11.13466259765625,-5.285016059875488,-8.140539169311523,-1.4037836790084839
1663860791661550300,11.14455029296875,-5.402748107910156,-8.053570747375488,-1.456258773803711
1663860791671438000,11.15443798828125,-5.491898059844971,-7.982278823852539,-1.514154076576233
1663860791681295000,11.164295166015625,-5.5565876960754395,-7.926181316375732,-1.5717411041259766
1663860791691182800,11.174182861328125,-5.605733394622803,-7.881686687469482,-1.6202365159988403
1663860791701070600,11.184070556640625,-5.644663333892822,-7.846379280090332,-1.6560535430908203
1663860791710958300,11.193958251953125,-5.671919345855713,-7.822018146514893,-1.6780177354812622
1663860791720845800,11.203845703125,-5.683139324188232,-7.812188625335693,-1.6858333349227905
1663860791730703000,11.213703125,-5.672857761383057,-7.820557117462158,-1.6816513538360596
1663860791740590800,11.2235908203125,-5.636145114898682,-7.84994649887085,-1.6681108474731445
1663860791750478600,11.233478515625,-5.570551872253418,-7.900801181793213,-1.6482335329055786
1663860791760366000,11.243365966796874,-5.474543571472168,-7.972825050354004,-1.6229020357131958
1663860791770253800,11.25325390625,-5.345292091369629,-8.066109657287598,-1.5925168991088867
1663860791780141600,11.2631416015625,-5.1810526847839355,-8.179583549499512,-1.5561127662658691
1663860791790029300,11.273029296875,-4.984680652618408,-8.309121131896973,-1.5105748176574707
1663860791799917000,11.2829169921875,-4.764194965362549,-8.446630477905273,-1.458516001701355
1663860791809804500,11.292804443359374,-4.5344343185424805,-8.579994201660156,-1.4117344617843628
1663860791819692300,11.3026923828125,-4.319975852966309,-8.694300651550293,-1.3846772909164429
1663860791829580000,11.312580078125,-4.140805721282959,-8.780355453491211,-1.3890563249588013
1663860791839467800,11.3224677734375,-4.016962051391602,-8.833847999572754,-1.4133388996124268
1663860791849325000,11.332324951171875,-3.9812171459198,-8.843499183654785,-1.4535572528839111
1663860791859212500,11.342212646484375,-4.067354202270508,-8.79169750213623,-1.527436375617981
1663860791869100300,11.352100341796875,-4.280845642089844,-8.676847457885742,-1.599084734916687
1663860791878988000,11.361988037109375,-4.548710823059082,-8.53225326538086,-1.6371514797210693
1663860791888875800,11.371875732421875,-4.777221202850342,-8.399532318115234,-1.6722441911697388
1663860791898763500,11.381763427734375,-4.932798385620117,-8.29983139038086,-1.7177575826644897
1663860791908651000,11.391651123046875,-5.029675006866455,-8.227005958557129,-1.785813808441162
1663860791918538800,11.401538818359375,-5.051130771636963,-8.196098327636719,-1.8655896186828613
1663860791928396000,11.41139599609375,-4.981632709503174,-8.23534107208252,-1.879596471786499
1663860791938253000,11.421253173828125,-4.869931697845459,-8.313374519348145,-1.8281043767929077
1663860791948110300,11.4311103515625,-4.8190813064575195,-8.349802017211914,-1.7965667247772217
1663860791958028500,11.441028564453125,-4.904004096984863,-8.304594993591309,-1.776188611984253
1663860791967885800,11.4508857421875,-5.0183820724487305,-8.245733261108398,-1.730350375175476
1663860791977804000,11.460803955078125,-5.052988529205322,-8.238737106323242,-1.661594271659851
1663860791987661000,11.4706611328125,-5.001350402832031,-8.283499717712402,-1.5938960313796997
1663860791997548800,11.480548828125,-4.909994602203369,-8.345012664794922,-1.5566322803497314
1663860792007436500,11.4904365234375,-4.838311195373535,-8.374968528747559,-1.6189602613449097
1663860792017293600,11.50029345703125,-4.761138439178467,-8.397186279296875,-1.728931188583374
1663860792027181300,11.510181396484375,-4.611573696136475,-8.489124298095703,-1.6847962141036987
1663860792037099500,11.520099609375,-4.364795207977295,-8.655036926269531,-1.4863630533218384
1663860792046987300,11.5299873046875,-4.08413553237915,-8.823322296142578,-1.2803179025650024
1663860792056875000,11.539875,-3.828240394592285,-8.955843925476074,-1.1435985565185547
1663860792066762800,11.5497626953125,-3.584595203399658,-9.063511848449707,-1.0834298133850098
1663860792076650500,11.559650390625,-3.320133924484253,-9.164743423461914,-1.0745038986206055
1663860792086538000,11.5695380859375,-3.0420777797698975,-9.260356903076172,-1.0779348611831665
1663860792096425700,11.57942578125,-2.7726452350616455,-9.345046043395996,-1.073752999305725
1663860792106313500,11.5893134765625,-2.5199573040008545,-9.417532920837402,-1.063143253326416
1663860792116201200,11.599201171875,-2.2828867435455322,-9.479179382324219,-1.0506987571716309
1663860792126089000,11.6090888671875,-2.0540530681610107,-9.532381057739258,-1.0416203737258911
1663860792135976400,11.6189765625,-1.8198938369750977,-9.57917308807373,-1.0477608442306519
1663860792145833700,11.628833740234375,-1.5732684135437012,-9.619029998779297,-1.081421971321106
1663860792155721500,11.638721435546875,-1.3139727115631104,-9.650491714477539,-1.1453715562820435
1663860792165609200,11.648609130859375,-1.052358865737915,-9.672419548034668,-1.2276908159255981
1663860792175496700,11.65849658203125,-0.7958489656448364,-9.686836242675781,-1.3046880960464478
1663860792185384400,11.668384521484375,-0.5459076762199402,-9.696978569030762,-1.3568313121795654
1663860792195272200,11.678272216796875,-0.30638062953948975,-9.704144477844238,-1.3806191682815552
1663860792205160000,11.688159912109375,-0.07443384826183319,-9.708162307739258,-1.384353756904602
1663860792215047700,11.698047607421875,0.15900956094264984,-9.707533836364746,-1.3816204071044922
1663860792224874200,11.707874267578125,0.38940081000328064,-9.700550079345703,-1.384947657585144
1663860792234762000,11.717761962890625,0.6052618026733398,-9.687143325805664,-1.401183843612671
1663860792244619000,11.727618896484374,0.7882568836212158,-9.669374465942383,-1.4325612783432007
1663860792254537200,11.737537109375,0.9335758090019226,-9.648874282836914,-1.4825830459594727
1663860792264425000,11.747425048828125,1.0492234230041504,-9.625693321228027,-1.5542007684707642
1663860792274282200,11.7572822265625,1.1506085395812988,-9.599839210510254,-1.6399948596954346
1663860792284200400,11.767200439453125,1.2493290901184082,-9.572421073913574,-1.7257795333862305
1663860792294088200,11.777088134765625,1.3519032001495361,-9.544242858886719,-1.8028233051300049
1663860792303976000,11.786975830078125,1.4642032384872437,-9.51456069946289,-1.870732069015503
1663860792313863400,11.796863525390625,1.588151454925537,-9.482682228088379,-1.9305176734924316
1663860792323751200,11.806751220703125,1.7220432758331299,-9.448387145996094,-1.9831621646881104
1663860792333639000,11.816638916015625,1.8610148429870605,-9.412383079528809,-2.028315544128418
1663860792343496200,11.82649609375,1.9887195825576782,-9.377324104309082,-2.0690977573394775
1663860792353383700,11.8363837890625,2.082751512527466,-9.34814739227295,-2.1082372665405273
1663860792363271400,11.846271484375,2.1352531909942627,-9.328513145446777,-2.142409563064575
1663860792373159200,11.8561591796875,2.156390428543091,-9.317845344543457,-2.1675193309783936
1663860792383047000,11.866046875,2.1574599742889404,-9.314253807067871,-2.1818413734436035
1663860792392934700,11.8759345703125,2.1489782333374023,-9.315710067749023,-2.183990001678467
1663860792402822100,11.885822265625,2.1315066814422607,-9.321828842163086,-2.17499041557312
1663860792412710000,11.8957099609375,2.1032979488372803,-9.331912994384766,-2.1591508388519287
1663860792422567200,11.905567138671875,2.0698883533477783,-9.344093322753906,-2.138662815093994
1663860792432455000,11.915454833984375,2.0308539867401123,-9.35944938659668,-2.108724355697632
1663860792442342400,11.92534228515625,1.977919578552246,-9.382102012634277,-2.057758092880249
1663860792452230100,11.935230224609375,1.8995211124420166,-9.415639877319336,-1.9768500328063965
1663860792462118000,11.945117919921875,1.785866141319275,-9.459258079528809,-1.871761679649353
1663860792472005600,11.955005615234375,1.633309006690979,-9.508275985717773,-1.7593642473220825
1663860792481893400,11.964893310546875,1.4362870454788208,-9.558806419372559,-1.654299020767212
1663860792491780900,11.97478076171875,1.1898704767227173,-9.607244491577148,-1.566983699798584
1663860792501668600,11.984668701171875,0.8946110606193542,-9.648073196411133,-1.5115346908569336
1663860792511526000,11.99452587890625,0.570850670337677,-9.674665451049805,-1.4984560012817383
1663860792521383000,12.0043828125,0.2594779431819916,-9.684988021850586,-1.517922043800354
1663860792531270700,12.014270751953125,-0.02954195626080036,-9.684578895568848,-1.5422227382659912
1663860792541158400,12.024158447265625,-0.3203696608543396,-9.676392555236816,-1.5605037212371826
1663860792551046100,12.034046142578125,-0.6350314617156982,-9.656000137329102,-1.5902172327041626
1663860792560903400,12.0439033203125,-0.9793112277984619,-9.617542266845703,-1.6474837064743042
1663860792570821600,12.053821533203125,-1.3601946830749512,-9.558405876159668,-1.7196297645568848
1663860792580709000,12.063709228515625,-1.7574468851089478,-9.483160972595215,-1.7752288579940796
1663860792590596900,12.073596923828125,-2.134934663772583,-9.400604248046875,-1.80030357837677
1663860792600484600,12.083484619140625,-2.481022357940674,-9.315332412719727,-1.7998558282852173
1663860792610372400,12.093372314453125,-2.806943655014038,-9.226642608642578,-1.777785062789917
1663860792620229400,12.1032294921875,-3.1154444217681885,-9.137473106384277,-1.7236520051956177
1663860792630117000,12.1131171875,-3.40447735786438,-9.05099105834961,-1.630790114402771
1663860792639974400,12.122974365234375,-3.661961793899536,-8.96912956237793,-1.5215556621551514
1663860792649892600,12.132892578125,-3.89335036277771,-8.88664722442627,-1.4281843900680542
1663860792659749600,12.14274951171875,-4.108371734619141,-8.799492835998535,-1.3640397787094116
1663860792669634800,12.152634765625,-4.309536457061768,-8.708332061767578,-1.3278648853302002
1663860792679522600,12.1625224609375,-4.500735759735107,-8.612655639648438,-1.3175455331802368
1663860792689410300,12.172410400390625,-4.68956184387207,-8.510082244873047,-1.325480341911316
1663860792699267600,12.182267578125,-4.873589515686035,-8.40294361114502,-1.345008134841919
1663860792709185800,12.192185791015625,-5.046557426452637,-8.295740127563477,-1.3723477125167847
1663860792719042800,12.202042724609376,-5.197808742523193,-8.195832252502441,-1.4076560735702515
1663860792728961000,12.2119609375,-5.321933746337891,-8.107625007629395,-1.453898310661316
1663860792738818300,12.221818359375,-5.415190696716309,-8.034844398498535,-1.512404441833496
1663860792748706000,12.2317060546875,-5.483602523803711,-7.975576400756836,-1.5781837701797485
1663860792758593800,12.24159375,-5.53275203704834,-7.929044723510742,-1.6399075984954834
1663860792768481300,12.251481201171876,-5.563663005828857,-7.89658784866333,-1.6911410093307495
1663860792778369000,12.261369140625,-5.573606967926025,-7.881382942199707,-1.7289018630981445
1663860792788226300,12.271226318359375,-5.558182716369629,-7.8869853019714355,-1.752840280532837
1663860792798144500,12.28114453125,-5.512768268585205,-7.916066646575928,-1.7651230096817017
1663860792808001500,12.29100146484375,-5.4359235763549805,-7.968780994415283,-1.7662522792816162
1663860792817858800,12.30085888671875,-5.326261043548584,-8.044967651367188,-1.7549422979354858
1663860792827746600,12.31074658203125,-5.1828413009643555,-8.144165992736816,-1.7265888452529907
1663860792837634300,12.32063427734375,-5.007994174957275,-8.263199806213379,-1.6762758493423462
1663860792847521800,12.330521728515626,-4.805201053619385,-8.39635944366455,-1.6067312955856323
1663860792857409500,12.340409423828126,-4.583133697509766,-8.533971786499023,-1.5285931825637817
1663860792867297300,12.35029736328125,-4.361797332763672,-8.661402702331543,-1.4578081369400024
1663860792877185000,12.36018505859375,-4.164348125457764,-8.764803886413574,-1.4166165590286255
1663860792887072800,12.37007275390625,-4.012299060821533,-8.836545944213867,-1.409714698791504
1663860792896960300,12.379960205078126,-3.938282012939453,-8.867289543151855,-1.425308108329773
1663860792906817500,12.389817626953125,-3.98288631439209,-8.837056159973145,-1.4877619743347168
1663860792916705300,12.399705322265625,-4.1629533767700195,-8.733960151672363,-1.5994151830673218
1663860792926593000,12.409593017578125,-4.435214042663574,-8.580907821655273,-1.6933040618896484
1663860792936511200,12.41951123046875,-4.707610130310059,-8.418732643127441,-1.770236849784851
1663860792946398700,12.429398681640626,-4.914538383483887,-8.282723426818848,-1.8477509021759033
1663860792956256000,12.439256103515625,-5.055301666259766,-8.178194999694824,-1.931692123413086
1663860792966143700,12.449143798828125,-5.131928443908691,-8.101911544799805,-2.0476152896881104
1663860792976001000,12.4590009765625,-5.117259502410889,-8.088678359985352,-2.1347885131835938
1663860792985919200,12.468919189453125,-5.028736114501953,-8.153353691101074,-2.0988123416900635
1663860792995806700,12.478806640625,-4.925217151641846,-8.242499351501465,-1.9934475421905518
1663860793005664000,12.4886640625,-4.906341075897217,-8.283937454223633,-1.8640222549438477
1663860793015582200,12.498582275390625,-4.979513168334961,-8.270020484924316,-1.726730227470398
1663860793025439500,12.508439453125,-5.035066604614258,-8.255447387695312,-1.6328158378601074
1663860793035327000,12.518326904296876,-5.02561092376709,-8.27141284942627,-1.5803005695343018
1663860793045214700,12.528214599609376,-4.967758655548096,-8.309686660766602,-1.5623258352279663
1663860793055102500,12.5381025390625,-4.902937412261963,-8.336387634277344,-1.6236462593078613
1663860793064959700,12.547959716796875,-4.8357062339782715,-8.349754333496094,-1.7515523433685303
1663860793074847200,12.55784716796875,-4.731954574584961,-8.400045394897461,-1.7939435243606567
1663860793084765400,12.567765380859376,-4.554413318634033,-8.520685195922852,-1.68096125125885
1663860793094653200,12.577653076171876,-4.31824254989624,-8.677663803100586,-1.4904124736785889
1663860793104510500,12.587510498046875,-4.064078330993652,-8.827204704284668,-1.316857099533081
1663860793114367500,12.597367431640626,-3.8067774772644043,-8.95744800567627,-1.201235294342041
1663860793124255200,12.607255126953126,-3.526271343231201,-9.079690933227539,-1.137984275817871
1663860793134173400,12.61717333984375,-3.212136745452881,-9.20036792755127,-1.0980814695358276
1663860793144061200,12.627061279296875,-2.8917343616485596,-9.310206413269043,-1.0622180700302124
1663860793153949000,12.636948974609375,-2.587562084197998,-9.403131484985352,-1.027629017829895
1663860793163836700,12.646836669921875,-2.302765130996704,-9.480391502380371,-0.9948988556861877
1663860793173724200,12.65672412109375,-2.0304486751556396,-9.545258522033691,-0.967307448387146
1663860793183612000,12.66661181640625,-1.7649098634719849,-9.599418640136719,-0.9521819353103638
1663860793193499600,12.676499755859375,-1.500986099243164,-9.643413543701172,-0.9602046608924866
1663860793203387400,12.686387451171875,-1.2368578910827637,-9.676774978637695,-1.0003031492233276
1663860793213275100,12.696275146484375,-0.9791762828826904,-9.698681831359863,-1.071057677268982
1663860793223132200,12.706132080078126,-0.7361896634101868,-9.710175514221191,-1.1579705476760864
1663860793233020000,12.71602001953125,-0.5070089101791382,-9.7147855758667,-1.2394641637802124
1663860793242907600,12.72590771484375,-0.28884729743003845,-9.715643882751465,-1.3012394905090332
1663860793252795400,12.73579541015625,-0.07632146030664444,-9.714784622192383,-1.3369834423065186
1663860793262683100,12.74568310546875,0.14354637265205383,-9.712409973144531,-1.3486542701721191
1663860793272570600,12.755570556640626,0.37408342957496643,-9.705958366394043,-1.3508610725402832
1663860793282458400,12.765458251953126,0.5995908975601196,-9.69369888305664,-1.357606291770935
1663860793292346000,12.77534619140625,0.7998104691505432,-9.676216125488281,-1.37895667552948
1663860793302233900,12.78523388671875,0.9603360295295715,-9.655771255493164,-1.4192371368408203
1663860793312121600,12.79512158203125,1.0799214839935303,-9.634263038635254,-1.4782185554504395
1663860793321978600,12.804978515625,1.1732572317123413,-9.61091136932373,-1.556998610496521
