time,seconds_elapsed,z,y,x
1663860780759877000,0.242877197265625,0.55047607421875,-0.6477203369140625,-0.2901611328125
1663860780769764900,0.252764892578125,0.2937469482421875,-0.1140289306640625,-0.2784423828125
1663860780779652600,0.262652587890625,0.1819000244140625,-0.3419952392578125,-0.2528839111328125
1663860780789540000,0.2725400390625,0.3033447265625,-0.9310760498046875,-0.0483551025390625
1663860780799427800,0.282427734375,0.40667724609375,-1.520172119140625,0.2957305908203125
1663860780809315600,0.292315673828125,0.4673919677734375,-1.5500030517578125,0.690948486328125
1663860780819203300,0.302203369140625,0.5099945068359375,-1.4445343017578125,0.9998779296875
1663860780829121500,0.31212158203125,0.5366363525390625,-1.5989990234375,1.1436767578125
1663860780839009300,0.32200927734375,0.5707244873046875,-1.7119140625,1.166046142578125
1663860780848896800,0.331896728515625,0.6133270263671875,-1.544677734375,1.2022705078125
1663860780858784500,0.341784423828125,0.6239776611328125,-0.8202972412109375,1.0861663818359375
1663860780868611300,0.351611328125,0.6729888916015625,-0.0873870849609375,0.83795166015625
1663860780878498800,0.361498779296875,0.7837677001953125,0.066009521484375,0.657928466796875
1663860780888356000,0.371356201171875,0.8743133544921875,-0.18646240234375,0.587615966796875
1663860780898274300,0.3812744140625,0.94036865234375,-0.66583251953125,0.6941375732421875
1663860780908162000,0.391162109375,0.9456939697265625,-1.120697021484375,0.93914794921875
1663860780918019000,0.40101904296875,0.8871002197265625,-1.2794189453125,1.179901123046875
1663860780927906800,0.41090673828125,0.9126739501953125,-1.165435791015625,1.3194580078125
1663860780937794600,0.420794677734375,1.28338623046875,-1.00885009765625,1.315185546875
1663860780947682300,0.430682373046875,1.876739501953125,-0.974761962890625,1.215057373046875
1663860780957570000,0.440570068359375,2.1973724365234375,-1.019500732421875,1.043548583984375
1663860780967457800,0.450457763671875,2.2676849365234375,-0.925750732421875,0.8336944580078125
1663860780977345300,0.46034521484375,2.2431793212890625,-0.7158966064453125,0.6387481689453125
1663860780987233000,0.47023291015625,2.262359619140625,-0.6285400390625,0.5258331298828125
1663860780997090300,0.48009033203125,2.525482177734375,-0.526275634765625,0.4874725341796875
1663860781006978000,0.48997802734375,2.9633026123046875,-0.50390625,0.5023956298828125
1663860781016865500,0.499865478515625,3.2477264404296875,-0.7361297607421875,0.599334716796875
1663860781026753300,0.509753173828125,3.30950927734375,-1.17822265625,0.8528594970703125
1663860781036641000,0.51964111328125,3.3308258056640625,-1.6341552734375,1.3024139404296875
1663860781046528800,0.52952880859375,3.3510589599609375,-1.9143218994140625,1.85101318359375
1663860781056385800,0.5393857421875,3.2530517578125,-1.644805908203125,2.2377166748046875
1663860781066273500,0.5492734375,3.2040557861328125,-0.99713134765625,2.30908203125
1663860781076161300,0.559161376953125,3.29034423828125,-0.609375,2.037445068359375
1663860781086018600,0.5690185546875,3.324432373046875,-0.7073822021484375,1.467529296875
1663860781095936800,0.578936767578125,3.1688995361328125,-1.2719573974609375,0.893341064453125
1663860781105824300,0.58882421875,2.9324188232421875,-2.114593505859375,0.575897216796875
1663860781115712000,0.5987119140625,2.755584716796875,-2.9731903076171875,0.44061279296875
1663860781125599700,0.608599853515625,2.730010986328125,-3.141510009765625,0.3756256103515625
1663860781135487500,0.618487548828125,2.7949981689453125,-2.498077392578125,0.2829437255859375
1663860781145344500,0.628344482421875,2.833343505859375,-1.7641143798828125,0.0368804931640625
1663860781155232300,0.638232177734375,2.7332000732421875,-1.30072021484375,-0.2752532958984375
1663860781165120000,0.6481201171875,2.4498443603515625,-1.0599822998046875,-0.4776458740234375
1663860781175007700,0.6580078125,2.0833892822265625,-0.83306884765625,-0.6843109130859375
1663860781184895500,0.6678955078125,1.7872467041015625,-0.71270751953125,-0.94317626953125
1663860781194783200,0.677783203125,1.6775360107421875,-0.5859375,-1.06781005859375
1663860781204670700,0.687670654296875,1.625335693359375,-0.4730224609375,-1.0017547607421875
1663860781214558500,0.697558349609375,1.5060272216796875,-0.8288116455078125,-0.7652740478515625
1663860781224446200,0.7074462890625,1.3078765869140625,-1.564910888671875,-0.4094696044921875
1663860781234334000,0.717333984375,1.0362396240234375,-2.1188507080078125,-0.18896484375
1663860781244221700,0.7272216796875,0.8135986328125,-2.0709075927734375,-0.2741851806640625
1663860781254109200,0.737109130859375,0.8178558349609375,-1.235748291015625,-0.620391845703125
1663860781263997000,0.746996826171875,0.7997589111328125,-0.2919158935546875,-0.79510498046875
1663860781273854200,0.756854248046875,0.6165313720703125,-0.1182861328125,-0.6278533935546875
1663860781283711200,0.766711181640625,0.4194488525390625,-0.4676971435546875,-0.367919921875
1663860781293599000,0.776598876953125,0.4641876220703125,-0.836273193359375,-0.244354248046875
1663860781303486700,0.78648681640625,0.5824432373046875,-1.005645751953125,-0.2752532958984375
1663860781313344000,0.796343994140625,0.6378326416015625,-0.9342803955078125,-0.4776458740234375
1663860781323262200,0.80626220703125,0.6112060546875,-0.779815673828125,-0.68963623046875
1663860781333119000,0.816118896484375,0.67938232421875,-0.6913909912109375,-0.9218597412109375
1663860781343006700,0.8260068359375,0.816802978515625,-0.6871337890625,-0.9879150390625
1663860781352894500,0.83589453125,1.0042877197265625,-0.7457275390625,-0.90802001953125
1663860781362782000,0.845781982421875,1.0959014892578125,-0.8533172607421875,-0.7620697021484375
1663860781372669700,0.855669677734375,1.0277252197265625,-0.951324462890625,-0.5000152587890625
1663860781382557400,0.865557373046875,0.9435577392578125,-1.0024566650390625,-0.2198486328125
1663860781392445200,0.875445068359375,0.961669921875,-0.9907379150390625,0.049652099609375
1663860781402333000,0.8853330078125,1.08843994140625,-1.026947021484375,0.3447418212890625
1663860781412220400,0.895220458984375,1.3313140869140625,-1.118560791015625,0.622772216796875
1663860781422108200,0.905108154296875,1.6530303955078125,-1.2091217041015625,0.8709716796875
1663860781431996000,0.914995849609375,1.940643310546875,-1.3081817626953125,1.0254364013671875
1663860781441883600,0.924883544921875,2.10150146484375,-1.5148468017578125,1.0840301513671875
1663860781451740700,0.93474072265625,2.1068267822265625,-1.7353515625,1.0478057861328125
1663860781461628400,0.94462841796875,2.0525054931640625,-1.8472137451171875,0.869903564453125
1663860781471516200,0.95451611328125,2.0716705322265625,-1.8653106689453125,0.542877197265625
1663860781481404000,0.96440380859375,2.1526336669921875,-1.6597137451171875,0.004913330078125
1663860781491261000,0.974260986328125,2.322021484375,-1.360382080078125,-0.7620697021484375
1663860781501148700,0.984148681640625,2.4977874755859375,-1.2559814453125,-1.4044342041015625
1663860781511036400,0.994036376953125,2.53399658203125,-1.0674285888671875,-1.7463836669921875
1663860781520924200,1.003924072265625,2.3731536865234375,-0.8213653564453125,-1.8880615234375
1663860781530812000,1.01381201171875,2.0727386474609375,-0.4751434326171875,-1.9977874755859375
1663860781540699600,1.02369970703125,1.8479766845703125,-0.09271240234375,-2.0904541015625
1663860781550556700,1.033556640625,1.86181640625,0.1501617431640625,-2.20550537109375
1663860781560475000,1.043474853515625,2.0684814453125,0.1256561279296875,-2.399383544921875
1663860781570362600,1.053362548828125,2.1909942626953125,-0.172607421875,-2.490997314453125
1663860781580250400,1.06325048828125,2.0098876953125,-0.970489501953125,-2.136260986328125
1663860781590138000,1.07313818359375,1.7755279541015625,-2.0133819580078125,-1.5258636474609375
1663860781599995100,1.0829951171875,1.8192138671875,-2.5769195556640625,-0.9708709716796875
1663860781609883000,1.0928828125,2.0397186279296875,-2.24774169921875,-0.78338623046875
1663860781619740200,1.102740234375,2.0301361083984375,-1.682098388671875,-1.03265380859375
1663860781629658400,1.112658447265625,2.0184173583984375,-1.23681640625,-1.522674560546875
1663860781639545900,1.1225458984375,2.1569061279296875,-1.3071136474609375,-1.7474517822265625
1663860781649433600,1.13243359375,2.238922119140625,-1.8887481689453125,-1.6313323974609375
1663860781659321300,1.1423212890625,2.12493896484375,-2.69195556640625,-1.2765960693359375
1663860781669209000,1.152208984375,1.736114501953125,-3.026458740234375,-0.72265625
1663860781679066000,1.162066162109375,1.256744384765625,-2.4171295166015625,-0.38177490234375
1663860781688953900,1.171953857421875,0.83489990234375,-1.3316192626953125,-0.3956298828125
1663860781698841600,1.181841552734375,0.4556732177734375,-0.2397308349609375,-0.3839111328125
1663860781708729300,1.191729248046875,0.0913543701171875,0.4580230712890625,-0.265655517578125
1663860781718586400,1.20158642578125,-0.146209716796875,0.361083984375,-0.18682861328125
1663860781728474000,1.21147412109375,-0.1717681884765625,-0.3323974609375,-0.2411651611328125
1663860781738361900,1.22136181640625,-0.1366119384765625,-1.099395751953125,-0.1847076416015625
1663860781748249600,1.23124951171875,-0.234619140625,-1.6980743408203125,0.2435302734375
1663860781758107000,1.24110693359375,-0.5701751708984375,-1.9388275146484375,0.2754974365234375
1663860781768025000,1.251025146484375,-0.9494171142578125,-1.78009033203125,-0.1037445068359375
1663860781777912600,1.26091259765625,-1.3574066162109375,-1.1388092041015625,-0.1367645263671875
1663860781787800300,1.27080029296875,-1.751556396484375,-0.5901947021484375,0.026214599609375
1663860781797657600,1.28065771484375,-2.0402374267578125,-0.5326690673828125,0.1508636474609375
1663860781807545300,1.29054541015625,-2.2447662353515625,-0.9353485107421875,0.3202362060546875
1663860781817432800,1.300432861328125,-2.357696533203125,-1.4221649169921875,0.437408447265625
1663860781827320600,1.310320556640625,-2.299102783203125,-1.6256256103515625,0.221160888671875
1663860781837208300,1.320208251953125,-1.956085205078125,-1.5638427734375,-0.312530517578125
1663860781847096000,1.330095947265625,-1.395751953125,-1.08447265625,-0.9921722412109375
1663860781856983800,1.33998388671875,-0.9046783447265625,-0.4847412109375,-1.8529052734375
1663860781866871300,1.349871337890625,-0.5584564208984375,-0.0895233154296875,-2.52508544921875
1663860781876759000,1.359759033203125,-0.4103851318359375,-0.0319976806640625,-2.2481231689453125
1663860781886646800,1.369646728515625,-0.3944091796875,-0.5795440673828125,-1.4512939453125
1663860781896534500,1.379534423828125,-0.49560546875,-1.567047119140625,-0.875
1663860781906422300,1.38942236328125,-0.689483642578125,-2.363861083984375,-0.2635345458984375
1663860781916309800,1.399309814453125,-0.8311614990234375,-2.624847412109375,0.3319549560546875
1663860781926197500,1.409197509765625,-0.7097320556640625,-2.568389892578125,0.3553924560546875
1663860781936085200,1.419085205078125,-0.4327545166015625,-2.1998138427734375,0.03900146484375
1663860781945973000,1.428972900390625,-0.1504669189453125,-1.3092498779296875,-0.2155914306640625
1663860781955830300,1.438830322265625,-0.0790863037109375,-0.5124359130859375,-0.18896484375
1663860781965717800,1.4487177734375,-0.15472412109375,-0.5625,-0.2198486328125
1663860781975605500,1.45860546875,-0.2399444580078125,-0.59552001953125,0.0762939453125
1663860781985493200,1.4684931640625,-0.199462890625,-0.5571746826171875,0.3628387451171875
1663860781995381000,1.478381103515625,-0.07696533203125,-0.4325408935546875,0.2850799560546875
1663860782005268700,1.488268798828125,-0.054595947265625,-0.312164306640625,0.1913299560546875
1663860782015125800,1.498125732421875,-0.16644287109375,-0.4304046630859375,0.0336761474609375
1663860782024983000,1.507983154296875,-0.269775390625,-0.347320556640625,-0.17510986328125
1663860782034870800,1.517870849609375,-0.27935791015625,-0.0415802001953125,-0.253936767578125
1663860782044727800,1.527727783203125,-0.346466064453125,0.0233917236328125,-0.1463470458984375
1663860782054615600,1.537615478515625,-0.53289794921875,-0.184326171875,0.1593780517578125
1663860782064533800,1.54753369140625,-0.7331695556640625,-0.347320556640625,0.186004638671875
1663860782074421500,1.55742138671875,-0.9249114990234375,-0.173675537109375,-0.1037445068359375
1663860782084309200,1.567309326171875,-0.9579315185546875,0.1970367431640625,-0.413726806640625
1663860782094196700,1.57719677734375,-0.8109283447265625,0.488922119140625,-0.74609375
1663860782104084500,1.58708447265625,-0.6649932861328125,0.6742706298828125,-1.135986328125
1663860782113972200,1.59697216796875,-0.646881103515625,0.7776031494140625,-1.5823211669921875
1663860782123860000,1.60685986328125,-0.642608642578125,0.9246063232421875,-1.771942138671875
1663860782133747700,1.616747802734375,-0.6500701904296875,0.829803466796875,-1.7581024169921875
1663860782143635200,1.62663525390625,-0.7374267578125,0.4825286865234375,-1.5450439453125
1663860782153523000,1.63652294921875,-0.8311614990234375,0.1405792236328125,-1.2062835693359375
1663860782163410700,1.64641064453125,-0.8876190185546875,-0.02880859375,-0.9698028564453125
1663860782173268000,1.65626806640625,-0.9472808837890625,0.08837890625,-1.0592803955078125
1663860782183155700,1.66615576171875,-0.985626220703125,0.430328369140625,-1.2531585693359375
1663860782193043200,1.676043212890625,-0.9952239990234375,0.67108154296875,-1.25103759765625
1663860782202931000,1.685930908203125,-1.00799560546875,0.3355255126953125,-1.0859222412109375
1663860782212788200,1.695788330078125,-1.0516815185546875,-0.6349334716796875,-0.4893646240234375
1663860782222676000,1.705676025390625,-1.2231903076171875,-1.4477386474609375,0.68988037109375
1663860782232533000,1.715532958984375,-1.340362548828125,-1.65545654296875,1.7434234619140625
1663860782242451200,1.725451171875,-1.170989990234375,-1.79608154296875,2.173797607421875
1663860782252339000,1.7353388671875,-0.803466796875,-2.1998138427734375,2.3697967529296875
1663860782262226700,1.745226806640625,-0.5115814208984375,-2.54388427734375,2.5860443115234375
1663860782272114400,1.755114501953125,-0.3560638427734375,-2.8624114990234375,3.1240081787109375
1663860782282002000,1.765001953125,-0.3432769775390625,-2.9412384033203125,3.6044464111328125
1663860782291889700,1.7748896484375,-0.4061279296875,-2.3244476318359375,3.7194976806640625
1663860782301777400,1.78477734375,-0.3443450927734375,-1.0141754150390625,3.3509063720703125
1663860782311665200,1.7946650390625,-0.0940093994140625,-0.049041748046875,3.0686187744140625
1663860782321522200,1.804522216796875,0.2681884765625,0.040435791015625,3.197509765625
1663860782331410000,1.814409912109375,0.68682861328125,0.2534942626953125,3.0228118896484375
1663860782341297700,1.824297607421875,1.0000152587890625,0.952301025390625,2.48272705078125
1663860782351185400,1.834185302734375,1.14276123046875,1.0279388427734375,2.606292724609375
1663860782361073200,1.8440732421875,1.2183990478515625,0.329132080078125,2.7682037353515625
1663860782370960600,1.853960693359375,1.328125,-0.0714111328125,2.61480712890625
1663860782380848400,1.863848388671875,1.27166748046875,0.2652130126953125,2.21746826171875
1663860782390705700,1.87370556640625,1.13104248046875,1.2005157470703125,1.7210540771484375
1663860782400593400,1.883593505859375,1.190704345703125,2.0079803466796875,1.0243682861328125
1663860782410481200,1.893481201171875,1.26953125,2.3083953857421875,0.496002197265625
1663860782420368600,1.90336865234375,1.2759246826171875,1.891876220703125,0.3745574951171875
1663860782430256400,1.91325634765625,1.3334503173828125,1.079071044921875,0.484283447265625
1663860782440144100,1.92314404296875,1.5347900390625,0.2279205322265625,0.61956787109375
1663860782450031900,1.933031982421875,2.032257080078125,-0.0980377197265625,0.653656005859375
1663860782459919600,1.942919677734375,2.636260986328125,0.2215423583984375,0.3649749755859375
1663860782469776600,1.952776611328125,2.9867401123046875,0.557098388671875,-0.0760498046875
1663860782479634000,1.962634033203125,3.2360076904296875,0.660430908203125,-0.3753814697265625
1663860782489521700,1.972521728515625,3.60565185546875,0.7200775146484375,-0.6725921630859375
1663860782499409200,1.9824091796875,3.895416259765625,0.7041015625,-0.893096923828125
1663860782509297000,1.992296875,3.9976806640625,1.070556640625,-0.9708709716796875
1663860782519184600,2.0021845703125,3.9774322509765625,1.330474853515625,-0.9580841064453125
1663860782529072400,2.012072265625,3.5907440185546875,1.6990509033203125,-0.6502227783203125
1663860782538960100,2.021960205078125,3.082611083984375,2.559783935546875,-0.21026611328125
1663860782548847600,2.03184765625,2.718292236328125,2.6609954833984375,0.0890655517578125
1663860782558735400,2.0417353515625,2.3007049560546875,1.8226318359375,0.244598388671875
1663860782568623000,2.051623046875,1.8447723388671875,1.31768798828125,0.221160888671875
1663860782578510800,2.0615107421875,1.3994903564453125,1.4306182861328125,0.174285888671875
1663860782588398600,2.071398681640625,0.9435577392578125,1.2431182861328125,0.3021240234375
1663860782598286000,2.0812861328125,0.6516876220703125,1.116363525390625,0.2904052734375
1663860782608173800,2.091173828125,0.61865234375,1.2654876708984375,0.1050567626953125
1663860782618031000,2.101031005859375,0.9020233154296875,1.5382080078125,0.004913330078125
1663860782627918800,2.1109189453125,1.2855072021484375,1.835418701171875,-0.041961669921875
1663860782637806600,2.120806640625,1.4559478759765625,1.9174346923828125,-0.0579376220703125
1663860782647694000,2.130694091796875,1.70416259765625,2.0314178466796875,-0.0898895263671875
1663860782657581800,2.140581787109375,1.980072021484375,2.0782928466796875,-0.18682861328125
1663860782667470600,2.150470703125,2.0397186279296875,1.40185546875,-0.425445556640625
1663860782677328000,2.160327880859375,1.69244384765625,0.406890869140625,-0.5841827392578125
1663860782687215600,2.170215576171875,1.0032196044921875,-0.22906494140625,-0.5341033935546875
1663860782697103400,2.180103271484375,0.392822265625,-0.37713623046875,-0.359405517578125
1663860782706990800,2.189990966796875,0.5014801025390625,-0.2599639892578125,-0.1484832763671875
1663860782716878600,2.199878662109375,1.0607452392578125,-0.3558349609375,-0.1143951416015625
1663860782726766300,2.209766357421875,1.416534423828125,-0.4900665283203125,-0.35833740234375
1663860782736654000,2.219654052734375,1.6647491455078125,-0.43572998046875,-0.7769927978515625
1663860782746511000,2.229510986328125,1.9736785888671875,-0.4208221435546875,-1.064605712890625
1663860782756368400,2.239368408203125,2.205902099609375,-0.587005615234375,-1.0742034912109375
1663860782766256000,2.249256103515625,2.4604949951171875,-0.845855712890625,-0.8941650390625
1663860782776144000,2.259143798828125,2.7236175537109375,-1.038665771484375,-0.86114501953125
1663860782786001000,2.2690009765625,2.9526519775390625,-1.32843017578125,-1.226531982421875
1663860782795888600,2.278888671875,3.1028594970703125,-1.7587890625,-1.741058349609375
1663860782805806800,2.288806884765625,3.19873046875,-2.1859588623046875,-2.1607666015625
1663860782815694600,2.298694580078125,3.436279296875,-2.726043701171875,-2.5037841796875
1663860782825551600,2.308551513671875,3.94122314453125,-3.449371337890625,-2.8702392578125
1663860782835469800,2.3184697265625,4.5058135986328125,-4.1375274658203125,-3.1141815185546875
1663860782845357600,2.328357666015625,4.678375244140625,-4.62115478515625,-3.026824951171875
1663860782855245300,2.338245361328125,4.6165924072265625,-4.6254119873046875,-2.7487945556640625
1663860782865102600,2.3481025390625,4.6762542724609375,-4.1865234375,-2.64971923828125
1663860782874959600,2.357959716796875,4.838165283203125,-3.3247222900390625,-2.904327392578125
1663860782884847400,2.367847412109375,4.9276580810546875,-2.3372344970703125,-3.1567840576171875
1663860782894735000,2.377735107421875,4.9681396484375,-1.7204437255859375,-3.2824859619140625
1663860782904622800,2.387622802734375,4.8573455810546875,-1.677825927734375,-3.3666534423828125
1663860782914479900,2.39747998046875,4.417388916015625,-1.5585174560546875,-3.1685028076171875
1663860782924398000,2.407398193359375,3.1699676513671875,-0.9076385498046875,-2.83294677734375
1663860782934285800,2.417285888671875,1.1278533935546875,-0.3515777587890625,-2.59326171875
1663860782944143000,2.42714306640625,-0.7193145751953125,-0.5561065673828125,-2.387664794921875
1663860782954061300,2.437061279296875,-1.2902984619140625,-1.08660888671875,-2.2662353515625
1663860782963949000,2.446948974609375,0.105194091796875,0.1735992431640625,-2.892608642578125
1663860782973806000,2.45680615234375,1.5869903564453125,0.44097900390625,-3.527496337890625
1663860782983724300,2.466724365234375,0.21173095703125,-1.578765869140625,-2.584747314453125
1663860782993581600,2.47658154296875,-0.245269775390625,-0.960906982421875,-2.3695526123046875
1663860783003469300,2.48646923828125,-0.5499420166015625,-1.2432098388671875,-1.9189453125
1663860783013356800,2.496356689453125,-0.61279296875,-1.4594573974609375,-1.4917755126953125
1663860783023244500,2.50624462890625,-0.5946807861328125,-1.703399658203125,-1.257415771484375
1663860783033101800,2.516101806640625,-0.6149139404296875,-1.9132537841796875,-1.06353759765625
1663860783043020000,2.52602001953125,-0.5925445556640625,-1.9143218994140625,-0.7876434326171875
1663860783052877000,2.535876953125,-0.5797576904296875,-1.7662506103515625,-0.4563446044921875
1663860783062764800,2.545764892578125,-0.5936126708984375,-1.428558349609375,-0.197479248046875
1663860783072652500,2.555652587890625,-0.562713623046875,-1.141998291015625,0.00384521484375
1663860783082540300,2.565540283203125,-0.531829833984375,-1.00885009765625,0.209442138671875
1663860783092428000,2.575427978515625,-0.58935546875,-0.9332122802734375,0.418243408203125
1663860783102315800,2.585315673828125,-0.633026123046875,-0.9012603759765625,0.6376800537109375
1663860783112203300,2.595203369140625,-0.633026123046875,-0.838409423828125,0.8869476318359375
1663860783122091000,2.605091064453125,-0.68096923828125,-0.787261962890625,1.1426239013671875
1663860783131978800,2.614978759765625,-0.745941162109375,-0.6945953369140625,1.4046783447265625
1663860783141836000,2.6248359375,-0.825836181640625,-0.5678253173828125,1.694427490234375
1663860783151723500,2.6347236328125,-0.962188720703125,-0.4517059326171875,1.990570068359375
1663860783161611300,2.644611328125,-1.1070709228515625,-0.33453369140625,2.2249298095703125
1663860783171499000,2.6544990234375,-1.17205810546875,-0.300445556640625,2.31121826171875
1663860783181386800,2.66438671875,-1.1283721923828125,-0.4186859130859375,2.1780548095703125
1663860783191274500,2.6742744140625,-1.001617431640625,-0.66583251953125,1.7593994140625
1663860783201162000,2.684161865234375,-0.896148681640625,-0.939605712890625,1.05633544921875
1663860783211049700,2.6940498046875,-0.8002777099609375,-0.9640960693359375,0.247802734375
1663860783220937500,2.7039375,-0.6287689208984375,-0.6360015869140625,-0.5724639892578125
1663860783230825200,2.7138251953125,-0.4806976318359375,-0.4921875,-1.4608917236328125
1663860783240713000,2.723712890625,-0.293212890625,-0.814971923828125,-2.1660919189453125
1663860783250600400,2.733600341796875,-0.16644287109375,-1.3188323974609375,-2.308837890625
1663860783260488200,2.74348828125,-0.1217041015625,-1.7396087646484375,-1.8955230712890625
1663860783270376000,2.7533759765625,-0.0599212646484375,-1.7396087646484375,-1.351165771484375
1663860783280263700,2.763263671875,-0.292144775390625,-1.6714324951171875,-1.019866943359375
1663860783290120700,2.77312060546875,-0.6788330078125,-1.8450775146484375,-0.9793853759765625
1663860783300008400,2.783008544921875,-0.7448883056640625,-1.7896881103515625,-0.996429443359375
1663860783309896200,2.792896240234375,-0.5126495361328125,-0.96197509765625,-0.6374359130859375
1663860783319784000,2.802783935546875,-0.40826416015625,0.08624267578125,0.1828155517578125
1663860783329641200,2.81264111328125,-0.340087890625,0.773345947265625,1.0701751708984375
1663860783339528700,2.82252880859375,0.0498046875,1.128082275390625,0.97430419921875
1663860783349416400,2.83241650390625,0.1030731201171875,1.1334075927734375,-0.4116058349609375
1663860783359304200,2.84230419921875,-0.442352294921875,0.430328369140625,-1.7943115234375
1663860783369192000,2.85219189453125,-0.69268798828125,0.028717041015625,-1.1381072998046875
1663860783379079700,2.86207958984375,-0.600006103515625,-0.3153533935546875,0.3852081298828125
1663860783388967200,2.87196728515625,-0.5360870361328125,-0.99285888671875,0.989227294921875
1663860783398824400,2.881824462890625,-0.1728363037109375,-2.09967041015625,0.45233154296875
1663860783408712200,2.891712158203125,0.3203887939453125,-2.4490814208984375,-0.6065521240234375
1663860783418600000,2.901599853515625,0.370452880859375,-0.115081787109375,-0.2837677001953125
1663860783428487400,2.9114873046875,0.245819091796875,2.7259674072265625,1.544219970703125
1663860783438375200,2.921375244140625,0.1318359375,4.27593994140625,3.071807861328125
1663860783448263000,2.931262939453125,0.09881591796875,4.34197998046875,3.4766082763671875
1663860783458150700,2.941150634765625,-0.0098419189453125,3.16912841796875,3.403106689453125
1663860783468038400,2.951038330078125,-0.293212890625,1.4093017578125,3.473419189453125
1663860783477926000,2.96092578125,-0.49560546875,0.1288604736328125,3.7471923828125
1663860783487783200,2.970783203125,-0.5382232666015625,-0.434661865234375,3.8185577392578125
1663860783497671000,2.9806708984375,-0.4902801513671875,-0.4676971435546875,3.527740478515625
1663860783507558700,2.99055859375,-0.339019775390625,-0.08099365234375,3.1559600830078125
1663860783517415700,3.000415771484375,-0.1046600341796875,0.554962158203125,2.9130859375
1663860783527273000,3.01027294921875,0.1467437744140625,1.2303466796875,2.796966552734375
1663860783537191200,3.020191162109375,0.3534088134765625,1.7150421142578125,2.717071533203125
1663860783547048400,3.03004833984375,0.4705810546875,1.8279571533203125,2.546630859375
1663860783556936000,3.03993603515625,0.4524688720703125,1.639404296875,2.228118896484375
1663860783566854100,3.049854248046875,0.3054656982421875,1.6202239990234375,1.863800048828125
1663860783576711400,3.05971142578125,0.0796356201171875,1.9067840576171875,1.6283721923828125
1663860783586599200,3.06959912109375,-0.1632537841796875,2.2615203857421875,1.6187896728515625
1663860783596487000,3.07948681640625,-0.3187713623046875,2.42449951171875,1.89788818359375
1663860783606374400,3.08937451171875,-0.304931640625,2.40106201171875,2.3506317138671875
1663860783616231700,3.099231689453125,-0.2292938232421875,2.313720703125,2.69683837890625
1663860783626150000,3.10914990234375,-0.233551025390625,2.2380828857421875,2.80230712890625
1663860783636037600,3.11903759765625,-0.245269775390625,2.1560516357421875,2.662750244140625
1663860783645925400,3.12892529296875,-0.1355438232421875,2.02716064453125,2.300567626953125
1663860783655782400,3.138782470703125,0.128631591796875,1.8151702880859375,1.82757568359375
1663860783665670100,3.148670166015625,0.520660400390625,1.4039764404296875,1.3705902099609375
1663860783675558000,3.158557861328125,0.914794921875,0.8670806884765625,1.010528564453125
1663860783685445600,3.168445556640625,1.136383056640625,0.3909149169921875,0.8006744384765625
1663860783695333000,3.1783330078125,1.15875244140625,0.14697265625,0.7889556884765625
1663860783705190400,3.1881904296875,1.0863037109375,0.1895751953125,0.9934844970703125
1663860783715078100,3.198078125,0.9808502197265625,0.4388427734375,1.3663177490234375
1663860783724966000,3.2079658203125,0.8317108154296875,0.71795654296875,1.7231903076171875
1663860783734853400,3.217853271484375,0.6356964111328125,0.9491119384765625,1.84356689453125
1663860783744741000,3.2277412109375,0.4684600830078125,1.1323394775390625,1.64862060546875
1663860783754628900,3.23762890625,0.36724853515625,1.182403564453125,1.21612548828125
1663860783764516600,3.2475166015625,0.280975341796875,1.0950469970703125,0.726104736328125
1663860783774404400,3.257404296875,0.1510009765625,1.0077056884765625,0.383087158203125
1663860783784292000,3.2672919921875,0.0338287353515625,0.9736175537109375,0.2051849365234375
1663860783794179600,3.2771796875,-0.007720947265625,0.8521728515625,0.119964599609375
1663860783804036900,3.287036865234375,0.0263671875,0.55389404296875,0.0326080322265625
1663860783813924600,3.296924560546875,0.097747802734375,0.1853179931640625,-0.13995361328125
1663860783823812400,3.306812255859375,0.121185302734375,0.099029541015625,-0.29229736328125
1663860783833669400,3.31666943359375,0.0125274658203125,0.3994293212890625,-0.3104095458984375
1663860783843557000,3.32655712890625,-0.2282257080078125,0.7680206298828125,-0.300811767578125
1663860783853444900,3.33644482421875,-0.562713623046875,0.8287353515625,-0.4126739501953125
1663860783863332600,3.34633251953125,-0.93023681640625,0.4505615234375,-0.6853790283203125
1663860783873220000,3.35622021484375,-1.2423553466796875,-0.1182861328125,-1.1050872802734375
1663860783883107800,3.36610791015625,-1.4010772705078125,-0.434661865234375,-1.5865936279296875
1663860783892995600,3.37599560546875,-1.3478240966796875,-0.5007171630859375,-2.081939697265625
1663860783902852900,3.385852783203125,-1.0484771728515625,-0.7521209716796875,-2.740264892578125
1663860783912740400,3.395740234375,-0.5137176513671875,-1.188873291015625,-3.4880828857421875
1663860783922628000,3.405628173828125,0.0881500244140625,-1.0258941650390625,-3.9546661376953125
1663860783932515800,3.415515869140625,0.553680419921875,0.1533660888671875,-3.88116455078125
1663860783942403600,3.425403564453125,0.6399688720703125,1.227142333984375,-3.54986572265625
1663860783952291300,3.435291259765625,0.5877685546875,1.4519195556640625,-3.2718353271484375
1663860783962178800,3.4451787109375,0.6847076416015625,1.32940673828125,-3.0790252685546875
1663860783972066600,3.455066650390625,0.6175994873046875,1.081207275390625,-3.0097808837890625
1663860783981923800,3.464923828125,0.21173095703125,0.37066650390625,-3.0321502685546875
1663860783991811600,3.4748115234375,-0.2772369384765625,-0.6114959716796875,-3.08221435546875
1663860784001729800,3.484729736328125,-0.7438201904296875,-1.2527923583984375,-3.1237640380859375
1663860784011586800,3.4945869140625,-1.17950439453125,-1.2506561279296875,-3.1844940185546875
1663860784021474600,3.504474609375,-1.5555419921875,-0.8522491455078125,-3.2856903076171875
1663860784031362300,3.5143623046875,-1.8399658203125,-0.6722259521484375,-3.34747314453125
1663860784041250000,3.52425,-1.969940185546875,-0.8746185302734375,-3.276092529296875
1663860784051137800,3.5341376953125,-1.8719329833984375,-1.2304229736328125,-3.1195068359375
1663860784060994800,3.543994873046875,-1.6290435791015625,-1.5404052734375,-2.890472412109375
1663860784070913000,3.5539130859375,-1.30841064453125,-1.8887481689453125,-2.6784820556640625
1663860784080800800,3.56380078125,-0.9589996337890625,-2.114593505859375,-2.524017333984375
1663860784090688500,3.5736884765625,-0.7288970947265625,-2.0410919189453125,-2.4036407470703125
1663860784100545500,3.583545654296875,-0.6522064208984375,-1.940948486328125,-2.3280181884765625
1663860784110433300,3.593433349609375,-0.6607208251953125,-1.9356231689453125,-2.2236175537109375
1663860784120290600,3.60329052734375,-0.6937408447265625,-2.031494140625,-2.0403900146484375
1663860784130208800,3.613208740234375,-0.71185302734375,-2.124176025390625,-1.797515869140625
1663860784140096500,3.623096435546875,-0.7097320556640625,-2.113525390625,-1.522674560546875
1663860784149984000,3.63298388671875,-0.7299652099609375,-2.0037994384765625,-1.257415771484375
1663860784159871700,3.642871826171875,-0.7661895751953125,-1.8195037841796875,-1.0358428955078125
1663860784169759500,3.652759521484375,-0.783233642578125,-1.611785888671875,-0.827056884765625
1663860784179647200,3.662647216796875,-0.80560302734375,-1.4019317626953125,-0.577789306640625
1663860784189535000,3.672534912109375,-0.8002777099609375,-1.2421417236328125,-0.2741851806640625
1663860784199392000,3.68239208984375,-0.7608642578125,-1.1846160888671875,0.072021484375
1663860784209279700,3.69227978515625,-0.7214508056640625,-1.179290771484375,0.44061279296875
1663860784219167500,3.70216748046875,-0.68841552734375,-1.153717041015625,0.8198394775390625
1663860784229055200,3.71205517578125,-0.656463623046875,-1.0780792236328125,1.2075958251953125
1663860784238912300,3.721912353515625,-0.658599853515625,-0.9236297607421875,1.5942840576171875
1663860784248800000,3.731800048828125,-0.67669677734375,-0.6796722412109375,1.9511566162109375
1663860784258687700,3.741687744140625,-0.670318603515625,-0.427215576171875,2.2377166748046875
1663860784268575500,3.751575439453125,-0.5850982666015625,-0.2354583740234375,2.4337158203125
1663860784278463200,3.761463134765625,-0.407196044921875,-0.138519287109375,2.458221435546875
1663860784288350700,3.771350830078125,-0.1813507080078125,-0.2258758544921875,2.274993896484375
1663860784298238500,3.781238525390625,-0.0119781494140625,-0.471954345703125,2.0523529052734375
1663860784308126200,3.791126220703125,0.1126556396484375,-0.8096466064453125,1.6038818359375
1663860784318014000,3.801013916015625,0.1147918701171875,-1.442413330078125,0.2200927734375
1663860784327901700,3.810901611328125,0.11798095703125,-2.1614532470703125,-1.7879180908203125
1663860784337789200,3.8207890625,0.335296630859375,-1.6831512451171875,-2.9075164794921875
1663860784347646500,3.830646484375,0.1563262939453125,-1.1153717041015625,-2.994873046875
1663860784357534200,3.8405341796875,-0.3890838623046875,-1.0780792236328125,-2.664642333984375
1663860784367391200,3.85039111328125,-0.7747039794921875,-1.5148468017578125,-2.1085662841796875
1663860784377309400,3.860309326171875,-0.8918914794921875,-2.0389556884765625,-1.6270751953125
1663860784387197200,3.870197265625,-0.6649932861328125,-1.0450592041015625,-0.75567626953125
1663860784397085000,3.8800849609375,-0.3944091796875,1.2420654296875,0.895477294921875
1663860784406972700,3.88997265625,0.119049072265625,2.1560516357421875,1.9170684814453125
1663860784416829700,3.89982958984375,0.8540802001953125,1.37628173828125,0.6259613037109375
1663860784426687000,3.90968701171875,0.8423614501953125,-0.039459228515625,-2.1650238037109375
1663860784436605200,3.919605224609375,0.027435302734375,-0.3281402587890625,-2.9330902099609375
1663860784446493000,3.929492919921875,-0.5691070556640625,-0.0863189697265625,-1.045440673828125
1663860784456380700,3.939380615234375,-0.9025421142578125,-1.01629638671875,0.32342529296875
1663860784466237700,3.94923779296875,-0.9696502685546875,-2.2147216796875,0.68988037109375
1663860784476125400,3.95912548828125,-0.5233001708984375,-2.817657470703125,0.34686279296875
1663860784485982700,3.968982666015625,-0.0567169189453125,-0.800048828125,0.460845947265625
1663860784495901000,3.97890087890625,-0.1142425537109375,2.8314361572265625,2.1311798095703125
1663860784505788700,3.98878857421875,-0.2175750732421875,4.5092315673828125,3.3924560546875
1663860784515645700,3.998645751953125,-0.0098419189453125,4.1662139892578125,3.1570281982421875
1663860784525564000,4.00856396484375,0.3779144287109375,2.867645263671875,2.5551605224609375
1663860784535451600,4.01845166015625,0.6921539306640625,1.0524444580078125,2.489105224609375
1663860784545339400,4.02833935546875,0.7198638916015625,-0.4058990478515625,2.8704833984375
1663860784555227100,4.03822705078125,0.417327880859375,-0.9768829345703125,3.0899200439453125
1663860784565114600,4.048114501953125,0.1137237548828125,-0.99713134765625,2.9557037353515625
1663860784575002400,4.05800244140625,0.06365966796875,-0.676483154296875,2.6574249267578125
1663860784584890000,4.06789013671875,0.2170562744140625,-0.1182861328125,2.3825836181640625
1663860784594777900,4.07777783203125,0.3970794677734375,0.4015655517578125,2.204681396484375
1663860784604665600,4.08766552734375,0.4908294677734375,0.5815887451171875,2.1418304443359375
1663860784614553000,4.097552978515625,0.5238494873046875,0.4814605712890625,2.2121429443359375
1663860784624380000,4.1073798828125,0.5259857177734375,0.2311248779296875,2.368743896484375
1663860784634267600,4.117267578125,0.4780426025390625,0.0361785888671875,2.573272705078125
1663860784644155100,4.127155029296875,0.36724853515625,0.237518310546875,2.7682037353515625
1663860784654012400,4.137012451171875,0.2404937744140625,0.761627197265625,2.9077606201171875
1663860784663930600,4.1469306640625,0.1467437744140625,1.31024169921875,2.9983062744140625
1663860784673818400,4.156818359375,0.053009033203125,1.8045196533203125,3.0132293701171875
1663860784683706000,4.1667060546875,-0.0354156494140625,2.0878753662109375,2.94610595703125
1663860784693563100,4.176563232421875,-0.0492706298828125,2.1006622314453125,2.80975341796875
1663860784703420400,4.18642041015625,0.029571533203125,1.9046478271484375,2.582855224609375
1663860784713338600,4.196338623046875,0.20745849609375,1.6457977294921875,2.197235107421875
1663860784723226400,4.206226318359375,0.424774169921875,1.4306182861328125,1.7114715576171875
1663860784733114000,4.216114013671875,0.6506195068359375,1.0758819580078125,1.257659912109375
1663860784742971100,4.22597119140625,0.8327789306640625,0.484649658203125,0.9359588623046875
1663860784752889300,4.235889404296875,0.904144287109375,-0.082061767578125,0.80279541015625
1663860784762746600,4.24574658203125,0.8519439697265625,-0.3057708740234375,0.8709716796875
1663860784772634400,4.25563427734375,0.7411651611328125,-0.0447845458984375,1.1266326904296875
1663860784782491400,4.265491455078125,0.61865234375,0.500640869140625,1.4611358642578125
1663860784792409600,4.27540966796875,0.4524688720703125,0.952301025390625,1.704010009765625
1663860784802297300,4.28529736328125,0.2980194091796875,1.1227569580078125,1.7466278076171875
1663860784812154600,4.295154541015625,0.245819091796875,1.0279388427734375,1.5367584228515625
1663860784822042000,4.3050419921875,0.3097381591796875,0.747772216796875,1.123443603515625
1663860784831929900,4.314929931640625,0.3981475830078125,0.4452362060546875,0.6813507080078125
1663860784841817600,4.324817626953125,0.38323974609375,0.3195343017578125,0.3745574951171875
1663860784851675000,4.3346748046875,0.21917724609375,0.4388427734375,0.2946624755859375
1663860784861562400,4.344562255859375,0.0072021484375,0.5325927734375,0.3489990234375
1663860784871450000,4.3544501953125,-0.0822906494140625,0.3759918212890625,0.3021240234375
1663860784881368300,4.364368408203125,-0.04180908203125,0.0148773193359375,0.05072021484375
1663860784891225600,4.3742255859375,-0.0460662841796875,-0.3174896240234375,-0.2848358154296875
1663860784901143800,4.384143798828125,-0.2186431884765625,-0.335601806640625,-0.5383758544921875
1663860784911000800,4.394000732421875,-0.4806976318359375,0.0052947998046875,-0.6448974609375
1663860784920858000,4.403858154296875,-0.7789764404296875,0.4910430908203125,-0.6715240478515625
1663860784930776300,4.4137763671875,-1.0836334228515625,0.7009124755859375,-0.8121490478515625
1663860784940664000,4.4236640625,-1.2828369140625,0.3099517822265625,-1.1764678955078125
1663860784950551800,4.4335517578125,-1.32757568359375,-0.4186859130859375,-1.70269775390625
1663860784960439600,4.443439453125,-1.2764434814453125,-0.7702178955078125,-2.2715606689453125
1663860784970296600,4.453296630859375,-1.0708465576171875,-0.7744903564453125,-2.911773681640625
1663860784980214800,4.46321484375,-0.6724395751953125,-0.905517578125,-3.4870147705078125
1663860784990072000,4.473072021484375,-0.2623138427734375,-0.81390380859375,-3.759735107421875
1663860784999929000,4.48292919921875,-0.0439300537109375,-0.1342620849609375,-3.675567626953125
1663860785009847300,4.492847412109375,0.00506591796875,0.6167449951171875,-3.3634490966796875
1663860785019735000,4.502735107421875,0.0807037353515625,1.0162200927734375,-3.128021240234375
1663860785029592300,4.51259228515625,0.3544769287109375,1.2921295166015625,-3.1152496337890625
1663860785039510500,4.522510498046875,0.6356964111328125,1.5616455078125,-3.210052490234375
1663860785049398300,4.532398193359375,0.5366363525390625,1.5659027099609375,-3.2739715576171875
1663860785059285800,4.54228564453125,0.1147918701171875,0.8479156494140625,-3.233489990234375
1663860785069173500,4.552173583984375,-0.3571319580078125,-0.3739471435546875,-3.1951446533203125
1663860785079061200,4.562061279296875,-0.818389892578125,-0.93853759765625,-3.3740997314453125
1663860785088949000,4.571948974609375,-1.295623779296875,-0.9758148193359375,-3.67877197265625
1663860785098836700,4.581836669921875,-1.7014923095703125,-0.928955078125,-3.82684326171875
1663860785108693800,4.59169384765625,-1.946502685546875,-0.9236297607421875,-3.6382904052734375
1663860785118581500,4.60158154296875,-2.034912109375,-1.07275390625,-3.2260284423828125
1663860785128469200,4.61146923828125,-1.9507598876953125,-1.22296142578125,-2.85638427734375
1663860785138357000,4.62135693359375,-1.7196044921875,-1.5958099365234375,-2.619903564453125
1663860785148244700,4.63124462890625,-1.3254547119140625,-2.0155181884765625,-2.444122314453125
1663860785158132200,4.64113232421875,-0.98455810546875,-2.258392333984375,-2.273681640625
1663860785168020000,4.65102001953125,-0.780029296875,-2.28289794921875,-2.1426544189453125
1663860785177907700,4.66090771484375,-0.6394195556640625,-2.14654541015625,-2.0244140625
1663860785187795500,4.67079541015625,-0.586151123046875,-1.950531005859375,-1.8912506103515625
1663860785197683200,4.68068310546875,-0.5840301513671875,-1.940948486328125,-1.692047119140625
1663860785207570700,4.69057080078125,-0.5691070556640625,-2.001678466796875,-1.4619598388671875
1663860785217428000,4.700427978515625,-0.5925445556640625,-1.9356231689453125,-1.23931884765625
1663860785227315700,4.710315673828125,-0.63623046875,-1.6639862060546875,-1.0369110107421875
1663860785237203500,4.720203369140625,-0.635162353515625,-1.414703369140625,-0.8441009521484375
1663860785247091000,4.730091064453125,-0.61279296875,-1.1931304931640625,-0.6363677978515625
1663860785256978700,4.739978759765625,-0.6085205078125,-0.937469482421875,-0.3764495849609375
1663860785266866400,4.749866455078125,-0.576568603515625,-0.79046630859375,-0.049407958984375
1663860785276723700,4.7597236328125,-0.52117919921875,-0.765960693359375,0.3202362060546875
1663860785286611200,4.769611083984375,-0.4689788818359375,-0.7404022216796875,0.7079925537109375
1663860785296499000,4.7794990234375,-0.451934814453125,-0.68499755859375,1.11065673828125
1663860785306356200,4.789356201171875,-0.463653564453125,-0.59552001953125,1.532501220703125
1663860785316244000,4.799243896484375,-0.5009307861328125,-0.4559783935546875,1.978851318359375
1663860785326131500,4.80913134765625,-0.5392913818359375,-0.219482421875,2.42413330078125
1663860785336019200,4.819019287109375,-0.5488739013671875,0.0383148193359375,2.7916412353515625
1663860785345907000,4.828906982421875,-0.520111083984375,0.20343017578125,3.0228118896484375
1663860785355794700,4.838794677734375,-0.4647216796875,0.200225830078125,3.06329345703125
1663860785365682400,4.848682373046875,-0.4370269775390625,-0.1012420654296875,2.8161468505859375
1663860785375570200,4.858570068359375,-0.461517333984375,-0.4549102783203125,2.2813873291015625
1663860785385457700,4.868457763671875,-0.46044921875,-0.4889984130859375,1.4696502685546875
1663860785395315000,4.87831494140625,-0.2633819580078125,-0.6221466064453125,0.2829437255859375
1663860785405202700,4.88820263671875,0.1978759765625,-0.756378173828125,-1.285125732421875
1663860785415059700,4.898059814453125,0.4652557373046875,-0.47088623046875,-2.5197601318359375
1663860785424978000,4.90797802734375,0.0199737548828125,-1.0035247802734375,-3.01617431640625
1663860785434865700,4.91786572265625,-0.4093170166015625,-1.6511993408203125,-2.83294677734375
1663860785444753400,4.92775341796875,-0.5467376708984375,-1.79608154296875,-2.238525390625
1663860785454641200,4.93764111328125,-0.576568603515625,-1.736419677734375,-1.5759429931640625
1663860785464498200,4.947498291015625,-0.2388763427734375,-0.92681884765625,-0.573516845703125
1663860785474386000,4.957385986328125,0.1744384765625,0.728607177734375,0.8795013427734375
1663860785484243200,4.9672431640625,0.6932220458984375,1.93768310546875,1.4462127685546875
1663860785494161400,4.977161376953125,1.3515625,1.8812255859375,0.0134429931640625
1663860785504049200,4.987049072265625,0.9361114501953125,-0.323883056640625,-2.880889892578125
1663860785513936600,4.9969365234375,-0.442352294921875,-0.9662322998046875,-3.0928802490234375
1663860785523824400,5.006824462890625,-1.31585693359375,0.145904541015625,-0.5010833740234375
1663860785533712100,5.016712158203125,-1.601348876953125,-0.1321258544921875,1.315185546875
1663860785543599900,5.026599853515625,-1.410675048828125,-1.0184326171875,1.9937591552734375
1663860785553487600,5.036487548828125,-0.7555389404296875,-2.2615966796875,1.15753173828125
1663860785563375000,5.046375,-0.152587890625,-0.9129638671875,0.58868408203125
1663860785573262800,5.056262939453125,0.050872802734375,3.0913543701171875,2.469940185546875
1663860785583120100,5.0661201171875,0.1861572265625,4.9065704345703125,4.0902099609375
1663860785593007900,5.0760078125,0.471649169921875,4.30682373046875,4.01031494140625
1663860785602895600,5.0858955078125,0.8210601806640625,2.7142486572265625,3.3455810546875
1663860785612783000,5.095783203125,0.90521240234375,0.989593505859375,2.937591552734375
1663860785622670800,5.1056708984375,0.53875732421875,0.1949005126953125,2.808685302734375
1663860785632558600,5.11555859375,0.0540618896484375,0.1991729736328125,2.5977630615234375
1663860785642446300,5.1254462890625,-0.2303619384765625,0.0702667236328125,2.3016204833984375
1663860785652303400,5.135303466796875,-0.2079925537109375,0.052154541015625,2.101348876953125
1663860785662191000,5.145191162109375,-0.040740966796875,0.484649658203125,2.093902587890625
1663860785672078800,5.155078857421875,0.1265106201171875,1.0417938232421875,2.2547607421875
1663860785681966600,5.164966552734375,0.269256591796875,1.276153564453125,2.4656829833984375
1663860785691823600,5.17482373046875,0.417327880859375,1.137664794921875,2.6904449462890625
1663860785701681000,5.184680908203125,0.574981689453125,0.90863037109375,2.8747406005859375
1663860785711599000,5.19459912109375,0.690032958984375,0.8457794189453125,2.968475341796875
1663860785721456400,5.204456298828125,0.71026611328125,1.0726776123046875,3.029205322265625
1663860785731344000,5.21434375,0.584564208984375,1.455108642578125,3.0899200439453125
1663860785741231600,5.224231689453125,0.347015380859375,2.023956298828125,3.1154937744140625
1663860785751119400,5.234119384765625,0.037017822265625,2.5320892333984375,3.0771331787109375
1663860785760976600,5.2439765625,-0.2772369384765625,2.6918792724609375,2.9865875244140625
1663860785770864000,5.253864013671875,-0.4466094970703125,2.5225067138671875,2.77459716796875
1663860785780782300,5.2637822265625,-0.374176025390625,2.1326141357421875,2.364471435546875
1663860785790639600,5.2736396484375,-0.0684356689453125,1.675628662109375,1.8350372314453125
1663860785800557800,5.283557861328125,0.2948150634765625,1.1898651123046875,1.408935546875
1663860785810445600,5.293445556640625,0.5483551025390625,0.6455078125,1.1149139404296875
1663860785820333300,5.303333251953125,0.643157958984375,0.235382080078125,0.9061279296875
1663860785830190300,5.3131904296875,0.60693359375,0.10009765625,0.825164794921875
1663860785840047600,5.323047607421875,0.4982757568359375,0.2652130126953125,0.930633544921875
1663860785849935400,5.332935302734375,0.3203887939453125,0.5709381103515625,1.189483642578125
1663860785859823000,5.342822998046875,0.130767822265625,0.7882537841796875,1.5026702880859375
1663860785869741300,5.3527412109375,0.0263671875,0.7797393798828125,1.73809814453125
1663860785879628800,5.36262890625,0.0498046875,0.580535888671875,1.7764434814453125
1663860785889516500,5.3725166015625,0.2596588134765625,0.3461761474609375,1.6273193359375
1663860785899404300,5.382404296875,0.4780426025390625,0.2534942626953125,1.327972412109375
1663860785909292000,5.3922919921875,0.492950439453125,0.305694580078125,1.0158538818359375
1663860785919179800,5.4021796875,0.380035400390625,0.443115234375,0.836883544921875
1663860785929067300,5.4120673828125,0.187225341796875,0.726470947265625,0.7292938232421875
1663860785938955000,5.421955078125,-0.0130462646484375,0.9704132080078125,0.6632537841796875
1663860785948812300,5.431812255859375,-0.153656005859375,0.9512481689453125,0.6057281494140625
1663860785958700000,5.441699951171875,-0.200531005859375,0.6508331298828125,0.5087890625
1663860785968587500,5.45158740234375,-0.165374755859375,0.2534942626953125,0.371368408203125
1663860785978475300,5.461475341796875,-0.1611175537109375,-0.0522308349609375,0.1817474365234375
1663860785988363000,5.471363037109375,-0.294281005859375,-0.0319976806640625,-0.049407958984375
1663860785998250800,5.481250732421875,-0.5499420166015625,0.4015655517578125,-0.25714111328125
1663860786008107800,5.491107666015625,-0.862060546875,0.886260986328125,-0.5277099609375
1663860786017995500,5.50099560546875,-1.1986846923828125,1.043914794921875,-0.8824462890625
1663860786027883300,5.51088330078125,-1.3936309814453125,0.9267425537109375,-1.3469085693359375
1663860786037771000,5.52077099609375,-1.4021453857421875,0.7275390625,-1.9296112060546875
1663860786047658800,5.53065869140625,-1.2412872314453125,0.5943756103515625,-2.4270782470703125
1663860786057546200,5.540546142578125,-0.9004058837890625,0.508087158203125,-2.8191070556640625
1663860786067434000,5.55043408203125,-0.4295654296875,0.3770599365234375,-3.2750396728515625
1663860786077321700,5.56032177734375,0.053009033203125,0.290771484375,-3.745880126953125
1663860786087209500,5.57020947265625,0.401336669921875,0.2417755126953125,-3.860931396484375
1663860786097066800,5.580066650390625,0.6037445068359375,0.484649658203125,-3.792755126953125
1663860786106954200,5.589954345703125,0.90521240234375,0.88519287109375,-3.7991485595703125
1663860786116842000,5.599842041015625,1.2056121826171875,1.2367401123046875,-3.9099273681640625
1663860786126729700,5.609729736328125,1.2514190673828125,1.626617431640625,-4.0388336181640625
1663860786136617500,5.619617431640625,1.0255889892578125,1.94512939453125,-4.19329833984375
1663860786146474500,5.629474609375,0.64422607421875,1.7267608642578125,-4.2295074462890625
1663860786156362200,5.6393623046875,0.1115875244140625,1.0843963623046875,-4.0718536376953125
1663860786166250000,5.64925,-0.4370269775390625,0.350433349609375,-3.8172607421875
1663860786176137700,5.6591376953125,-0.7992095947265625,-0.255706787109375,-3.632965087890625
1663860786186025500,5.669025390625,-1.0133209228515625,-0.411224365234375,-3.4880828857421875
1663860786195913000,5.678912841796875,-1.1848297119140625,-0.23333740234375,-3.2611846923828125
1663860786205800700,5.68880078125,-1.3254547119140625,-0.183258056640625,-2.96185302734375
1663860786215688400,5.6986884765625,-1.3648681640625,-0.389923095703125,-2.6891326904296875
1663860786225576200,5.708576171875,-1.3105316162109375,-0.7031097412109375,-2.5314788818359375
1663860786235464000,5.7184638671875,-1.22637939453125,-0.869293212890625,-2.4451904296875
1663860786245351400,5.728351318359375,-1.064453125,-0.890594482421875,-2.42388916015625
1663860786255208700,5.738208740234375,-0.814117431640625,-1.0684967041015625,-2.4047088623046875
1663860786265096400,5.748096435546875,-0.5797576904296875,-1.3305511474609375,-2.308837890625
1663860786274984200,5.757984130859375,-0.5691070556640625,-1.4924774169921875,-2.068084716796875
1663860786284871700,5.76787158203125,-0.6085205078125,-1.564910888671875,-1.7357330322265625
1663860786294759400,5.777759521484375,-0.611724853515625,-1.6458740234375,-1.3596954345703125
1663860786304647200,5.787647216796875,-0.6085205078125,-1.6650543212890625,-1.045440673828125
1663860786314535000,5.797534912109375,-0.63623046875,-1.5755615234375,-0.80682373046875
1663860786324392200,5.80739208984375,-0.644744873046875,-1.415771484375,-0.5607452392578125
1663860786334279700,5.81727978515625,-0.623443603515625,-1.179290771484375,-0.2646026611328125
1663860786344167400,5.82716748046875,-0.6074676513671875,-0.9087066650390625,0.0709686279296875
1663860786354055200,5.83705517578125,-0.5936126708984375,-0.6573028564453125,0.44805908203125
1663860786363943000,5.84694287109375,-0.58721923828125,-0.48046875,0.8422088623046875
1663860786373830700,5.85683056640625,-0.61279296875,-0.36541748046875,1.21612548828125
1663860786383718100,5.86671826171875,-0.6553955078125,-0.278076171875,1.5729827880859375
1663860786393575400,5.876575439453125,-0.70013427734375,-0.1885833740234375,1.9245147705078125
1663860786403463200,5.886463134765625,-0.72357177734375,-0.1214752197265625,2.2675323486328125
1663860786413320200,5.8963203125,-0.70440673828125,-0.12786865234375,2.5977630615234375
1663860786423208000,5.9062080078125,-0.6372833251953125,-0.23333740234375,2.8832550048828125
1663860786433095700,5.916095703125,-0.52862548828125,-0.4975128173828125,2.93865966796875
1663860786442953000,5.925952880859375,-0.4583282470703125,-0.7297515869140625,2.5114898681640625
1663860786452871200,5.93587109375,-0.348602294921875,-0.5561065673828125,1.51226806640625
1663860786462758700,5.945758544921875,-0.0982666015625,0.0020904541015625,0.247802734375
1663860786472646400,5.955646484375,0.3416900634765625,0.3227386474609375,-1.053955078125
1663860786482534100,5.9655341796875,0.608001708984375,-0.197113037109375,-2.580474853515625
1663860786492422000,5.975421875,0.165924072265625,-1.3422698974609375,-3.644683837890625
1663860786502309600,5.9853095703125,-0.31451416015625,-2.2115325927734375,-3.7192535400390625
1663860786512197000,5.995197021484375,-0.5052032470703125,-2.46826171875,-3.1152496337890625
1663860786522084900,6.0050849609375,-0.611724853515625,-2.22430419921875,-2.2907257080078125
1663860786531972600,6.01497265625,-0.5382232666015625,-1.8173828125,-1.454498291015625
1663860786541860400,6.0248603515625,-0.0865478515625,-0.84906005859375,-0.3785858154296875
1663860786551717600,6.034717529296875,0.105194091796875,0.7882537841796875,0.801727294921875
1663860786561605000,6.044605224609375,0.1914825439453125,2.082550048828125,1.405731201171875
1663860786571492900,6.054492919921875,0.5057373046875,2.812255859375,0.8645782470703125
1663860786581380600,6.064380615234375,0.756072998046875,2.1326141357421875,-0.68963623046875
1663860786591238000,6.07423779296875,0.413055419921875,0.4473724365234375,-1.045440673828125
1663860786601095000,6.084094970703125,-0.3677825927734375,0.1171417236328125,0.0592498779296875
1663860786610982700,6.093982666015625,-0.86419677734375,0.2300567626953125,0.6334228515625
1663860786620870400,6.103870361328125,-0.7672576904296875,-0.199249267578125,0.5023956298828125
1663860786630758100,6.113758056640625,-0.34967041015625,-0.7371978759765625,0.1817474365234375
1663860786640645600,6.123645751953125,0.0199737548828125,-0.10870361328125,0.4991912841796875
1663860786650533400,6.133533447265625,0.1233062744140625,1.5446014404296875,1.54315185546875
1663860786660421000,6.143421142578125,0.1318359375,3.0040130615234375,2.376190185546875
1663860786670278400,6.1532783203125,0.1936187744140625,3.71453857421875,2.7501068115234375
1663860786680196600,6.163196533203125,0.243682861328125,3.544097900390625,2.8427734375
1663860786690053600,6.1730537109375,0.1552734375,2.7408905029296875,2.8875274658203125
1663860786699941400,6.18294140625,-0.042877197265625,1.8258209228515625,2.9770050048828125
1663860786709798700,6.192798583984375,-0.202667236328125,1.3592376708984375,3.02813720703125
1663860786719686100,6.20268603515625,-0.2964019775390625,1.3144989013671875,2.9290618896484375
1663860786729604400,6.212604248046875,-0.3081207275390625,1.5179595947265625,2.7415771484375
1663860786739492000,6.2224921875,-0.268707275390625,1.9430084228515625,2.5988311767578125
1663860786749379800,6.2323798828125,-0.223968505859375,2.371246337890625,2.528533935546875
1663860786759267600,6.242267578125,-0.1579132080078125,2.425567626953125,2.52532958984375
1663860786769155300,6.2521552734375,-0.0354156494140625,2.072967529296875,2.528533935546875
1663860786779043000,6.26204296875,0.121185302734375,1.6585845947265625,2.4837799072265625
1663860786788930600,6.2719306640625,0.2937469482421875,1.64898681640625,2.3943023681640625
1663860786798818300,6.281818359375,0.393890380859375,2.0878753662109375,2.331451416015625
1663860786808675600,6.291675537109375,0.3651275634765625,2.6386260986328125,2.37939453125
1663860786818563300,6.301563232421875,0.2841644287109375,3.1126708984375,2.5221405029296875
1663860786828450800,6.311450927734375,0.24261474609375,3.486572265625,2.6808624267578125
1663860786838338600,6.321338623046875,0.264984130859375,3.62078857421875,2.834259033203125
1663860786848226300,6.331226318359375,0.311859130859375,3.3992156982421875,2.947174072265625
1663860786858114000,6.341114013671875,0.30120849609375,3.1712493896484375,2.865142822265625
1663860786868001800,6.351001708984375,0.2404937744140625,3.0423583984375,2.56048583984375
1663860786877889300,6.36088916015625,0.1936187744140625,2.77923583984375,2.1098785400390625
1663860786887777000,6.370777099609375,0.2830963134765625,2.255126953125,1.633697509765625
1663860786897634300,6.38063427734375,0.5377044677734375,1.61810302734375,1.2406158447265625
1663860786907522000,6.39052197265625,0.7624664306640625,1.1089019775390625,0.94342041015625
1663860786917379000,6.400379150390625,0.8892364501953125,0.815948486328125,0.7729644775390625
1663860786927266800,6.410266845703125,0.8785858154296875,0.6764068603515625,0.872039794921875
1663860786937124000,6.4201240234375,0.7400970458984375,0.66680908203125,1.236358642578125
1663860786947011600,6.430011474609375,0.572845458984375,0.8937225341796875,1.646484375
1663860786956929800,6.4399296875,0.4428863525390625,1.2654876708984375,1.85101318359375
1663860786966817500,6.449817626953125,0.3534088134765625,1.5978546142578125,1.7221221923828125
1663860786976705300,6.459705322265625,0.27777099609375,1.694793701171875,1.2885589599609375
1663860786986593000,6.469593017578125,0.2255706787109375,1.47003173828125,0.7047882080078125
1663860786996480800,6.479480712890625,0.1552734375,1.1674957275390625,0.2254180908203125
1663860787006368500,6.489368408203125,0.017852783203125,1.128082275390625,0.026214599609375
1663860787016256000,6.499256103515625,-0.1398162841796875,1.3123626708984375,0.0432586669921875
1663860787026143700,6.509143798828125,-0.270843505859375,1.4487152099609375,0.1007843017578125
1663860787036031500,6.519031494140625,-0.3091888427734375,1.4156951904296875,0.1018524169921875
1663860787045919200,6.528919189453125,-0.2378082275390625,1.31768798828125,0.049652099609375
1663860787055807000,6.538806884765625,-0.1739044189453125,1.36456298828125,0.0006561279296875
1663860787065664000,6.5486640625,-0.1696319580078125,1.513702392578125,-0.0345001220703125
1663860787075551700,6.5585517578125,-0.2197113037109375,1.5776214599609375,-0.16766357421875
1663860787085439500,6.568439453125,-0.381622314453125,1.504119873046875,-0.4211883544921875
1663860787095327200,6.5783271484375,-0.6511383056640625,1.35284423828125,-0.6875
1663860787105214700,6.588214599609375,-0.8780364990234375,1.048187255859375,-0.9474334716796875
1663860787115102500,6.5981025390625,-0.886566162109375,0.7317962646484375,-1.25848388671875
1663860787124959700,6.607959716796875,-0.7779083251953125,0.691314697265625,-1.612152099609375
1663860787134847500,6.617847412109375,-0.623443603515625,0.69451904296875,-2.025482177734375
1663860787144735000,6.62773486328125,-0.418914794921875,0.500640869140625,-2.594329833984375
1663860787154622700,6.637622802734375,-0.1845550537109375,0.4452362060546875,-3.1812896728515625
1663860787164510500,6.647510498046875,0.0423431396484375,0.656158447265625,-3.5221710205078125
1663860787174398200,6.657398193359375,0.1861572265625,0.6572265625,-3.62017822265625
1663860787184286000,6.667285888671875,0.3502044677734375,0.3302001953125,-3.6947479248046875
1663860787194173400,6.67717333984375,0.5483551025390625,0.393035888671875,-3.84600830078125
1663860787204061200,6.687061279296875,0.7720489501953125,0.829803466796875,-3.95147705078125
1663860787213918500,6.69691845703125,0.8338470458984375,0.8489837646484375,-3.93975830078125
1663860787223806200,6.70680615234375,0.588836669921875,0.47613525390625,-4.0388336181640625
1663860787233694000,6.71669384765625,0.1382293701171875,0.1288604736328125,-4.21246337890625
1663860787243581400,6.72658154296875,-0.3315582275390625,-0.1768798828125,-4.202880859375
1663860787253469200,6.73646923828125,-0.6191864013671875,-0.290863037109375,-3.919525146484375
1663860787263357000,6.74635693359375,-0.783233642578125,-0.32281494140625,-3.5594635009765625
1663860787273244700,6.75624462890625,-0.9110565185546875,-0.436798095703125,-3.256927490234375
1663860787283101700,6.766101806640625,-0.93023681640625,-0.5656890869140625,-3.06304931640625
1663860787292989400,6.775989501953125,-0.8237152099609375,-0.655181884765625,-2.9522552490234375
1663860787302877200,6.785877197265625,-0.7299652099609375,-0.7052459716796875,-2.8372039794921875
1663860787312765000,6.795764892578125,-0.69268798828125,-0.7744903564453125,-2.7370758056640625
1663860787322652700,6.805652587890625,-0.65753173828125,-0.8181610107421875,-2.664642333984375
1663860787332540200,6.8155400390625,-0.6170501708984375,-0.81390380859375,-2.594329833984375
1663860787342428000,6.825427978515625,-0.5488739013671875,-0.803253173828125,-2.479278564453125
1663860787352315600,6.835315673828125,-0.4338226318359375,-0.777679443359375,-2.352508544921875
1663860787362173000,6.8451728515625,-0.3422088623046875,-0.8309478759765625,-2.159698486328125
1663860787372060400,6.855060302734375,-0.293212890625,-1.0216217041015625,-1.8497161865234375
1663860787381948200,6.8649482421875,-0.245269775390625,-1.2506561279296875,-1.485382080078125
1663860787391836000,6.8748359375,-0.18988037109375,-1.3774261474609375,-1.1753997802734375
1663860787401693200,6.884693115234375,-0.141937255859375,-1.3326873779296875,-0.9442291259765625
1663860787411580700,6.89458056640625,-0.1366119384765625,-1.1824798583984375,-0.723724365234375
1663860787421468400,6.904468505859375,-0.167510986328125,-0.952392578125,-0.4424896240234375
1663860787431356200,6.914356201171875,-0.199462890625,-0.744659423828125,-0.1037445068359375
1663860787441213400,6.92421337890625,-0.2271575927734375,-0.6455841064453125,0.268035888671875
1663860787451070500,6.934070556640625,-0.2537994384765625,-0.5923309326171875,0.65472412109375
1663860787460988700,6.94398876953125,-0.3070526123046875,-0.55291748046875,1.043548583984375
1663860787470876400,6.95387646484375,-0.3858795166015625,-0.5017852783203125,1.4355621337890625
1663860787480733700,6.963733642578125,-0.4657745361328125,-0.427215576171875,1.828643798828125
1663860787490621400,6.973621337890625,-0.529693603515625,-0.301513671875,2.2036285400390625
1663860787500539600,6.98353955078125,-0.5797576904296875,-0.175811767578125,2.5423736572265625
1663860787510396700,6.993396728515625,-0.58935546875,-0.1182861328125,2.8310546875
1663860787520284400,7.003284423828125,-0.5243682861328125,-0.2120208740234375,3.0025634765625
1663860787530172200,7.013172119140625,-0.4370269775390625,-0.4421234130859375,2.881134033203125
1663860787540060000,7.023059814453125,-0.3230438232421875,-0.5241546630859375,2.357025146484375
1663860787549917000,7.0329169921875,-0.1217041015625,0.167205810546875,1.546356201171875
1663860787559835100,7.042835205078125,0.116912841796875,1.26336669921875,0.5982666015625
1663860787569692400,7.0526923828125,0.516387939453125,1.2100982666015625,-0.860076904296875
1663860787579580200,7.062580078125,0.6516876220703125,-0.709503173828125,-2.707244873046875
1663860787589467600,7.072467529296875,0.1861572265625,-2.4586639404296875,-3.7863616943359375
1663860787599355400,7.08235546875,-0.1579132080078125,-2.8357696533203125,-3.7171173095703125
1663860787609243100,7.0922431640625,-0.336883544921875,-2.6653289794921875,-3.0247039794921875
1663860787619100400,7.102100341796875,-0.3762969970703125,-2.20513916015625,-2.2118988037109375
1663860787629018600,7.1120185546875,0.074310302734375,-1.2400054931640625,-1.066741943359375
1663860787638906000,7.121906005859375,0.539825439453125,0.1512298583984375,0.47576904296875
1663860787648763400,7.131763427734375,0.5142669677734375,1.023681640625,1.3545989990234375
1663860787658651100,7.141651123046875,0.485504150390625,1.1887969970703125,0.63555908203125
1663860787668539000,7.151538818359375,0.2980194091796875,1.3123626708984375,-0.8238677978515625
1663860787678426400,7.16142626953125,-0.0599212646484375,1.4391326904296875,-0.942108154296875
1663860787688314000,7.171314208984375,-0.340087890625,1.6660308837890625,-0.0430145263671875
1663860787698201900,7.181201904296875,-0.7054595947265625,1.299591064453125,0.688812255859375
1663860787708089600,7.191089599609375,-0.863128662109375,0.5709381103515625,1.0115966796875
1663860787717947000,7.20094677734375,-0.369903564453125,-0.4517059326171875,0.733551025390625
1663860787727834400,7.21083447265625,0.220245361328125,-0.858642578125,0.5865478515625
1663860787737691600,7.220691650390625,0.2628631591796875,0.876678466796875,1.593231201171875
1663860787747609900,7.23060986328125,0.029571533203125,3.0487518310546875,2.824676513671875
1663860787757497600,7.24049755859375,0.04022216796875,3.9723358154296875,3.252899169921875
1663860787767385300,7.25038525390625,0.21917724609375,3.7528839111328125,3.0664825439453125
1663860787777272800,7.26027294921875,0.3054656982421875,3.0306396484375,2.8193511962890625
1663860787787130000,7.270130126953125,0.300140380859375,2.0431365966796875,2.754364013671875
1663860787797017900,7.280017822265625,0.243682861328125,1.238861083984375,2.728790283203125
1663860787806905600,7.289905517578125,0.1584625244140625,0.9725494384765625,2.653167724609375
1663860787816762600,7.2997626953125,0.0668487548828125,1.047119140625,2.618011474609375
1663860787826650400,7.309650390625,0.0455474853515625,1.3038482666015625,2.5998992919921875
1663860787836568600,7.319568603515625,0.1020050048828125,1.686279296875,2.61907958984375
1663860787846425900,7.32942578125,0.1712493896484375,1.887603759765625,2.7149505615234375
1663860787856344000,7.339343994140625,0.26605224609375,1.8524627685546875,2.867279052734375
1663860787866201000,7.349201171875,0.3661956787109375,1.8034515380859375,2.9663543701171875
1663860787876088800,7.3590888671875,0.4109344482421875,1.671356201171875,2.9482421875
1663860787885976600,7.3689765625,0.43756103515625,1.6212921142578125,2.869415283203125
1663860787895864300,7.3788642578125,0.4333038330078125,1.6788177490234375,2.7820587158203125
1663860787905751800,7.388751708984375,0.3779144287109375,1.7991943359375,2.69683837890625
1663860787915609000,7.398609130859375,0.2980194091796875,2.0303497314453125,2.6222686767578125
1663860787925496800,7.408496826171875,0.2617950439453125,2.31158447265625,2.54876708984375
1663860787935415000,7.4184150390625,0.325714111328125,2.56512451171875,2.48272705078125
1663860787945302800,7.428302734375,0.4439544677734375,2.641815185546875,2.42413330078125
1663860787955190500,7.4381904296875,0.5366363525390625,2.526763916015625,2.2909698486328125
1663860787965047600,7.448047607421875,0.5579376220703125,2.3403472900390625,2.0161285400390625
1663860787974935300,7.457935302734375,0.5472869873046875,2.0900115966796875,1.6667327880859375
1663860787984823000,7.467822998046875,0.641021728515625,1.675628662109375,1.4270477294921875
1663860787994710800,7.477710693359375,0.793365478515625,1.100372314453125,1.306671142578125
1663860788004598300,7.487598388671875,0.8785858154296875,0.5443115234375,1.2257080078125
1663860788014455600,7.49745556640625,0.82745361328125,0.256683349609375,1.2310333251953125
1663860788024343300,7.50734326171875,0.7070770263671875,0.296112060546875,1.37164306640625
1663860788034231000,7.51723095703125,0.608001708984375,0.5741424560546875,1.6198577880859375
1663860788044118500,7.527118408203125,0.516387939453125,0.87347412109375,1.8467559814453125
1663860788054006300,7.53700634765625,0.4322357177734375,1.1131591796875,1.87872314453125
1663860788063894000,7.54689404296875,0.4109344482421875,1.28466796875,1.6187896728515625
1663860788073781800,7.55678173828125,0.4439544677734375,1.377349853515625,1.1191864013671875
1663860788083669500,7.56666943359375,0.4769744873046875,1.3379364013671875,0.5609893798828125
1663860788093557000,7.576556884765625,0.429046630859375,1.2250213623046875,0.1508636474609375
1663860788103444700,7.58644482421875,0.28948974609375,1.1749420166015625,-0.0099945068359375
1663860788113332500,7.59633251953125,0.1339569091796875,1.2239532470703125,-0.004669189453125
1663860788123189800,7.606189697265625,0.029571533203125,1.1909332275390625,0.040069580078125
1663860788133077200,7.6160771484375,-0.0471343994140625,0.9224853515625,0.0475311279296875
1663860788142965000,7.625965087890625,-0.095062255859375,0.6955718994140625,0.0656280517578125
1663860788152852700,7.635852783203125,-0.1291656494140625,0.886260986328125,0.10931396484375
1663860788162710000,7.6457099609375,-0.2175750732421875,1.2122344970703125,0.0805511474609375
1663860788172597800,7.65559765625,-0.3635101318359375,1.2559051513671875,-0.1229095458984375
1663860788182485200,7.6654853515625,-0.588287353515625,1.0833282470703125,-0.449951171875
1663860788192373000,7.675373046875,-0.8812408447265625,0.752044677734375,-0.7972259521484375
1663860788202260700,7.6852607421875,-1.03143310546875,0.2076873779296875,-1.1945648193359375
1663860788212148500,7.6951484375,-0.920654296875,-0.1342620849609375,-1.7101593017578125
1663860788222005500,7.705005615234375,-0.74700927734375,-0.0831298828125,-2.2459869384765625
1663860788231923700,7.714923828125,-0.5616607666015625,-0.0671539306640625,-2.65399169921875
1663860788241811500,7.7248115234375,-0.3411407470703125,-0.313232421875,-3.0204315185546875
1663860788251699200,7.73469921875,-0.1493988037109375,-0.6615753173828125,-3.311248779296875
1663860788261587000,7.7445869140625,-0.038604736328125,-0.7137603759765625,-3.3091278076171875
1663860788271474700,7.754474609375,-0.0023956298828125,-0.26422119140625,-3.1727752685546875
1663860788281331700,7.764331787109375,0.0498046875,0.3120880126953125,-3.212188720703125
1663860788291219500,7.774219482421875,0.2298431396484375,0.7765350341796875,-3.4326934814453125
1663860788301107200,7.784107177734375,0.4524688720703125,0.97894287109375,-3.710723876953125
1663860788310995000,7.793994873046875,0.4354248046875,0.4931793212890625,-3.9930267333984375
1663860788320882400,7.80388232421875,0.1083984375,-0.5348052978515625,-4.2082061767578125
1663860788330770200,7.813770263671875,-0.3230438232421875,-1.4562530517578125,-4.2529449462890625
1663860788340658000,7.823657958984375,-0.7075958251953125,-1.76837158203125,-4.1134033203125
1663860788350545700,7.833545654296875,-1.0335693359375,-1.508453369140625,-3.88543701171875
1663860788360433400,7.843433349609375,-1.2753753662109375,-1.1366729736328125,-3.6009979248046875
1663860788370290400,7.85329052734375,-1.373382568359375,-0.9342803955078125,-3.3304290771484375
1663860788380178200,7.86317822265625,-1.3115997314453125,-0.97369384765625,-3.10565185546875
1663860788390066000,7.87306591796875,-1.134765625,-1.09619140625,-2.9203033447265625
1663860788399923200,7.882923095703125,-0.950469970703125,-1.0706329345703125,-2.79034423828125
1663860788409810700,7.892810791015625,-0.851409912109375,-1.052520751953125,-2.7008514404296875
1663860788419698400,7.902698486328125,-0.748077392578125,-1.120697021484375,-2.63055419921875
1663860788429555700,7.9125556640625,-0.5701751708984375,-1.1377410888671875,-2.6220245361328125
1663860788439474000,7.922473876953125,-0.4135894775390625,-1.132415771484375,-2.582611083984375
1663860788449331000,7.9323310546875,-0.3560638427734375,-1.1814117431640625,-2.4164276123046875
1663860788459218700,7.94221875,-0.358184814453125,-1.2613067626953125,-2.1415863037109375
1663860788469076000,7.952075927734375,-0.3869476318359375,-1.3880767822265625,-1.8177490234375
1663860788478994200,7.961994140625,-0.3997344970703125,-1.5350799560546875,-1.4949798583984375
1663860788488882000,7.9718818359375,-0.3975982666015625,-1.6053924560546875,-1.236114501953125
1663860788498769400,7.981769287109375,-0.3890838623046875,-1.553192138671875,-1.03265380859375
1663860788508657200,7.9916572265625,-0.3880157470703125,-1.3880767822265625,-0.8227996826171875
1663860788518545000,8.001544921875,-0.416778564453125,-1.167572021484375,-0.5479583740234375
1663860788528432600,8.0114326171875,-0.45086669921875,-0.982208251953125,-0.2038726806640625
1663860788538320400,8.0213203125,-0.4593963623046875,-0.8959197998046875,0.178558349609375
1663860788548207900,8.031207763671874,-0.4444732666015625,-0.8533172607421875,0.589752197265625
1663860788558095600,8.041095703125,-0.451934814453125,-0.789398193359375,1.0350189208984375
1663860788567983400,8.0509833984375,-0.4934844970703125,-0.674346923828125,1.490966796875
1663860788577871000,8.06087109375,-0.553131103515625,-0.50604248046875,1.9245147705078125
1663860788587758800,8.0707587890625,-0.6170501708984375,-0.3323974609375,2.2931060791015625
1663860788597646600,8.080646484375,-0.66925048828125,-0.220550537109375,2.5626220703125
1663860788607503600,8.090503662109375,-0.67669677734375,-0.253570556640625,2.6797943115234375
1663860788617391400,8.100391357421875,-0.56805419921875,-0.399505615234375,2.592437744140625
1663860788627279000,8.110279052734375,-0.3102569580078125,-0.58380126953125,2.2792510986328125
1663860788637166800,8.120166748046875,-0.040740966796875,-0.735076904296875,1.6986846923828125
1663860788647054300,8.130054443359375,0.07537841796875,-0.974761962890625,0.700531005859375
1663860788656942000,8.139942138671875,0.1339569091796875,-1.141998291015625,-0.6970977783203125
1663860788666829800,8.149829833984375,0.21917724609375,-0.721221923828125,-1.957305908203125
1663860788676717600,8.159717529296875,-0.0162353515625,-0.6956634521484375,-2.5677032470703125
1663860788686574600,8.16957470703125,-0.3336944580078125,-1.0184326171875,-2.411102294921875
1663860788696462300,8.17946240234375,-0.5265045166015625,-1.4019317626953125,-1.8944549560546875
1663860788706350000,8.18935009765625,-0.6181182861328125,-2.0400238037109375,-1.5567626953125
1663860788716207400,8.199207275390625,-0.5115814208984375,-2.2466888427734375,-1.20416259765625
1663860788726094800,8.2090947265625,-0.3187713623046875,-1.1121826171875,-0.293365478515625
1663860788735982600,8.218982666015625,-0.290008544921875,0.864959716796875,1.1522064208984375
1663860788745870300,8.228870361328125,-0.06097412109375,1.89080810546875,2.0523529052734375
1663860788755758000,8.238758056640625,0.3640594482421875,2.2465972900390625,1.37164306640625
1663860788765645800,8.248645751953125,0.39068603515625,2.242340087890625,-0.47125244140625
1663860788775533300,8.258533203125,0.039154052734375,0.9160919189453125,-1.42999267578125
1663860788785421000,8.268421142578125,-0.130218505859375,-0.1459808349609375,-0.7727203369140625
1663860788795308800,8.278308837890625,-0.3890838623046875,-0.5923309326171875,0.0091705322265625
1663860788805196500,8.288196533203125,-0.5169219970703125,-1.2538604736328125,0.3777618408203125
1663860788815084300,8.298084228515625,-0.199462890625,-1.92071533203125,0.3734893798828125
1663860788824972000,8.307971923828125,0.189361572265625,-0.7137603759765625,0.5918731689453125
1663860788834829000,8.3178291015625,0.231964111328125,2.1901397705078125,1.7210540771484375
1663860788844716800,8.327716796875,0.116912841796875,4.3590240478515625,2.9098968505859375
1663860788854604500,8.3376044921875,0.130767822265625,4.765960693359375,3.231597900390625
1663860788864492300,8.3474921875,0.24261474609375,3.8572845458984375,3.0089569091796875
1663860788874379800,8.3573798828125,0.241546630859375,2.1805572509765625,2.845977783203125
1663860788884267500,8.367267578125,0.0380859375,0.6295318603515625,3.015350341796875
1663860788894155300,8.3771552734375,-0.202667236328125,-0.0543670654296875,3.1719512939453125
1663860788904012500,8.387012451171875,-0.2846832275390625,-0.1449127197265625,3.064361572265625
1663860788913869600,8.39686962890625,-0.214385986328125,0.136322021484375,2.832122802734375
1663860788923726800,8.406726806640625,-0.0833587646484375,0.6572265625,2.63824462890625
1663860788933645000,8.41664501953125,0.0913543701171875,1.137664794921875,2.5455780029296875
1663860788943532800,8.42653271484375,0.3321075439453125,1.412506103515625,2.49444580078125
1663860788953389800,8.436389892578125,0.5877685546875,1.27508544921875,2.4454345703125
1663860788963277600,8.446277587890625,0.8402252197265625,0.853240966796875,2.3751220703125
1663860788973165300,8.456165283203125,1.0586090087890625,0.5517730712890625,2.3239898681640625
1663860788983053000,8.466052978515625,1.090576171875,0.5933074951171875,2.3985595703125
1663860788992940500,8.4759404296875,0.9105377197265625,1.0183563232421875,2.5658111572265625
1663860789002828300,8.485828369140625,0.66339111328125,1.753387451171875,2.7298583984375
1663860789012716000,8.495716064453125,0.4215850830078125,2.33502197265625,2.9098968505859375
1663860789022603800,8.505603759765625,0.2607269287109375,2.4980010986328125,3.071807861328125
1663860789032491500,8.515491455078125,0.22344970703125,2.561920166015625,3.095245361328125
1663860789042379000,8.52537890625,0.25433349609375,2.550201416015625,2.88006591796875
1663860789052266800,8.535266845703125,0.2969512939453125,2.3797607421875,2.37939453125
1663860789062154500,8.545154541015625,0.40240478515625,2.103851318359375,1.750885009765625
1663860789072042200,8.555042236328125,0.621856689453125,1.6937255859375,1.281097412109375
1663860789081930000,8.564929931640625,0.87005615234375,1.1206207275390625,1.064849853515625
1663860789091817700,8.574817626953125,1.033050537109375,0.5208740234375,1.008392333984375
1663860789101705200,8.584705322265625,1.055419921875,0.10968017578125,1.0936126708984375
1663860789111593000,8.594593017578125,0.9467620849609375,0.1192779541015625,1.3194580078125
1663860789121480700,8.604480712890625,0.7869720458984375,0.5709381103515625,1.5836334228515625
1663860789131338000,8.614337890625,0.610137939453125,1.1642913818359375,1.7434234619140625
1663860789141195000,8.624195068359375,0.4546051025390625,1.5083770751953125,1.6965484619140625
1663860789151082800,8.634082763671875,0.357666015625,1.52435302734375,1.4131927490234375
1663860789160970500,8.643970458984375,0.3150634765625,1.3027801513671875,0.9466094970703125
1663860789170858200,8.653858154296875,0.2937469482421875,0.9267425537109375,0.470428466796875
1663860789180745700,8.663745849609375,0.2511444091796875,0.5517730712890625,0.189208984375
1663860789190633500,8.673633544921875,0.1723175048828125,0.30462646484375,0.1604461669921875
1663860789200521200,8.683521240234375,0.0849609375,0.14697265625,0.2062530517578125
1663860789210409000,8.693408935546875,0.0114593505859375,0.052154541015625,0.16790771484375
1663860789220296700,8.703296630859375,-0.0471343994140625,0.167205810546875,0.1018524169921875
1663860789230153700,8.71315380859375,-0.1035919189453125,0.566680908203125,0.0773468017578125
1663860789240041500,8.72304150390625,-0.2292938232421875,0.8873291015625,0.00811767578125
1663860789249929200,8.73292919921875,-0.451934814453125,0.85430908203125,-0.197479248046875
1663860789259817000,8.74281689453125,-0.6862945556640625,0.5837249755859375,-0.5575408935546875
1663860789269674000,8.752674072265625,-0.815185546875,0.1533660888671875,-1.065673828125
1663860789279561700,8.762561767578125,-0.780029296875,-0.2471771240234375,-1.626007080078125
1663860789289419000,8.7724189453125,-0.7427520751953125,-0.1694183349609375,-2.1117706298828125
1663860789299337200,8.782337158203125,-0.7416839599609375,0.1427001953125,-2.467559814453125
1663860789309225000,8.792224853515625,-0.64581298828125,0.09796142578125,-2.8191070556640625
1663860789319112400,8.802112548828125,-0.39227294921875,-0.222686767578125,-3.2505340576171875
1663860789328969700,8.8119697265625,-0.1728363037109375,-0.3419952392578125,-3.4539947509765625
1663860789338888000,8.821887939453125,-0.187744140625,0.0116729736328125,-3.279296875
1663860789348745200,8.8317451171875,-0.259124755859375,0.4505615234375,-3.08648681640625
1663860789358602200,8.841602294921875,-0.153656005859375,0.6263427734375,-3.185546875
1663860789368520400,8.8515205078125,0.1350250244140625,0.6156768798828125,-3.5136566162109375
1663860789378408200,8.861408203125,0.380035400390625,0.6881256103515625,-3.8875579833984375
1663860789388296000,8.8712958984375,0.3065338134765625,0.8244781494140625,-4.23590087890625
1663860789398183700,8.88118359375,-0.0449981689453125,0.5485687255859375,-4.363739013671875
1663860789408071200,8.8910712890625,-0.47430419921875,-0.3675537109375,-4.135772705078125
1663860789417959000,8.900958984375,-0.8130645751953125,-1.315643310546875,-3.724578857421875
1663860789427846700,8.9108466796875,-1.077239990234375,-1.454132080078125,-3.33575439453125
1663860789437734400,8.920734375,-1.36273193359375,-0.878875732421875,-3.0438690185546875
1663860789447622100,8.9306220703125,-1.638641357421875,-0.504974365234375,-2.8702392578125
1663860789457509600,8.940509521484374,-1.749420166015625,-0.768096923828125,-2.79034423828125
1663860789467397400,8.9503974609375,-1.6567535400390625,-1.0897979736328125,-2.7946014404296875
1663860789477285000,8.96028515625,-1.489501953125,-1.1611785888671875,-2.79779052734375
1663860789487172900,8.9701728515625,-1.3137359619140625,-1.1718292236328125,-2.7487945556640625
1663860789497030000,8.98002978515625,-1.099609375,-1.2378692626953125,-2.6678314208984375
1663860789506887200,8.98988720703125,-0.825836181640625,-1.3337554931640625,-2.561309814453125
1663860789516744400,8.999744384765625,-0.600006103515625,-1.38275146484375,-2.402587890625
1663860789526662700,9.00966259765625,-0.5009307861328125,-1.3529205322265625,-2.1660919189453125
1663860789536550400,9.01955029296875,-0.482818603515625,-1.362518310546875,-1.8465118408203125
1663860789546438000,9.02943798828125,-0.4764404296875,-1.4029998779296875,-1.485382080078125
1663860789556325600,9.03932568359375,-0.4700469970703125,-1.44879150390625,-1.1732635498046875
1663860789566213400,9.04921337890625,-0.4924163818359375,-1.5041961669921875,-0.9346466064453125
1663860789576101000,9.05910107421875,-0.5382232666015625,-1.5137786865234375,-0.734375
1663860789585988900,9.06898876953125,-0.58935546875,-1.4243011474609375,-0.5106658935546875
1663860789595876400,9.07887646484375,-0.6266326904296875,-1.254913330078125,-0.2283782958984375
1663860789605764000,9.08876416015625,-0.654327392578125,-1.097259521484375,0.1242218017578125
1663860789615651800,9.09865185546875,-0.6788330078125,-1.01629638671875,0.5279541015625
1663860789625539600,9.10853955078125,-0.7097320556640625,-1.0024566650390625,0.977508544921875
1663860789635427300,9.11842724609375,-0.7608642578125,-0.9896697998046875,1.4696502685546875
1663860789645284400,9.128284423828125,-0.8354339599609375,-0.927886962890625,1.9468994140625
1663860789655172000,9.138172119140625,-0.9014739990234375,-0.838409423828125,2.3580780029296875
1663860789665059800,9.148059814453125,-0.905731201171875,-0.7979278564453125,2.6552886962890625
1663860789674947600,9.157947509765625,-0.8237152099609375,-0.904449462890625,2.7256011962890625
1663860789684835000,9.1678349609375,-0.6596527099609375,-1.0930023193359375,2.4294586181640625
1663860789694722800,9.177722900390625,-0.416778564453125,-1.0450592041015625,1.7945556640625
1663860789704610600,9.187610595703125,-0.1568603515625,-0.620025634765625,0.9572601318359375
1663860789714467800,9.1974677734375,0.015716552734375,-0.596588134765625,-0.0771026611328125
1663860789724324900,9.207324951171875,0.2298431396484375,-0.9438629150390625,-1.3799285888671875
1663860789734212600,9.217212646484375,0.1499481201171875,-1.2176361083984375,-2.6103057861328125
1663860789744070000,9.22706982421875,-0.226104736328125,-1.60858154296875,-3.130157470703125
1663860789753988000,9.236988037109375,-0.346466064453125,-1.9910125732421875,-2.869171142578125
1663860789763875800,9.246875732421875,-0.4561920166015625,-2.2328338623046875,-2.2790069580078125
1663860789773763300,9.256763427734375,-0.6490020751953125,-2.297821044921875,-1.6313323974609375
1663860789783651000,9.266651123046875,-0.6404876708984375,-2.06878662109375,-0.9602203369140625
1663860789793538800,9.276538818359375,-0.430633544921875,-1.06103515625,-0.0813751220703125
1663860789803426600,9.286426513671875,-0.4892120361328125,0.4004974365234375,0.9817657470703125
1663860789813314300,9.296314208984375,-0.5797576904296875,1.3017120361328125,1.6976165771484375
1663860789823171300,9.30617138671875,-0.449798583984375,2.0079803466796875,1.612396240234375
1663860789833059000,9.31605908203125,-0.2090606689453125,2.5789642333984375,0.7388763427734375
1663860789842946800,9.32594677734375,0.154205322265625,2.1123809814453125,-0.3167877197265625
1663860789852834600,9.33583447265625,0.3992156982421875,0.592254638671875,-0.554351806640625
1663860789862722000,9.34572216796875,0.1339569091796875,-0.812835693359375,-0.2379608154296875
1663860789872609800,9.35560986328125,-0.087615966796875,-1.77264404296875,-0.0249176025390625
1663860789882497500,9.36549755859375,0.196807861328125,-2.1060638427734375,0.178558349609375
1663860789892385300,9.37538525390625,0.424774169921875,-0.8511810302734375,0.6834869384765625
1663860789902273000,9.38527294921875,0.404541015625,1.5083770751953125,1.588958740234375
1663860789912160500,9.395160400390624,0.2522125244140625,3.579254150390625,2.592437744140625
1663860789922048300,9.40504833984375,0.1914825439453125,4.535858154296875,3.208160400390625
1663860789931905500,9.414905517578125,0.24688720703125,4.2439727783203125,3.440399169921875
1663860789941793300,9.424793212890625,0.1680450439453125,3.1297149658203125,3.4883270263671875
1663860789951680800,9.4346806640625,-0.1270294189453125,1.7001190185546875,3.41802978515625
1663860789961568500,9.444568603515625,-0.426361083984375,0.64764404296875,3.28912353515625
1663860789971456300,9.454456298828125,-0.4700469970703125,0.350433349609375,3.0728759765625
1663860789981344000,9.464343994140625,-0.3667144775390625,0.5070343017578125,2.83319091796875
1663860789991231700,9.474231689453125,-0.2527313232421875,0.716888427734375,2.6691436767578125
1663860790001119500,9.484119384765625,-0.07269287109375,1.001312255859375,2.5391845703125
1663860790010976500,9.4939765625,0.1978759765625,1.262298583984375,2.44757080078125
1663860790020864300,9.5038642578125,0.4759063720703125,1.0758819580078125,2.4198760986328125
1663860790030752000,9.513751953125,0.7411651611328125,0.5038299560546875,2.4390411376953125
1663860790040639700,9.5236396484375,1.0245208740234375,0.3014373779296875,2.4294586181640625
1663860790050527200,9.53352734375,1.169403076171875,0.67852783203125,2.3964385986328125
1663860790060415000,9.5434150390625,1.07672119140625,1.3134307861328125,2.4496917724609375
1663860790070272300,9.553272216796875,0.8370361328125,1.9419403076171875,2.6318511962890625
1663860790080129300,9.56312939453125,0.5590057373046875,2.4553985595703125,2.8619537353515625
1663860790090017000,9.57301708984375,0.3874969482421875,2.72064208984375,3.0132293701171875
1663860790099904800,9.58290478515625,0.357666015625,2.788818359375,3.0206756591796875
1663860790109792500,9.59279248046875,0.3076019287109375,2.6950836181640625,2.845977783203125
1663860790119680300,9.60268017578125,0.2447509765625,2.49481201171875,2.425201416015625
1663860790129537300,9.612537353515625,0.28948974609375,2.3051910400390625,1.830780029296875
1663860790139455500,9.62245556640625,0.4993438720703125,2.0527191162109375,1.3237152099609375
1663860790149312800,9.632312744140625,0.74542236328125,1.605316162109375,1.055267333984375
1663860790159200500,9.642200439453125,0.917999267578125,0.9853363037109375,0.977508544921875
1663860790169088000,9.652087890625,0.99468994140625,0.419677734375,1.0478057861328125
1663860790178945300,9.6619453125,0.97552490234375,0.1863861083984375,1.2491455078125
1663860790188833000,9.6718330078125,0.8796539306640625,0.4345855712890625,1.5080108642578125
1663860790198751200,9.681751220703125,0.744354248046875,0.966156005859375,1.7114715576171875
1663860790208639000,9.691638916015625,0.5941619873046875,1.3571014404296875,1.7540740966796875
1663860790218526700,9.701526611328125,0.481231689453125,1.455108642578125,1.569793701171875
1663860790228383700,9.7113837890625,0.42584228515625,1.33367919921875,1.1841583251953125
1663860790238271500,9.721271484375,0.391754150390625,1.0854644775390625,0.6866912841796875
1663860790248159200,9.7311591796875,0.321441650390625,0.8223419189453125,0.27655029296875
1663860790258047000,9.741046875,0.1946868896484375,0.6540374755859375,0.10931396484375
1663860790267934500,9.7509345703125,0.08282470703125,0.519805908203125,0.10931396484375
1663860790277822200,9.760822265625,0.0338287353515625,0.2971649169921875,0.0922698974609375
1663860790287710000,9.7707099609375,0.00506591796875,0.0713348388671875,-0.0110626220703125
1663860790297567200,9.780567138671875,-0.0556488037109375,0.0958404541015625,-0.13995361328125
1663860790307454700,9.790454833984375,-0.210113525390625,0.4217987060546875,-0.2507476806640625
1663860790317342500,9.800342529296875,-0.5360870361328125,0.7797393798828125,-0.367919921875
1663860790327230200,9.810230224609375,-0.954742431640625,0.6859893798828125,-0.5820465087890625
1663860790337118000,9.820117919921875,-1.146484375,0.0947723388671875,-0.94317626953125
1663860790346975000,9.82997509765625,-1.0271759033203125,-0.610443115234375,-1.4246673583984375
1663860790356862700,9.83986279296875,-0.8897552490234375,-0.9119110107421875,-1.976470947265625
1663860790366750500,9.84975048828125,-0.7661895751953125,-0.719085693359375,-2.512298583984375
1663860790376638200,9.85963818359375,-0.4657745361328125,-0.530548095703125,-3.0811614990234375
1663860790386526000,9.86952587890625,-0.0332794189453125,-0.55078125,-3.5818328857421875
1663860790396383000,9.879383056640625,0.3395538330078125,-0.450653076171875,-3.703277587890625
1663860790406270700,9.889270751953125,0.4120025634765625,-0.0330657958984375,-3.471038818359375
1663860790416158500,9.899158447265625,0.2607269287109375,0.3546905517578125,-3.2047271728515625
1663860790426046200,9.909046142578125,0.264984130859375,0.5411224365234375,-3.128021240234375
1663860790435933700,9.91893359375,0.46099853515625,0.670013427734375,-3.3187103271484375
1663860790445821400,9.928821533203125,0.551544189453125,1.0055694580078125,-3.6265716552734375
1663860790455709200,9.938709228515625,0.347015380859375,1.42315673828125,-3.8982086181640625
1663860790465597000,9.948596923828125,-0.0322265625,1.3624267578125,-3.959991455078125
1663860790475484700,9.958484619140625,-0.4689788818359375,0.3099517822265625,-3.656402587890625
1663860790485372400,9.968372314453125,-0.9387664794921875,-1.482879638671875,-3.1812896728515625
1663860790495260000,9.978260009765625,-1.377655029296875,-2.71539306640625,-2.890472412109375
1663860790505117200,9.9881171875,-1.78350830078125,-2.4874267578125,-2.8382720947265625
1663860790515005000,9.9980048828125,-2.1116180419921875,-1.487152099609375,-2.8755645751953125
1663860790524892700,10.007892578125,-2.2383880615234375,-1.14520263671875,-2.855316162109375
1663860790534780200,10.0177802734375,-2.04876708984375,-1.4008636474609375,-2.8191070556640625
1663860790544668000,10.02766796875,-1.648223876953125,-1.6959381103515625,-2.8073883056640625
1663860790554555600,10.0375556640625,-1.260467529296875,-1.8482666015625,-2.74346923828125
1663860790564413000,10.047412841796875,-0.9483489990234375,-1.8535919189453125,-2.6571807861328125
1663860790574300400,10.057300537109375,-0.701202392578125,-1.7119140625,-2.526153564453125
1663860790584218600,10.067218505859374,-0.5275726318359375,-1.5457305908203125,-2.309906005859375
1663860790594076000,10.077075927734375,-0.43914794921875,-1.574493408203125,-1.99884033203125
1663860790603963600,10.086963623046875,-0.402923583984375,-1.6639862060546875,-1.6441192626953125
1663860790613820700,10.096820556640624,-0.414642333984375,-1.6149749755859375,-1.3000335693359375
1663860790623739000,10.10673876953125,-0.4583282470703125,-1.4551849365234375,-1.0134735107421875
1663860790633626600,10.116626708984375,-0.50946044921875,-1.32843017578125,-0.8046875
1663860790643514400,10.126514404296875,-0.56805419921875,-1.2613067626953125,-0.6619415283203125
1663860790653402000,10.136402099609375,-0.61279296875,-1.18780517578125,-0.5383758544921875
1663860790663289900,10.146289794921875,-0.635162353515625,-1.0684967041015625,-0.3743133544921875
1663860790673177600,10.156177490234375,-0.6553955078125,-0.9566497802734375,-0.1250457763671875
1663860790683034600,10.16603466796875,-0.6788330078125,-0.918304443359375,0.2041168212890625
1663860790692892000,10.175891845703125,-0.69268798828125,-0.927886962890625,0.5908050537109375
1663860790702810000,10.18581005859375,-0.68841552734375,-0.951324462890625,1.0147857666015625
1663860790712697900,10.19569775390625,-0.68096923828125,-0.9300079345703125,1.4515380859375
1663860790722585300,10.20558544921875,-0.68096923828125,-0.81390380859375,1.87445068359375
1663860790732442600,10.215442626953125,-0.67669677734375,-0.6360015869140625,2.241973876953125
1663860790742330400,10.225330322265625,-0.5850982666015625,-0.5443878173828125,2.4923095703125
1663860790752218000,10.235218017578125,-0.4114532470703125,-0.6125640869140625,2.49017333984375
1663860790762075100,10.2450751953125,-0.186676025390625,-0.75531005859375,2.206817626953125
1663860790771993300,10.254993408203125,0.0103912353515625,-0.7755584716796875,1.7668609619140625
1663860790781881000,10.264881103515625,0.116912841796875,-0.68927001953125,1.0137176513671875
1663860790791768800,10.274768798828125,0.20745849609375,-1.191009521484375,-0.4456939697265625
1663860790801656600,10.284656494140625,0.471649169921875,-1.712982177734375,-2.20550537109375
1663860790811544000,10.2945439453125,0.26605224609375,-1.22296142578125,-3.1610565185546875
1663860790821401300,10.3044013671875,-0.2868194580078125,-0.9768829345703125,-3.1844940185546875
1663860790831289000,10.3142890625,-0.5691070556640625,-1.14520263671875,-2.5677032470703125
1663860790841146000,10.32414599609375,-0.7512664794921875,-1.5244293212890625,-1.884857177734375
1663860790851064300,10.334064208984374,-0.6415557861328125,-1.9835662841796875,-1.4140167236328125
1663860790860952000,10.3439521484375,-0.2378082275390625,-1.679962158203125,-0.462738037109375
1663860790870839800,10.35383984375,-0.0045166015625,-0.19818115234375,0.928497314453125
1663860790880697000,10.363697021484375,0.185089111328125,1.06842041015625,1.4600677490234375
1663860790890615300,10.373615234375,0.59521484375,1.328338623046875,0.265899658203125
1663860790900472300,10.383472412109375,0.4098663330078125,1.0385894775390625,-1.3564910888671875
1663860790910360000,10.393360107421875,-0.3592529296875,0.9501800537109375,-1.2062835693359375
1663860790920217300,10.40321728515625,-0.761932373046875,0.9938507080078125,-0.1016082763671875
1663860790930135600,10.413135498046875,-1.0825653076171875,0.4239349365234375,0.6248931884765625
1663860790939992600,10.42299267578125,-0.97711181640625,-0.9459991455078125,0.8198394775390625
1663860790949910800,10.432910888671875,-0.0098419189453125,-3.1425628662109375,0.1966705322265625
1663860790959768000,10.44276806640625,0.6143951416015625,-1.9420166015625,0.383087158203125
1663860790969655800,10.45265576171875,0.4546051025390625,1.9632415771484375,2.1333160400390625
1663860790979543600,10.46254345703125,0.335296630859375,4.41973876953125,3.4457244873046875
1663860790989431000,10.47243115234375,0.5600738525390625,4.87567138671875,3.4308013916015625
1663860790999318800,10.48231884765625,0.74755859375,3.734771728515625,2.9279937744140625
1663860791009206500,10.49220654296875,0.6026763916015625,1.7139739990234375,2.710693359375
1663860791019063800,10.502063720703125,0.2021331787109375,0.2204742431640625,2.77886962890625
1663860791028951300,10.511951416015625,-0.2069244384765625,-0.3302764892578125,2.8182830810546875
1663860791038839000,10.521839111328125,-0.4295654296875,-0.3845977783203125,2.7032318115234375
1663860791048696300,10.5316962890625,-0.402923583984375,0.09051513671875,2.5391845703125
1663860791058614500,10.541614501953125,-0.211181640625,0.89691162109375,2.4635467529296875
1663860791068502300,10.551502197265625,0.0072021484375,1.490264892578125,2.5082855224609375
1663860791078359300,10.561359375,0.2255706787109375,1.50091552734375,2.6201324462890625
1663860791088247000,10.5712470703125,0.4897613525390625,0.980010986328125,2.6893768310546875
1663860791098165200,10.581165283203125,0.7422332763671875,0.350433349609375,2.664886474609375
1663860791108022500,10.5910224609375,0.8562164306640625,0.0255279541015625,2.605224609375
1663860791117910000,10.600909912109374,0.7603302001953125,0.1618804931640625,2.606292724609375
1663860791127797800,10.6107978515625,0.5291748046875,0.7211456298828125,2.6318511962890625
1663860791137685500,10.620685546875,0.3150634765625,1.431671142578125,2.6446380615234375
1663860791147573200,10.6305732421875,0.208526611328125,1.9621734619140625,2.675537109375
1663860791157461000,10.6404609375,0.1936187744140625,2.24127197265625,2.719207763671875
1663860791167348700,10.6503486328125,0.24261474609375,2.3957366943359375,2.7128143310546875
1663860791177236200,10.660236328125,0.2948150634765625,2.4884185791015625,2.596710205078125
1663860791187124000,10.6701240234375,0.333160400390625,2.45965576171875,2.3591461181640625
1663860791197011700,10.68001171875,0.35980224609375,2.2732391357421875,2.024658203125
1663860791206899500,10.6898994140625,0.4663238525390625,2.029296875,1.67950439453125
1663860791216787200,10.699787109375,0.64208984375,1.6788177490234375,1.4622039794921875
1663860791226674700,10.7096748046875,0.8018798828125,1.104644775390625,1.3897552490234375
1663860791236562400,10.7195625,0.9190673828125,0.475067138671875,1.3780364990234375
1663860791246450200,10.7294501953125,0.9425048828125,0.1054229736328125,1.3929595947265625
1663860791256338000,10.739337890625,0.857269287109375,0.1938323974609375,1.444091796875
1663860791266195000,10.74919482421875,0.723052978515625,0.6412506103515625,1.54315185546875
1663860791276082700,10.759082763671875,0.586700439453125,1.0843963623046875,1.637969970703125
1663860791285940000,10.76893994140625,0.4641876220703125,1.283599853515625,1.600677490234375
1663860791295827700,10.77882763671875,0.36724853515625,1.238861083984375,1.3119964599609375
1663860791305715200,10.788715087890624,0.2916259765625,1.0428619384765625,0.8571319580078125
1663860791315603000,10.79860302734375,0.2213134765625,0.724334716796875,0.4246368408203125
1663860791325490700,10.80849072265625,0.1318359375,0.2950439453125,0.141265869140625
1663860791335378400,10.81837841796875,0.0668487548828125,-0.08526611328125,0.0177001953125
1663860791345266200,10.82826611328125,0.0125274658203125,-0.263153076171875,-0.0142669677734375
1663860791355153700,10.838153564453124,-0.106781005859375,-0.09698486328125,-0.00787353515625
1663860791365041400,10.84804150390625,-0.2655181884765625,0.3578948974609375,-0.00787353515625
1663860791374929200,10.85792919921875,-0.4561920166015625,0.7456512451171875,-0.084564208984375
1663860791384817000,10.86781689453125,-0.7097320556640625,0.6987762451171875,-0.3370361328125
1663860791394704600,10.87770458984375,-0.931304931640625,0.2087554931640625,-0.7865753173828125
1663860791404561700,10.887561767578125,-0.9803009033203125,-0.50604248046875,-1.3362579345703125
1663860791414449400,10.897449462890625,-0.9398193359375,-0.9332122802734375,-1.9019012451171875
1663860791424306700,10.907306640625,-0.917449951171875,-0.697784423828125,-2.4036407470703125
1663860791434194400,10.9171943359375,-0.761932373046875,-0.4058990478515625,-2.8531951904296875
1663860791444051500,10.927051513671875,-0.381622314453125,-0.5220184326171875,-3.2856903076171875
1663860791453969700,10.9369697265625,0.0455474853515625,-0.6221466064453125,-3.5669097900390625
1663860791463857400,10.946857421875,0.2500762939453125,-0.33453369140625,-3.5243072509765625
1663860791473745200,10.9567451171875,0.1680450439453125,0.0713348388671875,-3.25799560546875
1663860791483602200,10.966602294921875,0.1467437744140625,0.2620086669921875,-3.1152496337890625
1663860791493490000,10.976489990234375,0.3853607177734375,0.451629638671875,-3.25372314453125
1663860791503377700,10.986377685546875,0.6612701416015625,0.9725494384765625,-3.57757568359375
1663860791513265400,10.996265380859375,0.70281982421875,1.5105133056640625,-3.9429473876953125
1663860791523122400,11.006122314453124,0.5057373046875,1.5904083251953125,-4.166656494140625
1663860791533040600,11.01604052734375,0.1669921875,0.806365966796875,-4.0388336181640625
1663860791542928400,11.025928466796875,-0.27935791015625,-0.79046630859375,-3.576507568359375
1663860791552816000,11.035816162109375,-0.8087921142578125,-2.182769775390625,-3.151458740234375
1663860791562704000,11.045703857421875,-1.32757568359375,-2.3127288818359375,-3.0087127685546875
1663860791572591600,11.055591552734375,-1.7920379638671875,-1.461578369140625,-3.0214996337890625
1663860791582479000,11.06547900390625,-2.104156494140625,-0.8650360107421875,-2.9554595947265625
1663860791592366800,11.075366943359375,-2.12652587890625,-0.8415985107421875,-2.8254852294921875
1663860791602254600,11.085254638671875,-1.86553955078125,-1.122833251953125,-2.767974853515625
1663860791612142300,11.095142333984375,-1.50335693359375,-1.4328155517578125,-2.7274932861328125
1663860791622030000,11.105030029296875,-1.169921875,-1.7438812255859375,-2.67315673828125
1663860791631887000,11.11488720703125,-0.8769683837890625,-1.8919525146484375,-2.5794219970703125
1663860791641774800,11.12477490234375,-0.6735076904296875,-1.839752197265625,-2.4164276123046875
1663860791651662600,11.13466259765625,-0.576568603515625,-1.7854156494140625,-2.1533050537109375
1663860791661550300,11.14455029296875,-0.53289794921875,-1.7662506103515625,-1.830535888671875
1663860791671438000,11.15443798828125,-0.48388671875,-1.7534637451171875,-1.50244140625
1663860791681295000,11.164295166015625,-0.442352294921875,-1.668243408203125,-1.2073516845703125
1663860791691182800,11.174182861328125,-0.4561920166015625,-1.48822021484375,-0.9932403564453125
1663860791701070600,11.184070556640625,-0.5030670166015625,-1.2911376953125,-0.840911865234375
1663860791710958300,11.193958251953125,-0.55419921875,-1.0791473388671875,-0.6587371826171875
1663860791720845800,11.203845703125,-0.6042633056640625,-0.8661041259765625,-0.4084014892578125
1663860791730703000,11.213703125,-0.6553955078125,-0.7063140869140625,-0.0930938720703125
1663860791740590800,11.2235908203125,-0.70013427734375,-0.598724365234375,0.27655029296875
1663860791750478600,11.233478515625,-0.72357177734375,-0.5358734130859375,0.665374755859375
1663860791760366000,11.243365966796874,-0.7406158447265625,-0.4900665283203125,1.057403564453125
1663860791770253800,11.25325390625,-0.757659912109375,-0.4538421630859375,1.4728546142578125
1663860791780141600,11.2631416015625,-0.759796142578125,-0.380340576171875,1.9149322509765625
1663860791790029300,11.273029296875,-0.7416839599609375,-0.2141571044921875,2.343170166015625
1663860791799917000,11.2829169921875,-0.6830902099609375,-0.0341339111328125,2.6925811767578125
1663860791809804500,11.292804443359374,-0.57550048828125,-0.0202789306640625,2.86834716796875
1663860791819692300,11.3026923828125,-0.4178466796875,-0.232269287109375,2.7351837158203125
1663860791829580000,11.312580078125,-0.22076416015625,-0.6253509521484375,2.26434326171875
1663860791839467800,11.3224677734375,-0.03009033203125,-0.803253173828125,1.546356201171875
1663860791849325000,11.332324951171875,0.10626220703125,-0.9481201171875,0.5013275146484375
1663860791859212500,11.342212646484375,0.347015380859375,-1.278350830078125,-1.0486297607421875
1663860791869100300,11.352100341796875,0.3651275634765625,-1.30072021484375,-2.6092376708984375
1663860791878988000,11.361988037109375,-0.1920013427734375,-1.3635711669921875,-3.334686279296875
1663860791888875800,11.371875732421875,-0.54461669921875,-1.6863555908203125,-3.006591796875
1663860791898763500,11.381763427734375,-0.6724395751953125,-2.0165863037109375,-2.1607666015625
1663860791908651000,11.391651123046875,-0.712921142578125,-2.3819732666015625,-1.579132080078125
1663860791918538800,11.401538818359375,-0.393341064453125,-2.054931640625,-0.93890380859375
1663860791928396000,11.41139599609375,-0.0801544189453125,-0.38140869140625,0.3436737060546875
1663860791938253000,11.421253173828125,0.081756591796875,1.1887969970703125,1.3886871337890625
1663860791948110300,11.4311103515625,0.4354248046875,1.3144989013671875,0.9178466796875
1663860791958028500,11.441028564453125,0.4759063720703125,0.839385986328125,-0.8430328369140625
1663860791967885800,11.4508857421875,-0.10784912109375,0.4708099365234375,-1.646240234375
1663860791977804000,11.460803955078125,-0.5126495361328125,0.5794677734375,-0.6853790283203125
1663860791987661000,11.4706611328125,-0.8886871337890625,0.302490234375,0.4310150146484375
1663860791997548800,11.480548828125,-1.15606689453125,-0.403778076171875,1.0723114013671875
1663860792007436500,11.4904365234375,-0.6862945556640625,-1.6842193603515625,0.928497314453125
1663860792017293600,11.50029345703125,0.0093231201171875,-2.054931640625,0.39373779296875
1663860792027181300,11.510181396484375,0.0998687744140625,0.8692169189453125,1.3567352294921875
1663860792037099500,11.520099609375,-0.066314697265625,3.9616851806640625,3.21881103515625
1663860792046987300,11.5299873046875,0.1105194091796875,4.9481201171875,3.894195556640625
1663860792056875000,11.539875,0.4641876220703125,4.3270721435546875,3.47021484375
1663860792066762800,11.5497626953125,0.5377044677734375,2.674835205078125,2.9887237548828125
1663860792076650500,11.559650390625,0.356597900390625,0.9373931884765625,2.912017822265625
1663860792086538000,11.5695380859375,0.1360931396484375,0.0351104736328125,2.93438720703125
1663860792096425700,11.57942578125,-0.0247650146484375,-0.152374267578125,2.83319091796875
1663860792106313500,11.5893134765625,-0.0918731689453125,-0.0447845458984375,2.662750244140625
1663860792116201200,11.599201171875,-0.0482025146484375,0.3355255126953125,2.5093536376953125
1663860792126089000,11.6090888671875,0.07537841796875,0.884124755859375,2.4635467529296875
1663860792135976400,11.6189765625,0.2607269287109375,1.23779296875,2.561553955078125
1663860792145833700,11.628833740234375,0.4918975830078125,1.15789794921875,2.7256011962890625
1663860792155721500,11.638721435546875,0.7070770263671875,0.7339324951171875,2.824676513671875
1663860792165609200,11.648609130859375,0.8604736328125,0.4228668212890625,2.8054962158203125
1663860792175496700,11.65849658203125,0.8423614501953125,0.4910430908203125,2.7383880615234375
1663860792185384400,11.668384521484375,0.621856689453125,0.897979736328125,2.710693359375
1663860792195272200,11.678272216796875,0.349151611328125,1.604248046875,2.70855712890625
1663860792205160000,11.688159912109375,0.130767822265625,2.2391510009765625,2.7458343505859375
1663860792215047700,11.698047607421875,0.0082550048828125,2.4799041748046875,2.810821533203125
1663860792224874200,11.707874267578125,0.0018768310546875,2.503326416015625,2.808685302734375
1663860792234762000,11.717761962890625,0.0647125244140625,2.3968048095703125,2.648895263671875
1663860792244619000,11.727618896484374,0.1669921875,2.1677703857421875,2.29949951171875
1663860792254537200,11.737537109375,0.31292724609375,1.944061279296875,1.8446197509765625
1663860792264425000,11.747425048828125,0.520660400390625,1.721435546875,1.513336181640625
1663860792274282200,11.7572822265625,0.7198638916015625,1.2250213623046875,1.3322296142578125
1663860792284200400,11.767200439453125,0.8061370849609375,0.5560302734375,1.2065277099609375
1663860792294088200,11.777088134765625,0.8018798828125,0.0734710693359375,1.1628570556640625
1663860792303976000,11.786975830078125,0.75714111328125,-0.0565032958984375,1.2406158447265625
1663860792313863400,11.796863525390625,0.666595458984375,0.167205810546875,1.41107177734375
1663860792323751200,11.806751220703125,0.53875732421875,0.5975799560546875,1.624114990234375
1663860792333639000,11.816638916015625,0.380035400390625,0.9714813232421875,1.7913665771484375
1663860792343496200,11.82649609375,0.255401611328125,1.194122314453125,1.7785797119140625
1663860792353383700,11.8363837890625,0.196807861328125,1.2537841796875,1.4835052490234375
1663860792363271400,11.846271484375,0.1744384765625,1.057769775390625,1.0062713623046875
1663860792373159200,11.8561591796875,0.1584625244140625,0.7530975341796875,0.5471343994140625
1663860792383047000,11.866046875,0.0998687744140625,0.6519012451171875,0.246734619140625
1663860792392934700,11.8759345703125,-0.0045166015625,0.6774749755859375,0.141265869140625
1663860792402822100,11.885822265625,-0.111053466796875,0.660430908203125,0.094390869140625
1663860792412710000,11.8957099609375,-0.1568603515625,0.4910430908203125,-0.0089263916015625
1663860792422567200,11.905567138671875,-0.1621856689453125,0.2886505126953125,-0.1250457763671875
1663860792432455000,11.915454833984375,-0.2623138427734375,0.3568267822265625,-0.220916748046875
1663860792442342400,11.92534228515625,-0.5265045166015625,0.580535888671875,-0.338104248046875
1663860792452230100,11.935230224609375,-0.873779296875,0.6103515625,-0.5788421630859375
1663860792462118000,11.945117919921875,-1.124114990234375,0.324859619140625,-0.9698028564453125
1663860792472005600,11.955005615234375,-1.16033935546875,-0.1534423828125,-1.440643310546875
1663860792481893400,11.964893310546875,-1.0719146728515625,-0.4101715087890625,-1.9615631103515625
1663860792491780900,11.97478076171875,-0.9355621337890625,-0.378204345703125,-2.469696044921875
1663860792501668600,11.984668701171875,-0.6596527099609375,-0.4634246826171875,-2.9863433837890625
1663860792511526000,11.99452587890625,-0.23248291015625,-0.732940673828125,-3.4742431640625
1663860792521383000,12.0043828125,0.1318359375,-0.8053741455078125,-3.5669097900390625
1663860792531270700,12.014270751953125,0.2053375244140625,-0.286590576171875,-3.2835540771484375
1663860792541158400,12.024158447265625,0.1478118896484375,0.4793243408203125,-3.1152496337890625
1663860792551046100,12.034046142578125,0.278839111328125,0.92034912109375,-3.2494659423828125
1663860792560903400,12.0439033203125,0.6175994873046875,1.0300750732421875,-3.5488128662109375
1663860792570821600,12.053821533203125,0.87005615234375,0.9618988037109375,-3.87371826171875
1663860792580709000,12.063709228515625,0.73583984375,0.4708099365234375,-4.145355224609375
1663860792590596900,12.073596923828125,0.257537841796875,-0.4751434326171875,-4.1837005615234375
1663860792600484600,12.083484619140625,-0.2516632080078125,-1.2495880126953125,-4.06439208984375
1663860792610372400,12.093372314453125,-0.6085205078125,-1.4562530517578125,-3.9482879638671875
1663860792620229400,12.1032294921875,-0.917449951171875,-1.14520263671875,-3.7852935791015625
1663860792630117000,12.1131171875,-1.204010009765625,-0.5699615478515625,-3.481689453125
1663860792639974400,12.122974365234375,-1.3669891357421875,-0.3515777587890625,-3.075836181640625
1663860792649892600,12.132892578125,-1.3233184814453125,-0.55078125,-2.77862548828125
1663860792659749600,12.14274951171875,-1.1294403076171875,-0.822418212890625,-2.66143798828125
1663860792669634800,12.152634765625,-0.9792327880859375,-1.1398773193359375,-2.56982421875
1663860792679522600,12.1625224609375,-0.8343658447265625,-1.3667755126953125,-2.5208282470703125
1663860792689410300,12.172410400390625,-0.656463623046875,-1.3646392822265625,-2.516571044921875
1663860792699267600,12.182267578125,-0.4892120361328125,-1.2645111083984375,-2.479278564453125
1663860792709185800,12.192185791015625,-0.3880157470703125,-1.2059173583984375,-2.3493194580078125
1663860792719042800,12.202042724609376,-0.3240966796875,-1.2187042236328125,-2.126678466796875
1663860792728961000,12.2119609375,-0.2761688232421875,-1.31243896484375,-1.8241424560546875
1663860792738818300,12.221818359375,-0.2420806884765625,-1.461578369140625,-1.50030517578125
1663860792748706000,12.2317060546875,-0.2527313232421875,-1.5734405517578125,-1.2371826171875
1663860792758593800,12.24159375,-0.3230438232421875,-1.5617218017578125,-1.0166778564453125
1663860792768481300,12.251481201171876,-0.4135894775390625,-1.46051025390625,-0.78125
1663860792778369000,12.261369140625,-0.498809814453125,-1.306060791015625,-0.4904327392578125
1663860792788226300,12.271226318359375,-0.5712432861328125,-1.1473236083984375,-0.131439208984375
1663860792798144500,12.28114453125,-0.623443603515625,-1.0237579345703125,0.28082275390625
1663860792808001500,12.29100146484375,-0.6671142578125,-0.9204254150390625,0.711181640625
1663860792817858800,12.30085888671875,-0.7214508056640625,-0.8085784912109375,1.14581298828125
1663860792827746600,12.31074658203125,-0.7853546142578125,-0.6242828369140625,1.599609375
1663860792837634300,12.32063427734375,-0.863128662109375,-0.3643646240234375,2.0512847900390625
1663860792847521800,12.330521728515626,-0.91851806640625,-0.10443115234375,2.4528961181640625
1663860792857409500,12.340409423828126,-0.8780364990234375,0.099029541015625,2.7618255615234375
1663860792867297300,12.35029736328125,-0.7448883056640625,0.1150054931640625,2.84490966796875
1663860792877185000,12.36018505859375,-0.54034423828125,-0.1800689697265625,2.582855224609375
1663860792887072800,12.37007275390625,-0.24847412109375,-0.4080352783203125,1.957550048828125
1663860792896960300,12.379960205078126,0.04022216796875,-0.3600921630859375,1.043548583984375
1663860792906817500,12.389817626953125,0.35552978515625,-0.8415985107421875,-0.3871002197265625
1663860792916705300,12.399705322265625,0.631439208984375,-1.621368408203125,-2.2555694580078125
1663860792926593000,12.409593017578125,0.2255706787109375,-1.91644287109375,-3.505126953125
1663860792936511200,12.41951123046875,-0.3091888427734375,-2.1635894775390625,-3.6691741943359375
1663860792946398700,12.429398681640626,-0.44873046875,-2.2807769775390625,-2.947998046875
1663860792956256000,12.439256103515625,-0.564849853515625,-2.478912353515625,-2.1234893798828125
1663860792966143700,12.449143798828125,-0.44873046875,-2.810211181640625,-1.5855255126953125
1663860792976001000,12.4590009765625,-0.198394775390625,-1.984619140625,-0.669403076171875
1663860792985919200,12.468919189453125,-0.24847412109375,0.1522979736328125,0.76763916015625
1663860792995806700,12.478806640625,-0.3475341796875,1.39971923828125,1.4568634033203125
1663860793005664000,12.4886640625,-0.199462890625,2.09747314453125,0.6813507080078125
1663860793015582200,12.498582275390625,-0.1834869384765625,2.230621337890625,-0.5373077392578125
1663860793025439500,12.508439453125,-0.3880157470703125,1.2218170166015625,-0.7269287109375
1663860793035327000,12.518326904296876,-0.6436767578125,0.2407073974609375,-0.1687164306640625
1663860793045214700,12.528214599609376,-0.8886871337890625,-0.5124359130859375,0.4768218994140625
1663860793055102500,12.5381025390625,-0.682037353515625,-1.6650543212890625,0.687744140625
1663860793064959700,12.547959716796875,-0.10784912109375,-2.3809051513671875,0.3734893798828125
1663860793074847200,12.55784716796875,0.2042694091796875,-0.5337371826171875,0.747406005859375
1663860793084765400,12.567765380859376,0.1318359375,2.4404754638671875,2.1759185791015625
1663860793094653200,12.577653076171876,0.072174072265625,4.2439727783203125,3.313629150390625
1663860793104510500,12.587510498046875,0.208526611328125,4.442108154296875,3.55438232421875
1663860793114367500,12.597367431640626,0.3289031982421875,3.4705963134765625,3.35943603515625
1663860793124255200,12.607255126953126,0.21173095703125,1.922760009765625,3.2848663330078125
1663860793134173400,12.61717333984375,-0.0716400146484375,0.6891937255859375,3.426544189453125
1663860793144061200,12.627061279296875,-0.2303619384765625,0.2279205322265625,3.4414520263671875
1663860793153949000,12.636948974609375,-0.2378082275390625,0.2215423583984375,3.25396728515625
1663860793163836700,12.646836669921875,-0.1813507080078125,0.4676055908203125,3.038787841796875
1663860793173724200,12.65672412109375,-0.07696533203125,0.886260986328125,2.9098968505859375
1663860793183612000,12.66661181640625,0.09454345703125,1.34326171875,2.8758087158203125
1663860793193499600,12.676499755859375,0.30120849609375,1.4987945556640625,2.892852783203125
1663860793203387400,12.686387451171875,0.530242919921875,1.229278564453125,2.9013671875
1663860793213275100,12.696275146484375,0.7518157958984375,0.7626953125,2.810821533203125
1663860793223132200,12.706132080078126,0.894561767578125,0.488922119140625,2.6212005615234375
1663860793233020000,12.71602001953125,0.8551483154296875,0.646575927734375,2.4656829833984375
1663860793242907600,12.72590771484375,0.6708526611328125,1.274017333984375,2.4166717529296875
1663860793252795400,12.73579541015625,0.4194488525390625,2.10919189453125,2.4774017333984375
1663860793262683100,12.74568310546875,0.1382293701171875,2.63330078125,2.6478424072265625
1663860793272570600,12.755570556640626,-0.026885986328125,2.80267333984375,2.8001708984375
1663860793282458400,12.765458251953126,-0.0599212646484375,2.7973480224609375,2.77459716796875
1663860793292346000,12.77534619140625,0.0221099853515625,2.639678955078125,2.5104217529296875
1663860793302233900,12.78523388671875,0.1723175048828125,2.423431396484375,2.0619354248046875
1663860793312121600,12.79512158203125,0.3299713134765625,2.1240997314453125,1.60174560546875
1663860793321978600,12.804978515625,0.5707244873046875,1.537139892578125,1.2896270751953125
1663860793331866400,12.814866455078125,0.8093414306640625,0.8340606689453125,1.078704833984375
1663860793341754000,12.824754150390625,0.939300537109375,0.32806396484375,0.99774169921875
1663860793351641900,12.834641845703125,0.9201202392578125,0.22686767578125,1.1277008056640625
1663860793361529300,12.844529296875,0.7837677001953125,0.566680908203125,1.4483489990234375
1663860793371417000,12.8544169921875,0.6133270263671875,1.0982513427734375,1.8020172119140625
1663860793381304800,12.864304931640625,0.462066650390625,1.4487152099609375,1.9362335205078125
1663860793391162000,12.874162109375,0.34808349609375,1.523284912109375,1.7423553466796875
1663860793401019100,12.88401904296875,0.2735137939453125,1.398651123046875,1.3215789794921875
1663860793410907000,12.893906982421875,0.2213134765625,1.1014404296875,0.8560638427734375
1663860793420764200,12.90376416015625,0.1595306396484375,0.771209716796875,0.5023956298828125
1663860793430652000,12.91365185546875,0.0327606201171875,0.67108154296875,0.3404693603515625
1663860793440570000,12.923570068359375,-0.11956787109375,0.63592529296875,0.32342529296875
1663860793450427100,12.93342724609375,-0.1824188232421875,0.4367218017578125,0.2520599365234375
1663860793460315000,12.94331494140625,-0.1280975341796875,0.15869140625,0.0177001953125
1663860793470202600,12.95320263671875,-0.0929412841796875,0.042572021484375,-0.256072998046875
1663860793480090400,12.96309033203125,-0.222900390625,0.2556304931640625,-0.4456939697265625
1663860793489977900,12.972977783203126,-0.5254364013671875,0.5815887451171875,-0.585235595703125
1663860793499865600,12.982865478515626,-0.9036102294921875,0.648712158203125,-0.7663421630859375
1663860793509753300,12.99275341796875,-1.1976165771484375,0.32806396484375,-1.0369110107421875
1663860793519641000,13.00264111328125,-1.225311279296875,-0.265289306640625,-1.4502410888671875
1663860793529528800,13.01252880859375,-1.0634002685546875,-0.6573028564453125,-2.0169525146484375
