time,seconds_elapsed,z,y,x
1663860780759877000,0.242877197265625,0.5486297607421875,-0.652069091796875,-0.290496826171875
1663860780769764900,0.252764892578125,0.291900634765625,-0.118377685546875,-0.278778076171875
1663860780779652600,0.262652587890625,0.1800537109375,-0.346343994140625,-0.2532196044921875
1663860780789540000,0.2725400390625,0.3014984130859375,-0.9354248046875,-0.0486907958984375
1663860780799427800,0.282427734375,0.4048309326171875,-1.5245208740234375,0.2953948974609375
1663860780809315600,0.292315673828125,0.465545654296875,-1.554351806640625,0.69061279296875
1663860780819203300,0.302203369140625,0.508148193359375,-1.448883056640625,0.999542236328125
1663860780829121500,0.31212158203125,0.5347900390625,-1.6033477783203125,1.143341064453125
1663860780839009300,0.32200927734375,0.568878173828125,-1.7162628173828125,1.16571044921875
1663860780848896800,0.331896728515625,0.611480712890625,-1.5490264892578125,1.201934814453125
1663860780858784500,0.341784423828125,0.62213134765625,-0.82464599609375,1.0858306884765625
1663860780868611300,0.351611328125,0.671142578125,-0.09173583984375,0.837615966796875
1663860780878498800,0.361498779296875,0.78192138671875,0.0616607666015625,0.6575927734375
1663860780888356000,0.371356201171875,0.872467041015625,-0.1908111572265625,0.5872802734375
1663860780898274300,0.3812744140625,0.9385223388671875,-0.6701812744140625,0.6938018798828125
1663860780908162000,0.391162109375,0.94384765625,-1.1250457763671875,0.938812255859375
1663860780918019000,0.40101904296875,0.88525390625,-1.2837677001953125,1.1795654296875
1663860780927906800,0.41090673828125,0.91082763671875,-1.1697845458984375,1.319122314453125
1663860780937794600,0.420794677734375,1.2815399169921875,-1.0131988525390625,1.314849853515625
1663860780947682300,0.430682373046875,1.8748931884765625,-0.9791107177734375,1.2147216796875
1663860780957570000,0.440570068359375,2.195526123046875,-1.0238494873046875,1.043212890625
1663860780967457800,0.450457763671875,2.265838623046875,-0.9300994873046875,0.8333587646484375
1663860780977345300,0.46034521484375,2.2413330078125,-0.720245361328125,0.6384124755859375
1663860780987233000,0.47023291015625,2.2605133056640625,-0.6328887939453125,0.5254974365234375
1663860780997090300,0.48009033203125,2.5236358642578125,-0.5306243896484375,0.4871368408203125
1663860781006978000,0.48997802734375,2.961456298828125,-0.5082550048828125,0.5020599365234375
1663860781016865500,0.499865478515625,3.245880126953125,-0.740478515625,0.5989990234375
1663860781026753300,0.509753173828125,3.3076629638671875,-1.1825714111328125,0.8525238037109375
1663860781036641000,0.51964111328125,3.3289794921875,-1.6385040283203125,1.3020782470703125
1663860781046528800,0.52952880859375,3.349212646484375,-1.918670654296875,1.850677490234375
1663860781056385800,0.5393857421875,3.2512054443359375,-1.6491546630859375,2.2373809814453125
1663860781066273500,0.5492734375,3.20220947265625,-1.0014801025390625,2.308746337890625
1663860781076161300,0.559161376953125,3.2884979248046875,-0.6137237548828125,2.037109375
1663860781086018600,0.5690185546875,3.3225860595703125,-0.71173095703125,1.467193603515625
1663860781095936800,0.578936767578125,3.16705322265625,-1.27630615234375,0.89300537109375
1663860781105824300,0.58882421875,2.930572509765625,-2.1189422607421875,0.5755615234375
1663860781115712000,0.5987119140625,2.7537384033203125,-2.9775390625,0.440277099609375
1663860781125599700,0.608599853515625,2.7281646728515625,-3.1458587646484375,0.3752899169921875
1663860781135487500,0.618487548828125,2.79315185546875,-2.5024261474609375,0.2826080322265625
1663860781145344500,0.628344482421875,2.8314971923828125,-1.768463134765625,0.0365447998046875
1663860781155232300,0.638232177734375,2.731353759765625,-1.3050689697265625,-0.2755889892578125
1663860781165120000,0.6481201171875,2.447998046875,-1.0643310546875,-0.4779815673828125
1663860781175007700,0.6580078125,2.08154296875,-0.8374176025390625,-0.6846466064453125
1663860781184895500,0.6678955078125,1.785400390625,-0.7170562744140625,-0.943511962890625
1663860781194783200,0.677783203125,1.675689697265625,-0.5902862548828125,-1.068145751953125
1663860781204670700,0.687670654296875,1.6234893798828125,-0.4773712158203125,-1.0020904541015625
1663860781214558500,0.697558349609375,1.504180908203125,-0.833160400390625,-0.7656097412109375
1663860781224446200,0.7074462890625,1.3060302734375,-1.5692596435546875,-0.4098052978515625
1663860781234334000,0.717333984375,1.034393310546875,-2.123199462890625,-0.189300537109375
1663860781244221700,0.7272216796875,0.8117523193359375,-2.07525634765625,-0.2745208740234375
1663860781254109200,0.737109130859375,0.816009521484375,-1.2400970458984375,-0.6207275390625
1663860781263997000,0.746996826171875,0.79791259765625,-0.2962646484375,-0.795440673828125
1663860781273854200,0.756854248046875,0.61468505859375,-0.1226348876953125,-0.6281890869140625
1663860781283711200,0.766711181640625,0.4176025390625,-0.4720458984375,-0.368255615234375
1663860781293599000,0.776598876953125,0.46234130859375,-0.8406219482421875,-0.24468994140625
1663860781303486700,0.78648681640625,0.580596923828125,-1.0099945068359375,-0.2755889892578125
1663860781313344000,0.796343994140625,0.635986328125,-0.938629150390625,-0.4779815673828125
1663860781323262200,0.80626220703125,0.6093597412109375,-0.7841644287109375,-0.689971923828125
1663860781333119000,0.816118896484375,0.6775360107421875,-0.69573974609375,-0.9221954345703125
1663860781343006700,0.8260068359375,0.8149566650390625,-0.6914825439453125,-0.988250732421875
1663860781352894500,0.83589453125,1.00244140625,-0.7500762939453125,-0.908355712890625
1663860781362782000,0.845781982421875,1.09405517578125,-0.857666015625,-0.7624053955078125
1663860781372669700,0.855669677734375,1.02587890625,-0.9556732177734375,-0.5003509521484375
1663860781382557400,0.865557373046875,0.94171142578125,-1.006805419921875,-0.220184326171875
1663860781392445200,0.875445068359375,0.9598236083984375,-0.995086669921875,0.04931640625
1663860781402333000,0.8853330078125,1.0865936279296875,-1.0312957763671875,0.3444061279296875
1663860781412220400,0.895220458984375,1.3294677734375,-1.1229095458984375,0.6224365234375
1663860781422108200,0.905108154296875,1.65118408203125,-1.213470458984375,0.870635986328125
1663860781431996000,0.914995849609375,1.9387969970703125,-1.312530517578125,1.0251007080078125
1663860781441883600,0.924883544921875,2.0996551513671875,-1.519195556640625,1.0836944580078125
1663860781451740700,0.93474072265625,2.10498046875,-1.7397003173828125,1.0474700927734375
1663860781461628400,0.94462841796875,2.0506591796875,-1.8515625,0.86956787109375
1663860781471516200,0.95451611328125,2.06982421875,-1.869659423828125,0.54254150390625
1663860781481404000,0.96440380859375,2.150787353515625,-1.6640625,0.00457763671875
1663860781491261000,0.974260986328125,2.3201751708984375,-1.3647308349609375,-0.7624053955078125
1663860781501148700,0.984148681640625,2.495941162109375,-1.2603302001953125,-1.4047698974609375
1663860781511036400,0.994036376953125,2.5321502685546875,-1.07177734375,-1.7467193603515625
1663860781520924200,1.003924072265625,2.371307373046875,-0.825714111328125,-1.888397216796875
1663860781530812000,1.01381201171875,2.070892333984375,-0.4794921875,-1.9981231689453125
1663860781540699600,1.02369970703125,1.84613037109375,-0.0970611572265625,-2.090789794921875
1663860781550556700,1.033556640625,1.8599700927734375,0.14581298828125,-2.205841064453125
1663860781560475000,1.043474853515625,2.0666351318359375,0.121307373046875,-2.39971923828125
1663860781570362600,1.053362548828125,2.18914794921875,-0.1769561767578125,-2.4913330078125
1663860781580250400,1.06325048828125,2.0080413818359375,-0.9748382568359375,-2.1365966796875
1663860781590138000,1.07313818359375,1.773681640625,-2.017730712890625,-1.5261993408203125
1663860781599995100,1.0829951171875,1.8173675537109375,-2.581268310546875,-0.9712066650390625
1663860781609883000,1.0928828125,2.037872314453125,-2.2520904541015625,-0.783721923828125
1663860781619740200,1.102740234375,2.028289794921875,-1.6864471435546875,-1.032989501953125
1663860781629658400,1.112658447265625,2.016571044921875,-1.2411651611328125,-1.52301025390625
1663860781639545900,1.1225458984375,2.155059814453125,-1.31146240234375,-1.7477874755859375
1663860781649433600,1.13243359375,2.2370758056640625,-1.893096923828125,-1.6316680908203125
1663860781659321300,1.1423212890625,2.1230926513671875,-2.6963043212890625,-1.2769317626953125
1663860781669209000,1.152208984375,1.7342681884765625,-3.0308074951171875,-0.722991943359375
1663860781679066000,1.162066162109375,1.2548980712890625,-2.421478271484375,-0.382110595703125
1663860781688953900,1.171953857421875,0.8330535888671875,-1.335968017578125,-0.395965576171875
1663860781698841600,1.181841552734375,0.453826904296875,-0.24407958984375,-0.384246826171875
1663860781708729300,1.191729248046875,0.089508056640625,0.45367431640625,-0.2659912109375
1663860781718586400,1.20158642578125,-0.1480560302734375,0.3567352294921875,-0.187164306640625
1663860781728474000,1.21147412109375,-0.173614501953125,-0.3367462158203125,-0.2415008544921875
1663860781738361900,1.22136181640625,-0.138458251953125,-1.1037445068359375,-0.1850433349609375
1663860781748249600,1.23124951171875,-0.2364654541015625,-1.702423095703125,0.243194580078125
1663860781758107000,1.24110693359375,-0.572021484375,-1.94317626953125,0.2751617431640625
1663860781768025000,1.251025146484375,-0.951263427734375,-1.7844390869140625,-0.1040802001953125
1663860781777912600,1.26091259765625,-1.3592529296875,-1.143157958984375,-0.1371002197265625
1663860781787800300,1.27080029296875,-1.7534027099609375,-0.59454345703125,0.02587890625
1663860781797657600,1.28065771484375,-2.042083740234375,-0.537017822265625,0.1505279541015625
1663860781807545300,1.29054541015625,-2.246612548828125,-0.939697265625,0.3199005126953125
1663860781817432800,1.300432861328125,-2.3595428466796875,-1.426513671875,0.43707275390625
1663860781827320600,1.310320556640625,-2.3009490966796875,-1.629974365234375,0.2208251953125
1663860781837208300,1.320208251953125,-1.9579315185546875,-1.5681915283203125,-0.3128662109375
1663860781847096000,1.330095947265625,-1.3975982666015625,-1.0888214111328125,-0.9925079345703125
1663860781856983800,1.33998388671875,-0.906524658203125,-0.4890899658203125,-1.853240966796875
1663860781866871300,1.349871337890625,-0.560302734375,-0.0938720703125,-2.525421142578125
1663860781876759000,1.359759033203125,-0.4122314453125,-0.036346435546875,-2.2484588623046875
1663860781886646800,1.369646728515625,-0.3962554931640625,-0.583892822265625,-1.451629638671875
1663860781896534500,1.379534423828125,-0.4974517822265625,-1.5713958740234375,-0.875335693359375
1663860781906422300,1.38942236328125,-0.6913299560546875,-2.3682098388671875,-0.2638702392578125
1663860781916309800,1.399309814453125,-0.8330078125,-2.6291961669921875,0.3316192626953125
1663860781926197500,1.409197509765625,-0.711578369140625,-2.5727386474609375,0.3550567626953125
1663860781936085200,1.419085205078125,-0.434600830078125,-2.20416259765625,0.038665771484375
1663860781945973000,1.428972900390625,-0.152313232421875,-1.3135986328125,-0.2159271240234375
1663860781955830300,1.438830322265625,-0.0809326171875,-0.51678466796875,-0.189300537109375
1663860781965717800,1.4487177734375,-0.1565704345703125,-0.5668487548828125,-0.220184326171875
1663860781975605500,1.45860546875,-0.241790771484375,-0.5998687744140625,0.075958251953125
1663860781985493200,1.4684931640625,-0.2013092041015625,-0.5615234375,0.3625030517578125
1663860781995381000,1.478381103515625,-0.0788116455078125,-0.4368896484375,0.2847442626953125
1663860782005268700,1.488268798828125,-0.0564422607421875,-0.3165130615234375,0.1909942626953125
1663860782015125800,1.498125732421875,-0.1682891845703125,-0.43475341796875,0.0333404541015625
1663860782024983000,1.507983154296875,-0.2716217041015625,-0.3516693115234375,-0.175445556640625
1663860782034870800,1.517870849609375,-0.2812042236328125,-0.045928955078125,-0.2542724609375
1663860782044727800,1.527727783203125,-0.3483123779296875,0.01904296875,-0.1466827392578125
1663860782054615600,1.537615478515625,-0.5347442626953125,-0.1886749267578125,0.1590423583984375
1663860782064533800,1.54753369140625,-0.735015869140625,-0.3516693115234375,0.1856689453125
1663860782074421500,1.55742138671875,-0.9267578125,-0.1780242919921875,-0.1040802001953125
1663860782084309200,1.567309326171875,-0.95977783203125,0.19268798828125,-0.4140625
1663860782094196700,1.57719677734375,-0.812774658203125,0.4845733642578125,-0.746429443359375
1663860782104084500,1.58708447265625,-0.666839599609375,0.669921875,-1.136322021484375
1663860782113972200,1.59697216796875,-0.6487274169921875,0.77325439453125,-1.5826568603515625
1663860782123860000,1.60685986328125,-0.6444549560546875,0.920257568359375,-1.77227783203125
1663860782133747700,1.616747802734375,-0.65191650390625,0.8254547119140625,-1.7584381103515625
1663860782143635200,1.62663525390625,-0.7392730712890625,0.478179931640625,-1.545379638671875
1663860782153523000,1.63652294921875,-0.8330078125,0.13623046875,-1.2066192626953125
1663860782163410700,1.64641064453125,-0.88946533203125,-0.0331573486328125,-0.9701385498046875
1663860782173268000,1.65626806640625,-0.949127197265625,0.0840301513671875,-1.0596160888671875
1663860782183155700,1.66615576171875,-0.9874725341796875,0.4259796142578125,-1.2534942626953125
1663860782193043200,1.676043212890625,-0.9970703125,0.6667327880859375,-1.251373291015625
1663860782202931000,1.685930908203125,-1.0098419189453125,0.3311767578125,-1.0862579345703125
1663860782212788200,1.695788330078125,-1.05352783203125,-0.6392822265625,-0.4897003173828125
1663860782222676000,1.705676025390625,-1.22503662109375,-1.45208740234375,0.689544677734375
1663860782232533000,1.715532958984375,-1.3422088623046875,-1.6598052978515625,1.7430877685546875
1663860782242451200,1.725451171875,-1.1728363037109375,-1.8004302978515625,2.1734619140625
1663860782252339000,1.7353388671875,-0.8053131103515625,-2.20416259765625,2.3694610595703125
1663860782262226700,1.745226806640625,-0.513427734375,-2.5482330322265625,2.5857086181640625
1663860782272114400,1.755114501953125,-0.35791015625,-2.86676025390625,3.1236724853515625
1663860782282002000,1.765001953125,-0.345123291015625,-2.945587158203125,3.6041107177734375
1663860782291889700,1.7748896484375,-0.4079742431640625,-2.32879638671875,3.7191619873046875
1663860782301777400,1.78477734375,-0.34619140625,-1.018524169921875,3.3505706787109375
1663860782311665200,1.7946650390625,-0.095855712890625,-0.0533905029296875,3.0682830810546875
1663860782321522200,1.804522216796875,0.2663421630859375,0.0360870361328125,3.197174072265625
1663860782331410000,1.814409912109375,0.6849822998046875,0.2491455078125,3.0224761962890625
1663860782341297700,1.824297607421875,0.9981689453125,0.9479522705078125,2.482391357421875
1663860782351185400,1.834185302734375,1.1409149169921875,1.023590087890625,2.60595703125
1663860782361073200,1.8440732421875,1.216552734375,0.3247833251953125,2.7678680419921875
1663860782370960600,1.853960693359375,1.3262786865234375,-0.0757598876953125,2.614471435546875
1663860782380848400,1.863848388671875,1.2698211669921875,0.2608642578125,2.217132568359375
1663860782390705700,1.87370556640625,1.1291961669921875,1.1961669921875,1.7207183837890625
1663860782400593400,1.883593505859375,1.1888580322265625,2.003631591796875,1.0240325927734375
1663860782410481200,1.893481201171875,1.2676849365234375,2.304046630859375,0.49566650390625
1663860782420368600,1.90336865234375,1.274078369140625,1.8875274658203125,0.3742218017578125
1663860782430256400,1.91325634765625,1.33160400390625,1.0747222900390625,0.48394775390625
1663860782440144100,1.92314404296875,1.5329437255859375,0.22357177734375,0.619232177734375
1663860782450031900,1.933031982421875,2.0304107666015625,-0.102386474609375,0.6533203125
1663860782459919600,1.942919677734375,2.6344146728515625,0.217193603515625,0.3646392822265625
1663860782469776600,1.952776611328125,2.984893798828125,0.5527496337890625,-0.076385498046875
1663860782479634000,1.962634033203125,3.234161376953125,0.6560821533203125,-0.3757171630859375
1663860782489521700,1.972521728515625,3.6038055419921875,0.715728759765625,-0.6729278564453125
1663860782499409200,1.9824091796875,3.8935699462890625,0.6997528076171875,-0.8934326171875
1663860782509297000,1.992296875,3.9958343505859375,1.0662078857421875,-0.9712066650390625
1663860782519184600,2.0021845703125,3.9755859375,1.3261260986328125,-0.9584197998046875
1663860782529072400,2.012072265625,3.588897705078125,1.6947021484375,-0.6505584716796875
1663860782538960100,2.021960205078125,3.0807647705078125,2.5554351806640625,-0.210601806640625
1663860782548847600,2.03184765625,2.7164459228515625,2.656646728515625,0.0887298583984375
1663860782558735400,2.0417353515625,2.298858642578125,1.8182830810546875,0.2442626953125
1663860782568623000,2.051623046875,1.842926025390625,1.3133392333984375,0.2208251953125
1663860782578510800,2.0615107421875,1.39764404296875,1.42626953125,0.1739501953125
1663860782588398600,2.071398681640625,0.94171142578125,1.23876953125,0.301788330078125
1663860782598286000,2.0812861328125,0.64984130859375,1.1120147705078125,0.290069580078125
1663860782608173800,2.091173828125,0.6168060302734375,1.261138916015625,0.1047210693359375
1663860782618031000,2.101031005859375,0.900177001953125,1.5338592529296875,0.00457763671875
1663860782627918800,2.1109189453125,1.283660888671875,1.8310699462890625,-0.04229736328125
1663860782637806600,2.120806640625,1.4541015625,1.9130859375,-0.0582733154296875
1663860782647694000,2.130694091796875,1.7023162841796875,2.027069091796875,-0.0902252197265625
1663860782657581800,2.140581787109375,1.9782257080078125,2.073944091796875,-0.187164306640625
1663860782667470600,2.150470703125,2.037872314453125,1.3975067138671875,-0.42578125
1663860782677328000,2.160327880859375,1.6905975341796875,0.4025421142578125,-0.5845184326171875
1663860782687215600,2.170215576171875,1.001373291015625,-0.2334136962890625,-0.5344390869140625
1663860782697103400,2.180103271484375,0.3909759521484375,-0.3814849853515625,-0.3597412109375
1663860782706990800,2.189990966796875,0.4996337890625,-0.264312744140625,-0.1488189697265625
1663860782716878600,2.199878662109375,1.05889892578125,-0.3601837158203125,-0.1147308349609375
1663860782726766300,2.209766357421875,1.4146881103515625,-0.494415283203125,-0.358673095703125
1663860782736654000,2.219654052734375,1.66290283203125,-0.4400787353515625,-0.7773284912109375
1663860782746511000,2.229510986328125,1.971832275390625,-0.4251708984375,-1.06494140625
1663860782756368400,2.239368408203125,2.2040557861328125,-0.5913543701171875,-1.0745391845703125
1663860782766256000,2.249256103515625,2.458648681640625,-0.8502044677734375,-0.894500732421875
1663860782776144000,2.259143798828125,2.721771240234375,-1.0430145263671875,-0.861480712890625
1663860782786001000,2.2690009765625,2.9508056640625,-1.3327789306640625,-1.22686767578125
1663860782795888600,2.278888671875,3.10101318359375,-1.7631378173828125,-1.74139404296875
1663860782805806800,2.288806884765625,3.1968841552734375,-2.1903076171875,-2.161102294921875
1663860782815694600,2.298694580078125,3.4344329833984375,-2.7303924560546875,-2.504119873046875
1663860782825551600,2.308551513671875,3.9393768310546875,-3.4537200927734375,-2.870574951171875
1663860782835469800,2.3184697265625,4.50396728515625,-4.141876220703125,-3.1145172119140625
1663860782845357600,2.328357666015625,4.6765289306640625,-4.6255035400390625,-3.02716064453125
1663860782855245300,2.338245361328125,4.61474609375,-4.6297607421875,-2.7491302490234375
1663860782865102600,2.3481025390625,4.674407958984375,-4.1908721923828125,-2.650054931640625
1663860782874959600,2.357959716796875,4.8363189697265625,-3.329071044921875,-2.9046630859375
1663860782884847400,2.367847412109375,4.925811767578125,-2.341583251953125,-3.1571197509765625
1663860782894735000,2.377735107421875,4.9662933349609375,-1.72479248046875,-3.2828216552734375
1663860782904622800,2.387622802734375,4.855499267578125,-1.6821746826171875,-3.3669891357421875
1663860782914479900,2.39747998046875,4.4155426025390625,-1.5628662109375,-3.1688385009765625
1663860782924398000,2.407398193359375,3.168121337890625,-0.9119873046875,-2.833282470703125
1663860782934285800,2.417285888671875,1.126007080078125,-0.355926513671875,-2.593597412109375
1663860782944143000,2.42714306640625,-0.721160888671875,-0.560455322265625,-2.38800048828125
1663860782954061300,2.437061279296875,-1.292144775390625,-1.0909576416015625,-2.266571044921875
1663860782963949000,2.446948974609375,0.1033477783203125,0.16925048828125,-2.8929443359375
1663860782973806000,2.45680615234375,1.58514404296875,0.4366302490234375,-3.52783203125
1663860782983724300,2.466724365234375,0.2098846435546875,-1.5831146240234375,-2.5850830078125
1663860782993581600,2.47658154296875,-0.2471160888671875,-0.9652557373046875,-2.3698883056640625
1663860783003469300,2.48646923828125,-0.551788330078125,-1.24755859375,-1.919281005859375
1663860783013356800,2.496356689453125,-0.6146392822265625,-1.46380615234375,-1.4921112060546875
1663860783023244500,2.50624462890625,-0.596527099609375,-1.7077484130859375,-1.25775146484375
1663860783033101800,2.516101806640625,-0.61676025390625,-1.9176025390625,-1.063873291015625
1663860783043020000,2.52602001953125,-0.594390869140625,-1.918670654296875,-0.7879791259765625
1663860783052877000,2.535876953125,-0.58160400390625,-1.770599365234375,-0.4566802978515625
1663860783062764800,2.545764892578125,-0.595458984375,-1.4329071044921875,-0.19781494140625
1663860783072652500,2.555652587890625,-0.5645599365234375,-1.1463470458984375,0.003509521484375
1663860783082540300,2.565540283203125,-0.5336761474609375,-1.0131988525390625,0.2091064453125
1663860783092428000,2.575427978515625,-0.5912017822265625,-0.93756103515625,0.41790771484375
1663860783102315800,2.585315673828125,-0.6348724365234375,-0.905609130859375,0.6373443603515625
1663860783112203300,2.595203369140625,-0.6348724365234375,-0.8427581787109375,0.8866119384765625
1663860783122091000,2.605091064453125,-0.6828155517578125,-0.7916107177734375,1.1422882080078125
1663860783131978800,2.614978759765625,-0.7477874755859375,-0.698944091796875,1.4043426513671875
1663860783141836000,2.6248359375,-0.8276824951171875,-0.572174072265625,1.694091796875
1663860783151723500,2.6347236328125,-0.9640350341796875,-0.4560546875,1.990234375
1663860783161611300,2.644611328125,-1.108917236328125,-0.3388824462890625,2.2245941162109375
1663860783171499000,2.6544990234375,-1.1739044189453125,-0.3047943115234375,2.310882568359375
1663860783181386800,2.66438671875,-1.130218505859375,-0.42303466796875,2.1777191162109375
1663860783191274500,2.6742744140625,-1.0034637451171875,-0.6701812744140625,1.759063720703125
1663860783201162000,2.684161865234375,-0.8979949951171875,-0.9439544677734375,1.055999755859375
1663860783211049700,2.6940498046875,-0.8021240234375,-0.96844482421875,0.247467041015625
1663860783220937500,2.7039375,-0.630615234375,-0.640350341796875,-0.5727996826171875
1663860783230825200,2.7138251953125,-0.4825439453125,-0.4965362548828125,-1.4612274169921875
1663860783240713000,2.723712890625,-0.2950592041015625,-0.8193206787109375,-2.1664276123046875
1663860783250600400,2.733600341796875,-0.1682891845703125,-1.32318115234375,-2.309173583984375
1663860783260488200,2.74348828125,-0.1235504150390625,-1.74395751953125,-1.8958587646484375
1663860783270376000,2.7533759765625,-0.061767578125,-1.74395751953125,-1.35150146484375
1663860783280263700,2.763263671875,-0.2939910888671875,-1.67578125,-1.02020263671875
1663860783290120700,2.77312060546875,-0.6806793212890625,-1.84942626953125,-0.9797210693359375
1663860783300008400,2.783008544921875,-0.746734619140625,-1.794036865234375,-0.99676513671875
1663860783309896200,2.792896240234375,-0.514495849609375,-0.9663238525390625,-0.6377716064453125
1663860783319784000,2.802783935546875,-0.4101104736328125,0.0818939208984375,0.1824798583984375
1663860783329641200,2.81264111328125,-0.3419342041015625,0.7689971923828125,1.0698394775390625
1663860783339528700,2.82252880859375,0.0479583740234375,1.1237335205078125,0.973968505859375
1663860783349416400,2.83241650390625,0.101226806640625,1.129058837890625,-0.4119415283203125
1663860783359304200,2.84230419921875,-0.4441986083984375,0.4259796142578125,-1.794647216796875
1663860783369192000,2.85219189453125,-0.6945343017578125,0.0243682861328125,-1.1384429931640625
1663860783379079700,2.86207958984375,-0.6018524169921875,-0.3197021484375,0.3848724365234375
1663860783388967200,2.87196728515625,-0.537933349609375,-0.9972076416015625,0.9888916015625
1663860783398824400,2.881824462890625,-0.1746826171875,-2.1040191650390625,0.451995849609375
1663860783408712200,2.891712158203125,0.31854248046875,-2.45343017578125,-0.6068878173828125
1663860783418600000,2.901599853515625,0.3686065673828125,-0.1194305419921875,-0.2841033935546875
1663860783428487400,2.9114873046875,0.2439727783203125,2.72161865234375,1.54388427734375
1663860783438375200,2.921375244140625,0.1299896240234375,4.2715911865234375,3.07147216796875
1663860783448263000,2.931262939453125,0.0969696044921875,4.3376312255859375,3.4762725830078125
1663860783458150700,2.941150634765625,-0.011688232421875,3.1647796630859375,3.40277099609375
1663860783468038400,2.951038330078125,-0.2950592041015625,1.4049530029296875,3.47308349609375
1663860783477926000,2.96092578125,-0.4974517822265625,0.12451171875,3.746856689453125
1663860783487783200,2.970783203125,-0.540069580078125,-0.4390106201171875,3.8182220458984375
1663860783497671000,2.9806708984375,-0.49212646484375,-0.4720458984375,3.52740478515625
1663860783507558700,2.99055859375,-0.3408660888671875,-0.0853424072265625,3.1556243896484375
1663860783517415700,3.000415771484375,-0.10650634765625,0.5506134033203125,2.912750244140625
1663860783527273000,3.01027294921875,0.1448974609375,1.2259979248046875,2.796630859375
1663860783537191200,3.020191162109375,0.3515625,1.710693359375,2.71673583984375
1663860783547048400,3.03004833984375,0.4687347412109375,1.8236083984375,2.546295166015625
1663860783556936000,3.03993603515625,0.45062255859375,1.6350555419921875,2.227783203125
1663860783566854100,3.049854248046875,0.303619384765625,1.615875244140625,1.86346435546875
1663860783576711400,3.05971142578125,0.077789306640625,1.902435302734375,1.6280364990234375
1663860783586599200,3.06959912109375,-0.16510009765625,2.257171630859375,1.6184539794921875
1663860783596487000,3.07948681640625,-0.32061767578125,2.4201507568359375,1.897552490234375
1663860783606374400,3.08937451171875,-0.3067779541015625,2.3967132568359375,2.3502960205078125
1663860783616231700,3.099231689453125,-0.23114013671875,2.3093719482421875,2.696502685546875
1663860783626150000,3.10914990234375,-0.2353973388671875,2.233734130859375,2.801971435546875
1663860783636037600,3.11903759765625,-0.2471160888671875,2.151702880859375,2.66241455078125
1663860783645925400,3.12892529296875,-0.13739013671875,2.0228118896484375,2.30023193359375
1663860783655782400,3.138782470703125,0.1267852783203125,1.810821533203125,1.827239990234375
1663860783665670100,3.148670166015625,0.5188140869140625,1.399627685546875,1.3702545166015625
1663860783675558000,3.158557861328125,0.9129486083984375,0.86273193359375,1.01019287109375
1663860783685445600,3.168445556640625,1.1345367431640625,0.386566162109375,0.8003387451171875
1663860783695333000,3.1783330078125,1.1569061279296875,0.1426239013671875,0.7886199951171875
1663860783705190400,3.1881904296875,1.0844573974609375,0.1852264404296875,0.9931488037109375
1663860783715078100,3.198078125,0.97900390625,0.4344940185546875,1.3659820556640625
1663860783724966000,3.2079658203125,0.829864501953125,0.7136077880859375,1.7228546142578125
1663860783734853400,3.217853271484375,0.63385009765625,0.94476318359375,1.843231201171875
1663860783744741000,3.2277412109375,0.46661376953125,1.12799072265625,1.648284912109375
1663860783754628900,3.23762890625,0.3654022216796875,1.1780548095703125,1.215789794921875
1663860783764516600,3.2475166015625,0.2791290283203125,1.0906982421875,0.72576904296875
1663860783774404400,3.257404296875,0.1491546630859375,1.00335693359375,0.38275146484375
1663860783784292000,3.2672919921875,0.031982421875,0.969268798828125,0.2048492431640625
1663860783794179600,3.2771796875,-0.0095672607421875,0.8478240966796875,0.11962890625
1663860783804036900,3.287036865234375,0.0245208740234375,0.5495452880859375,0.0322723388671875
1663860783813924600,3.296924560546875,0.0959014892578125,0.18096923828125,-0.140289306640625
1663860783823812400,3.306812255859375,0.1193389892578125,0.0946807861328125,-0.292633056640625
1663860783833669400,3.31666943359375,0.01068115234375,0.39508056640625,-0.3107452392578125
1663860783843557000,3.32655712890625,-0.230072021484375,0.763671875,-0.3011474609375
1663860783853444900,3.33644482421875,-0.5645599365234375,0.8243865966796875,-0.4130096435546875
1663860783863332600,3.34633251953125,-0.9320831298828125,0.4462127685546875,-0.6857147216796875
1663860783873220000,3.35622021484375,-1.24420166015625,-0.1226348876953125,-1.1054229736328125
1663860783883107800,3.36610791015625,-1.402923583984375,-0.4390106201171875,-1.5869293212890625
1663860783892995600,3.37599560546875,-1.34967041015625,-0.50506591796875,-2.082275390625
1663860783902852900,3.385852783203125,-1.050323486328125,-0.7564697265625,-2.7406005859375
1663860783912740400,3.395740234375,-0.51556396484375,-1.1932220458984375,-3.4884185791015625
1663860783922628000,3.405628173828125,0.0863037109375,-1.030242919921875,-3.9550018310546875
1663860783932515800,3.415515869140625,0.5518341064453125,0.149017333984375,-3.881500244140625
1663860783942403600,3.425403564453125,0.63812255859375,1.2227935791015625,-3.550201416015625
1663860783952291300,3.435291259765625,0.5859222412109375,1.44757080078125,-3.2721710205078125
1663860783962178800,3.4451787109375,0.682861328125,1.3250579833984375,-3.0793609619140625
1663860783972066600,3.455066650390625,0.615753173828125,1.0768585205078125,-3.0101165771484375
1663860783981923800,3.464923828125,0.2098846435546875,0.3663177490234375,-3.0324859619140625
1663860783991811600,3.4748115234375,-0.279083251953125,-0.6158447265625,-3.082550048828125
1663860784001729800,3.484729736328125,-0.74566650390625,-1.25714111328125,-3.1240997314453125
1663860784011586800,3.4945869140625,-1.1813507080078125,-1.2550048828125,-3.1848297119140625
1663860784021474600,3.504474609375,-1.5573883056640625,-0.856597900390625,-3.2860260009765625
1663860784031362300,3.5143623046875,-1.8418121337890625,-0.67657470703125,-3.347808837890625
1663860784041250000,3.52425,-1.9717864990234375,-0.87896728515625,-3.27642822265625
1663860784051137800,3.5341376953125,-1.873779296875,-1.234771728515625,-3.119842529296875
1663860784060994800,3.543994873046875,-1.630889892578125,-1.5447540283203125,-2.89080810546875
1663860784070913000,3.5539130859375,-1.3102569580078125,-1.893096923828125,-2.6788177490234375
1663860784080800800,3.56380078125,-0.960845947265625,-2.1189422607421875,-2.52435302734375
1663860784090688500,3.5736884765625,-0.730743408203125,-2.045440673828125,-2.4039764404296875
1663860784100545500,3.583545654296875,-0.654052734375,-1.9452972412109375,-2.3283538818359375
1663860784110433300,3.593433349609375,-0.662567138671875,-1.939971923828125,-2.2239532470703125
1663860784120290600,3.60329052734375,-0.695587158203125,-2.0358428955078125,-2.0407257080078125
1663860784130208800,3.613208740234375,-0.7136993408203125,-2.1285247802734375,-1.7978515625
1663860784140096500,3.623096435546875,-0.711578369140625,-2.1178741455078125,-1.52301025390625
1663860784149984000,3.63298388671875,-0.7318115234375,-2.008148193359375,-1.25775146484375
1663860784159871700,3.642871826171875,-0.768035888671875,-1.8238525390625,-1.0361785888671875
1663860784169759500,3.652759521484375,-0.7850799560546875,-1.6161346435546875,-0.827392578125
1663860784179647200,3.662647216796875,-0.8074493408203125,-1.406280517578125,-0.578125
1663860784189535000,3.672534912109375,-0.8021240234375,-1.246490478515625,-0.2745208740234375
1663860784199392000,3.68239208984375,-0.7627105712890625,-1.18896484375,0.071685791015625
1663860784209279700,3.69227978515625,-0.723297119140625,-1.1836395263671875,0.440277099609375
1663860784219167500,3.70216748046875,-0.6902618408203125,-1.1580657958984375,0.8195037841796875
1663860784229055200,3.71205517578125,-0.6583099365234375,-1.082427978515625,1.2072601318359375
1663860784238912300,3.721912353515625,-0.6604461669921875,-0.927978515625,1.5939483642578125
1663860784248800000,3.731800048828125,-0.6785430908203125,-0.68402099609375,1.9508209228515625
1663860784258687700,3.741687744140625,-0.6721649169921875,-0.4315643310546875,2.2373809814453125
1663860784268575500,3.751575439453125,-0.586944580078125,-0.23980712890625,2.433380126953125
1663860784278463200,3.761463134765625,-0.4090423583984375,-0.1428680419921875,2.4578857421875
1663860784288350700,3.771350830078125,-0.183197021484375,-0.230224609375,2.274658203125
1663860784298238500,3.781238525390625,-0.013824462890625,-0.4763031005859375,2.0520172119140625
1663860784308126200,3.791126220703125,0.110809326171875,-0.813995361328125,1.603546142578125
1663860784318014000,3.801013916015625,0.112945556640625,-1.4467620849609375,0.219757080078125
1663860784327901700,3.810901611328125,0.1161346435546875,-2.165802001953125,-1.7882537841796875
1663860784337789200,3.8207890625,0.3334503173828125,-1.6875,-2.9078521728515625
1663860784347646500,3.830646484375,0.15447998046875,-1.119720458984375,-2.995208740234375
1663860784357534200,3.8405341796875,-0.39093017578125,-1.082427978515625,-2.66497802734375
1663860784367391200,3.85039111328125,-0.77655029296875,-1.519195556640625,-2.1089019775390625
1663860784377309400,3.860309326171875,-0.89373779296875,-2.043304443359375,-1.627410888671875
1663860784387197200,3.870197265625,-0.666839599609375,-1.049407958984375,-0.756011962890625
1663860784397085000,3.8800849609375,-0.3962554931640625,1.2377166748046875,0.8951416015625
1663860784406972700,3.88997265625,0.1172027587890625,2.151702880859375,1.9167327880859375
1663860784416829700,3.89982958984375,0.85223388671875,1.3719329833984375,0.6256256103515625
1663860784426687000,3.90968701171875,0.84051513671875,-0.0438079833984375,-2.1653594970703125
1663860784436605200,3.919605224609375,0.0255889892578125,-0.332489013671875,-2.9334259033203125
1663860784446493000,3.929492919921875,-0.570953369140625,-0.090667724609375,-1.0457763671875
1663860784456380700,3.939380615234375,-0.904388427734375,-1.0206451416015625,0.323089599609375
1663860784466237700,3.94923779296875,-0.97149658203125,-2.2190704345703125,0.689544677734375
1663860784476125400,3.95912548828125,-0.525146484375,-2.8220062255859375,0.346527099609375
1663860784485982700,3.968982666015625,-0.058563232421875,-0.8043975830078125,0.46051025390625
1663860784495901000,3.97890087890625,-0.1160888671875,2.82708740234375,2.1308441162109375
1663860784505788700,3.98878857421875,-0.21942138671875,4.5048828125,3.392120361328125
1663860784515645700,3.998645751953125,-0.011688232421875,4.161865234375,3.1566925048828125
1663860784525564000,4.00856396484375,0.376068115234375,2.8632965087890625,2.5548248291015625
1663860784535451600,4.01845166015625,0.6903076171875,1.048095703125,2.48876953125
1663860784545339400,4.02833935546875,0.718017578125,-0.410247802734375,2.870147705078125
1663860784555227100,4.03822705078125,0.4154815673828125,-0.981231689453125,3.0895843505859375
1663860784565114600,4.048114501953125,0.11187744140625,-1.0014801025390625,2.9553680419921875
1663860784575002400,4.05800244140625,0.0618133544921875,-0.6808319091796875,2.6570892333984375
1663860784584890000,4.06789013671875,0.2152099609375,-0.1226348876953125,2.3822479248046875
1663860784594777900,4.07777783203125,0.395233154296875,0.397216796875,2.204345703125
1663860784604665600,4.08766552734375,0.488983154296875,0.577239990234375,2.1414947509765625
1663860784614553000,4.097552978515625,0.522003173828125,0.47711181640625,2.2118072509765625
1663860784624380000,4.1073798828125,0.524139404296875,0.226776123046875,2.368408203125
1663860784634267600,4.117267578125,0.4761962890625,0.031829833984375,2.57293701171875
1663860784644155100,4.127155029296875,0.3654022216796875,0.2331695556640625,2.7678680419921875
1663860784654012400,4.137012451171875,0.2386474609375,0.7572784423828125,2.9074249267578125
1663860784663930600,4.1469306640625,0.1448974609375,1.3058929443359375,2.9979705810546875
1663860784673818400,4.156818359375,0.0511627197265625,1.8001708984375,3.0128936767578125
1663860784683706000,4.1667060546875,-0.037261962890625,2.083526611328125,2.945770263671875
1663860784693563100,4.176563232421875,-0.051116943359375,2.0963134765625,2.809417724609375
1663860784703420400,4.18642041015625,0.0277252197265625,1.900299072265625,2.58251953125
1663860784713338600,4.196338623046875,0.2056121826171875,1.641448974609375,2.1968994140625
1663860784723226400,4.206226318359375,0.4229278564453125,1.42626953125,1.7111358642578125
1663860784733114000,4.216114013671875,0.648773193359375,1.071533203125,1.25732421875
1663860784742971100,4.22597119140625,0.8309326171875,0.4803009033203125,0.9356231689453125
1663860784752889300,4.235889404296875,0.9022979736328125,-0.0864105224609375,0.802459716796875
1663860784762746600,4.24574658203125,0.85009765625,-0.31011962890625,0.870635986328125
1663860784772634400,4.25563427734375,0.73931884765625,-0.04913330078125,1.1262969970703125
1663860784782491400,4.265491455078125,0.6168060302734375,0.4962921142578125,1.4608001708984375
1663860784792409600,4.27540966796875,0.45062255859375,0.9479522705078125,1.70367431640625
1663860784802297300,4.28529736328125,0.296173095703125,1.118408203125,1.7462921142578125
1663860784812154600,4.295154541015625,0.2439727783203125,1.023590087890625,1.5364227294921875
1663860784822042000,4.3050419921875,0.307891845703125,0.7434234619140625,1.12310791015625
1663860784831929900,4.314929931640625,0.39630126953125,0.440887451171875,0.6810150146484375
1663860784841817600,4.324817626953125,0.3813934326171875,0.315185546875,0.3742218017578125
1663860784851675000,4.3346748046875,0.2173309326171875,0.4344940185546875,0.2943267822265625
1663860784861562400,4.344562255859375,0.0053558349609375,0.5282440185546875,0.348663330078125
1663860784871450000,4.3544501953125,-0.084136962890625,0.37164306640625,0.301788330078125
1663860784881368300,4.364368408203125,-0.0436553955078125,0.010528564453125,0.050384521484375
1663860784891225600,4.3742255859375,-0.04791259765625,-0.32183837890625,-0.2851715087890625
1663860784901143800,4.384143798828125,-0.220489501953125,-0.3399505615234375,-0.5387115478515625
1663860784911000800,4.394000732421875,-0.4825439453125,0.000946044921875,-0.645233154296875
1663860784920858000,4.403858154296875,-0.78082275390625,0.4866943359375,-0.6718597412109375
1663860784930776300,4.4137763671875,-1.085479736328125,0.696563720703125,-0.8124847412109375
1663860784940664000,4.4236640625,-1.2846832275390625,0.30560302734375,-1.1768035888671875
1663860784950551800,4.4335517578125,-1.3294219970703125,-0.42303466796875,-1.703033447265625
1663860784960439600,4.443439453125,-1.278289794921875,-0.774566650390625,-2.2718963623046875
1663860784970296600,4.453296630859375,-1.07269287109375,-0.778839111328125,-2.912109375
1663860784980214800,4.46321484375,-0.674285888671875,-0.9098663330078125,-3.4873504638671875
1663860784990072000,4.473072021484375,-0.26416015625,-0.8182525634765625,-3.76007080078125
1663860784999929000,4.48292919921875,-0.0457763671875,-0.13861083984375,-3.6759033203125
1663860785009847300,4.492847412109375,0.0032196044921875,0.612396240234375,-3.3637847900390625
1663860785019735000,4.502735107421875,0.078857421875,1.011871337890625,-3.12835693359375
1663860785029592300,4.51259228515625,0.352630615234375,1.28778076171875,-3.1155853271484375
1663860785039510500,4.522510498046875,0.63385009765625,1.5572967529296875,-3.21038818359375
1663860785049398300,4.532398193359375,0.5347900390625,1.561553955078125,-3.2743072509765625
1663860785059285800,4.54228564453125,0.112945556640625,0.84356689453125,-3.23382568359375
1663860785069173500,4.552173583984375,-0.358978271484375,-0.3782958984375,-3.1954803466796875
1663860785079061200,4.562061279296875,-0.8202362060546875,-0.9428863525390625,-3.3744354248046875
1663860785088949000,4.571948974609375,-1.2974700927734375,-0.98016357421875,-3.679107666015625
1663860785098836700,4.581836669921875,-1.703338623046875,-0.9333038330078125,-3.827178955078125
1663860785108693800,4.59169384765625,-1.9483489990234375,-0.927978515625,-3.6386260986328125
1663860785118581500,4.60158154296875,-2.0367584228515625,-1.0771026611328125,-3.2263641357421875
1663860785128469200,4.61146923828125,-1.952606201171875,-1.2273101806640625,-2.856719970703125
1663860785138357000,4.62135693359375,-1.7214508056640625,-1.60015869140625,-2.6202392578125
1663860785148244700,4.63124462890625,-1.327301025390625,-2.019866943359375,-2.4444580078125
1663860785158132200,4.64113232421875,-0.9864044189453125,-2.2627410888671875,-2.274017333984375
1663860785168020000,4.65102001953125,-0.7818756103515625,-2.2872467041015625,-2.1429901123046875
1663860785177907700,4.66090771484375,-0.641265869140625,-2.1508941650390625,-2.024749755859375
1663860785187795500,4.67079541015625,-0.5879974365234375,-1.9548797607421875,-1.8915863037109375
1663860785197683200,4.68068310546875,-0.58587646484375,-1.9452972412109375,-1.6923828125
1663860785207570700,4.69057080078125,-0.570953369140625,-2.0060272216796875,-1.4622955322265625
1663860785217428000,4.700427978515625,-0.594390869140625,-1.939971923828125,-1.239654541015625
1663860785227315700,4.710315673828125,-0.6380767822265625,-1.6683349609375,-1.0372467041015625
1663860785237203500,4.720203369140625,-0.6370086669921875,-1.4190521240234375,-0.8444366455078125
1663860785247091000,4.730091064453125,-0.6146392822265625,-1.197479248046875,-0.6367034912109375
1663860785256978700,4.739978759765625,-0.6103668212890625,-0.9418182373046875,-0.3767852783203125
1663860785266866400,4.749866455078125,-0.5784149169921875,-0.7948150634765625,-0.04974365234375
1663860785276723700,4.7597236328125,-0.5230255126953125,-0.7703094482421875,0.3199005126953125
1663860785286611200,4.769611083984375,-0.4708251953125,-0.7447509765625,0.7076568603515625
1663860785296499000,4.7794990234375,-0.4537811279296875,-0.6893463134765625,1.110321044921875
1663860785306356200,4.789356201171875,-0.4654998779296875,-0.5998687744140625,1.53216552734375
1663860785316244000,4.799243896484375,-0.502777099609375,-0.4603271484375,1.978515625
1663860785326131500,4.80913134765625,-0.5411376953125,-0.2238311767578125,2.423797607421875
1663860785336019200,4.819019287109375,-0.55072021484375,0.033966064453125,2.7913055419921875
1663860785345907000,4.828906982421875,-0.5219573974609375,0.1990814208984375,3.0224761962890625
1663860785355794700,4.838794677734375,-0.4665679931640625,0.1958770751953125,3.062957763671875
1663860785365682400,4.848682373046875,-0.438873291015625,-0.1055908203125,2.8158111572265625
1663860785375570200,4.858570068359375,-0.4633636474609375,-0.459259033203125,2.2810516357421875
1663860785385457700,4.868457763671875,-0.4622955322265625,-0.49334716796875,1.4693145751953125
1663860785395315000,4.87831494140625,-0.265228271484375,-0.626495361328125,0.2826080322265625
1663860785405202700,4.88820263671875,0.1960296630859375,-0.7607269287109375,-1.28546142578125
1663860785415059700,4.898059814453125,0.463409423828125,-0.4752349853515625,-2.5200958251953125
1663860785424978000,4.90797802734375,0.01812744140625,-1.00787353515625,-3.016510009765625
1663860785434865700,4.91786572265625,-0.411163330078125,-1.655548095703125,-2.833282470703125
1663860785444753400,4.92775341796875,-0.548583984375,-1.8004302978515625,-2.238861083984375
1663860785454641200,4.93764111328125,-0.5784149169921875,-1.7407684326171875,-1.5762786865234375
1663860785464498200,4.947498291015625,-0.24072265625,-0.9311676025390625,-0.5738525390625
1663860785474386000,4.957385986328125,0.1725921630859375,0.7242584228515625,0.8791656494140625
1663860785484243200,4.9672431640625,0.691375732421875,1.9333343505859375,1.4458770751953125
1663860785494161400,4.977161376953125,1.3497161865234375,1.8768768310546875,0.0131072998046875
1663860785504049200,4.987049072265625,0.93426513671875,-0.3282318115234375,-2.8812255859375
1663860785513936600,4.9969365234375,-0.4441986083984375,-0.9705810546875,-3.0932159423828125
1663860785523824400,5.006824462890625,-1.3177032470703125,0.1415557861328125,-0.5014190673828125
1663860785533712100,5.016712158203125,-1.6031951904296875,-0.136474609375,1.314849853515625
1663860785543599900,5.026599853515625,-1.4125213623046875,-1.0227813720703125,1.9934234619140625
1663860785553487600,5.036487548828125,-0.75738525390625,-2.2659454345703125,1.157196044921875
1663860785563375000,5.046375,-0.1544342041015625,-0.9173126220703125,0.588348388671875
1663860785573262800,5.056262939453125,0.0490264892578125,3.087005615234375,2.4696044921875
1663860785583120100,5.0661201171875,0.1843109130859375,4.9022216796875,4.089874267578125
1663860785593007900,5.0760078125,0.4698028564453125,4.3024749755859375,4.009979248046875
1663860785602895600,5.0858955078125,0.8192138671875,2.70989990234375,3.345245361328125
1663860785612783000,5.095783203125,0.9033660888671875,0.9852447509765625,2.937255859375
1663860785622670800,5.1056708984375,0.5369110107421875,0.1905517578125,2.808349609375
1663860785632558600,5.11555859375,0.052215576171875,0.19482421875,2.5974273681640625
1663860785642446300,5.1254462890625,-0.232208251953125,0.06591796875,2.3012847900390625
1663860785652303400,5.135303466796875,-0.2098388671875,0.0478057861328125,2.10101318359375
1663860785662191000,5.145191162109375,-0.0425872802734375,0.4803009033203125,2.09356689453125
1663860785672078800,5.155078857421875,0.124664306640625,1.037445068359375,2.254425048828125
1663860785681966600,5.164966552734375,0.2674102783203125,1.2718048095703125,2.4653472900390625
1663860785691823600,5.17482373046875,0.4154815673828125,1.1333160400390625,2.6901092529296875
1663860785701681000,5.184680908203125,0.5731353759765625,0.9042816162109375,2.8744049072265625
1663860785711599000,5.19459912109375,0.6881866455078125,0.8414306640625,2.9681396484375
1663860785721456400,5.204456298828125,0.7084197998046875,1.068328857421875,3.02886962890625
1663860785731344000,5.21434375,0.5827178955078125,1.4507598876953125,3.0895843505859375
1663860785741231600,5.224231689453125,0.3451690673828125,2.0196075439453125,3.1151580810546875
1663860785751119400,5.234119384765625,0.0351715087890625,2.527740478515625,3.0767974853515625
1663860785760976600,5.2439765625,-0.279083251953125,2.687530517578125,2.9862518310546875
1663860785770864000,5.253864013671875,-0.448455810546875,2.518157958984375,2.774261474609375
1663860785780782300,5.2637822265625,-0.3760223388671875,2.128265380859375,2.3641357421875
1663860785790639600,5.2736396484375,-0.070281982421875,1.6712799072265625,1.8347015380859375
1663860785800557800,5.283557861328125,0.29296875,1.185516357421875,1.408599853515625
1663860785810445600,5.293445556640625,0.5465087890625,0.6411590576171875,1.1145782470703125
1663860785820333300,5.303333251953125,0.6413116455078125,0.2310333251953125,0.905792236328125
1663860785830190300,5.3131904296875,0.6050872802734375,0.0957489013671875,0.8248291015625
1663860785840047600,5.323047607421875,0.496429443359375,0.2608642578125,0.9302978515625
1663860785849935400,5.332935302734375,0.31854248046875,0.56658935546875,1.18914794921875
1663860785859823000,5.342822998046875,0.1289215087890625,0.783905029296875,1.5023345947265625
1663860785869741300,5.3527412109375,0.0245208740234375,0.775390625,1.737762451171875
1663860785879628800,5.36262890625,0.0479583740234375,0.5761871337890625,1.7761077880859375
1663860785889516500,5.3725166015625,0.2578125,0.341827392578125,1.626983642578125
1663860785899404300,5.382404296875,0.4761962890625,0.2491455078125,1.32763671875
1663860785909292000,5.3922919921875,0.4911041259765625,0.3013458251953125,1.0155181884765625
1663860785919179800,5.4021796875,0.3781890869140625,0.4387664794921875,0.8365478515625
1663860785929067300,5.4120673828125,0.1853790283203125,0.7221221923828125,0.7289581298828125
1663860785938955000,5.421955078125,-0.014892578125,0.966064453125,0.6629180908203125
1663860785948812300,5.431812255859375,-0.1555023193359375,0.9468994140625,0.6053924560546875
1663860785958700000,5.441699951171875,-0.2023773193359375,0.646484375,0.508453369140625
1663860785968587500,5.45158740234375,-0.1672210693359375,0.2491455078125,0.37103271484375
1663860785978475300,5.461475341796875,-0.1629638671875,-0.05657958984375,0.1814117431640625
1663860785988363000,5.471363037109375,-0.2961273193359375,-0.036346435546875,-0.04974365234375
1663860785998250800,5.481250732421875,-0.551788330078125,0.397216796875,-0.257476806640625
1663860786008107800,5.491107666015625,-0.8639068603515625,0.8819122314453125,-0.528045654296875
1663860786017995500,5.50099560546875,-1.200531005859375,1.0395660400390625,-0.882781982421875
1663860786027883300,5.51088330078125,-1.395477294921875,0.922393798828125,-1.3472442626953125
1663860786037771000,5.52077099609375,-1.40399169921875,0.7231903076171875,-1.9299468994140625
1663860786047658800,5.53065869140625,-1.243133544921875,0.59002685546875,-2.4274139404296875
1663860786057546200,5.540546142578125,-0.902252197265625,0.5037384033203125,-2.8194427490234375
1663860786067434000,5.55043408203125,-0.4314117431640625,0.372711181640625,-3.2753753662109375
1663860786077321700,5.56032177734375,0.0511627197265625,0.2864227294921875,-3.7462158203125
1663860786087209500,5.57020947265625,0.3994903564453125,0.2374267578125,-3.86126708984375
1663860786097066800,5.580066650390625,0.601898193359375,0.4803009033203125,-3.7930908203125
1663860786106954200,5.589954345703125,0.9033660888671875,0.8808441162109375,-3.7994842529296875
1663860786116842000,5.599842041015625,1.203765869140625,1.232391357421875,-3.9102630615234375
1663860786126729700,5.609729736328125,1.24957275390625,1.6222686767578125,-4.0391693115234375
1663860786136617500,5.619617431640625,1.02374267578125,1.9407806396484375,-4.193634033203125
1663860786146474500,5.629474609375,0.6423797607421875,1.722412109375,-4.2298431396484375
1663860786156362200,5.6393623046875,0.1097412109375,1.080047607421875,-4.0721893310546875
1663860786166250000,5.64925,-0.438873291015625,0.3460845947265625,-3.817596435546875
1663860786176137700,5.6591376953125,-0.801055908203125,-0.2600555419921875,-3.63330078125
1663860786186025500,5.669025390625,-1.015167236328125,-0.4155731201171875,-3.4884185791015625
1663860786195913000,5.678912841796875,-1.186676025390625,-0.2376861572265625,-3.2615203857421875
1663860786205800700,5.68880078125,-1.327301025390625,-0.1876068115234375,-2.962188720703125
1663860786215688400,5.6986884765625,-1.3667144775390625,-0.3942718505859375,-2.6894683837890625
1663860786225576200,5.708576171875,-1.3123779296875,-0.70745849609375,-2.5318145751953125
1663860786235464000,5.7184638671875,-1.2282257080078125,-0.8736419677734375,-2.445526123046875
1663860786245351400,5.728351318359375,-1.0662994384765625,-0.8949432373046875,-2.424224853515625
1663860786255208700,5.738208740234375,-0.8159637451171875,-1.072845458984375,-2.4050445556640625
1663860786265096400,5.748096435546875,-0.58160400390625,-1.33489990234375,-2.309173583984375
1663860786274984200,5.757984130859375,-0.570953369140625,-1.496826171875,-2.06842041015625
1663860786284871700,5.76787158203125,-0.6103668212890625,-1.5692596435546875,-1.7360687255859375
1663860786294759400,5.777759521484375,-0.6135711669921875,-1.6502227783203125,-1.3600311279296875
1663860786304647200,5.787647216796875,-0.6103668212890625,-1.669403076171875,-1.0457763671875
1663860786314535000,5.797534912109375,-0.6380767822265625,-1.5799102783203125,-0.807159423828125
1663860786324392200,5.80739208984375,-0.6465911865234375,-1.4201202392578125,-0.5610809326171875
1663860786334279700,5.81727978515625,-0.6252899169921875,-1.1836395263671875,-0.2649383544921875
1663860786344167400,5.82716748046875,-0.60931396484375,-0.913055419921875,0.0706329345703125
1663860786354055200,5.83705517578125,-0.595458984375,-0.661651611328125,0.447723388671875
1663860786363943000,5.84694287109375,-0.5890655517578125,-0.4848175048828125,0.8418731689453125
1663860786373830700,5.85683056640625,-0.6146392822265625,-0.3697662353515625,1.215789794921875
1663860786383718100,5.86671826171875,-0.6572418212890625,-0.2824249267578125,1.5726470947265625
1663860786393575400,5.876575439453125,-0.7019805908203125,-0.19293212890625,1.9241790771484375
1663860786403463200,5.886463134765625,-0.7254180908203125,-0.125823974609375,2.2671966552734375
1663860786413320200,5.8963203125,-0.7062530517578125,-0.1322174072265625,2.5974273681640625
1663860786423208000,5.9062080078125,-0.639129638671875,-0.2376861572265625,2.8829193115234375
1663860786433095700,5.916095703125,-0.5304718017578125,-0.501861572265625,2.938323974609375
1663860786442953000,5.925952880859375,-0.460174560546875,-0.734100341796875,2.5111541748046875
1663860786452871200,5.93587109375,-0.3504486083984375,-0.560455322265625,1.511932373046875
1663860786462758700,5.945758544921875,-0.1001129150390625,-0.00225830078125,0.247467041015625
1663860786472646400,5.955646484375,0.33984375,0.318389892578125,-1.054290771484375
1663860786482534100,5.9655341796875,0.6061553955078125,-0.2014617919921875,-2.580810546875
1663860786492422000,5.975421875,0.1640777587890625,-1.34661865234375,-3.64501953125
1663860786502309600,5.9853095703125,-0.3163604736328125,-2.21588134765625,-3.7195892333984375
1663860786512197000,5.995197021484375,-0.507049560546875,-2.4726104736328125,-3.1155853271484375
1663860786522084900,6.0050849609375,-0.6135711669921875,-2.2286529541015625,-2.2910614013671875
1663860786531972600,6.01497265625,-0.540069580078125,-1.8217315673828125,-1.454833984375
1663860786541860400,6.0248603515625,-0.0883941650390625,-0.8534088134765625,-0.3789215087890625
1663860786551717600,6.034717529296875,0.1033477783203125,0.783905029296875,0.8013916015625
1663860786561605000,6.044605224609375,0.18963623046875,2.0782012939453125,1.4053955078125
1663860786571492900,6.054492919921875,0.5038909912109375,2.8079071044921875,0.8642425537109375
1663860786581380600,6.064380615234375,0.7542266845703125,2.128265380859375,-0.689971923828125
1663860786591238000,6.07423779296875,0.4112091064453125,0.443023681640625,-1.0457763671875
1663860786601095000,6.084094970703125,-0.36962890625,0.11279296875,0.0589141845703125
1663860786610982700,6.093982666015625,-0.8660430908203125,0.2257080078125,0.633087158203125
1663860786620870400,6.103870361328125,-0.76910400390625,-0.2035980224609375,0.5020599365234375
1663860786630758100,6.113758056640625,-0.3515167236328125,-0.741546630859375,0.1814117431640625
1663860786640645600,6.123645751953125,0.01812744140625,-0.1130523681640625,0.4988555908203125
1663860786650533400,6.133533447265625,0.1214599609375,1.540252685546875,1.542816162109375
1663860786660421000,6.143421142578125,0.1299896240234375,2.999664306640625,2.3758544921875
1663860786670278400,6.1532783203125,0.1917724609375,3.7101898193359375,2.7497711181640625
1663860786680196600,6.163196533203125,0.2418365478515625,3.5397491455078125,2.842437744140625
1663860786690053600,6.1730537109375,0.1534271240234375,2.736541748046875,2.8871917724609375
1663860786699941400,6.18294140625,-0.0447235107421875,1.82147216796875,2.9766693115234375
1663860786709798700,6.192798583984375,-0.2045135498046875,1.354888916015625,3.027801513671875
1663860786719686100,6.20268603515625,-0.298248291015625,1.310150146484375,2.9287261962890625
1663860786729604400,6.212604248046875,-0.309967041015625,1.51361083984375,2.741241455078125
1663860786739492000,6.2224921875,-0.2705535888671875,1.93865966796875,2.5984954833984375
1663860786749379800,6.2323798828125,-0.2258148193359375,2.3668975830078125,2.5281982421875
1663860786759267600,6.242267578125,-0.159759521484375,2.4212188720703125,2.524993896484375
1663860786769155300,6.2521552734375,-0.037261962890625,2.0686187744140625,2.5281982421875
1663860786779043000,6.26204296875,0.1193389892578125,1.65423583984375,2.4834442138671875
1663860786788930600,6.2719306640625,0.291900634765625,1.6446380615234375,2.3939666748046875
1663860786798818300,6.281818359375,0.3920440673828125,2.083526611328125,2.33111572265625
1663860786808675600,6.291675537109375,0.36328125,2.63427734375,2.379058837890625
1663860786818563300,6.301563232421875,0.282318115234375,3.1083221435546875,2.5218048095703125
1663860786828450800,6.311450927734375,0.2407684326171875,3.4822235107421875,2.6805267333984375
1663860786838338600,6.321338623046875,0.2631378173828125,3.6164398193359375,2.83392333984375
1663860786848226300,6.331226318359375,0.3100128173828125,3.394866943359375,2.94683837890625
1663860786858114000,6.341114013671875,0.2993621826171875,3.166900634765625,2.86480712890625
1663860786868001800,6.351001708984375,0.2386474609375,3.0380096435546875,2.560150146484375
1663860786877889300,6.36088916015625,0.1917724609375,2.7748870849609375,2.1095428466796875
1663860786887777000,6.370777099609375,0.28125,2.2507781982421875,1.63336181640625
1663860786897634300,6.38063427734375,0.535858154296875,1.6137542724609375,1.2402801513671875
1663860786907522000,6.39052197265625,0.7606201171875,1.10455322265625,0.943084716796875
1663860786917379000,6.400379150390625,0.88739013671875,0.8115997314453125,0.7726287841796875
1663860786927266800,6.410266845703125,0.876739501953125,0.67205810546875,0.8717041015625
1663860786937124000,6.4201240234375,0.738250732421875,0.6624603271484375,1.23602294921875
1663860786947011600,6.430011474609375,0.5709991455078125,0.889373779296875,1.646148681640625
1663860786956929800,6.4399296875,0.4410400390625,1.261138916015625,1.850677490234375
1663860786966817500,6.449817626953125,0.3515625,1.593505859375,1.7217864990234375
1663860786976705300,6.459705322265625,0.2759246826171875,1.6904449462890625,1.2882232666015625
1663860786986593000,6.469593017578125,0.223724365234375,1.4656829833984375,0.7044525146484375
1663860786996480800,6.479480712890625,0.1534271240234375,1.16314697265625,0.2250823974609375
1663860787006368500,6.489368408203125,0.0160064697265625,1.1237335205078125,0.02587890625
1663860787016256000,6.499256103515625,-0.14166259765625,1.308013916015625,0.0429229736328125
1663860787026143700,6.509143798828125,-0.2726898193359375,1.444366455078125,0.1004486083984375
1663860787036031500,6.519031494140625,-0.31103515625,1.411346435546875,0.1015167236328125
1663860787045919200,6.528919189453125,-0.239654541015625,1.3133392333984375,0.04931640625
1663860787055807000,6.538806884765625,-0.175750732421875,1.3602142333984375,0.0003204345703125
1663860787065664000,6.5486640625,-0.171478271484375,1.5093536376953125,-0.0348358154296875
1663860787075551700,6.5585517578125,-0.2215576171875,1.573272705078125,-0.167999267578125
1663860787085439500,6.568439453125,-0.3834686279296875,1.4997711181640625,-0.4215240478515625
1663860787095327200,6.5783271484375,-0.652984619140625,1.3484954833984375,-0.687835693359375
1663860787105214700,6.588214599609375,-0.8798828125,1.0438385009765625,-0.9477691650390625
1663860787115102500,6.5981025390625,-0.8884124755859375,0.727447509765625,-1.258819580078125
1663860787124959700,6.607959716796875,-0.779754638671875,0.6869659423828125,-1.61248779296875
1663860787134847500,6.617847412109375,-0.6252899169921875,0.6901702880859375,-2.02581787109375
1663860787144735000,6.62773486328125,-0.4207611083984375,0.4962921142578125,-2.59466552734375
1663860787154622700,6.637622802734375,-0.1864013671875,0.440887451171875,-3.1816253662109375
1663860787164510500,6.647510498046875,0.040496826171875,0.6518096923828125,-3.5225067138671875
1663860787174398200,6.657398193359375,0.1843109130859375,0.6528778076171875,-3.620513916015625
1663860787184286000,6.667285888671875,0.348358154296875,0.3258514404296875,-3.6950836181640625
1663860787194173400,6.67717333984375,0.5465087890625,0.3886871337890625,-3.846343994140625
1663860787204061200,6.687061279296875,0.77020263671875,0.8254547119140625,-3.951812744140625
1663860787213918500,6.69691845703125,0.832000732421875,0.844635009765625,-3.940093994140625
1663860787223806200,6.70680615234375,0.5869903564453125,0.4717864990234375,-4.0391693115234375
1663860787233694000,6.71669384765625,0.136383056640625,0.12451171875,-4.212799072265625
1663860787243581400,6.72658154296875,-0.333404541015625,-0.1812286376953125,-4.203216552734375
1663860787253469200,6.73646923828125,-0.62103271484375,-0.2952117919921875,-3.91986083984375
1663860787263357000,6.74635693359375,-0.7850799560546875,-0.3271636962890625,-3.5597991943359375
1663860787273244700,6.75624462890625,-0.91290283203125,-0.4411468505859375,-3.25726318359375
1663860787283101700,6.766101806640625,-0.9320831298828125,-0.570037841796875,-3.063385009765625
1663860787292989400,6.775989501953125,-0.8255615234375,-0.6595306396484375,-2.9525909423828125
1663860787302877200,6.785877197265625,-0.7318115234375,-0.7095947265625,-2.8375396728515625
1663860787312765000,6.795764892578125,-0.6945343017578125,-0.778839111328125,-2.7374114990234375
1663860787322652700,6.805652587890625,-0.6593780517578125,-0.822509765625,-2.66497802734375
1663860787332540200,6.8155400390625,-0.618896484375,-0.8182525634765625,-2.59466552734375
1663860787342428000,6.825427978515625,-0.55072021484375,-0.8076019287109375,-2.4796142578125
1663860787352315600,6.835315673828125,-0.4356689453125,-0.7820281982421875,-2.35284423828125
1663860787362173000,6.8451728515625,-0.34405517578125,-0.835296630859375,-2.1600341796875
1663860787372060400,6.855060302734375,-0.2950592041015625,-1.025970458984375,-1.8500518798828125
1663860787381948200,6.8649482421875,-0.2471160888671875,-1.2550048828125,-1.4857177734375
1663860787391836000,6.8748359375,-0.1917266845703125,-1.38177490234375,-1.1757354736328125
1663860787401693200,6.884693115234375,-0.1437835693359375,-1.3370361328125,-0.9445648193359375
1663860787411580700,6.89458056640625,-0.138458251953125,-1.18682861328125,-0.72406005859375
1663860787421468400,6.904468505859375,-0.1693572998046875,-0.9567413330078125,-0.4428253173828125
1663860787431356200,6.914356201171875,-0.2013092041015625,-0.7490081787109375,-0.1040802001953125
1663860787441213400,6.92421337890625,-0.22900390625,-0.649932861328125,0.2677001953125
1663860787451070500,6.934070556640625,-0.255645751953125,-0.5966796875,0.654388427734375
1663860787460988700,6.94398876953125,-0.30889892578125,-0.5572662353515625,1.043212890625
1663860787470876400,6.95387646484375,-0.387725830078125,-0.506134033203125,1.4352264404296875
1663860787480733700,6.963733642578125,-0.467620849609375,-0.4315643310546875,1.82830810546875
1663860787490621400,6.973621337890625,-0.5315399169921875,-0.3058624267578125,2.2032928466796875
1663860787500539600,6.98353955078125,-0.58160400390625,-0.1801605224609375,2.5420379638671875
1663860787510396700,6.993396728515625,-0.5912017822265625,-0.1226348876953125,2.830718994140625
1663860787520284400,7.003284423828125,-0.526214599609375,-0.21636962890625,3.002227783203125
1663860787530172200,7.013172119140625,-0.438873291015625,-0.44647216796875,2.88079833984375
1663860787540060000,7.023059814453125,-0.32489013671875,-0.52850341796875,2.356689453125
1663860787549917000,7.0329169921875,-0.1235504150390625,0.1628570556640625,1.5460205078125
1663860787559835100,7.042835205078125,0.1150665283203125,1.2590179443359375,0.597930908203125
1663860787569692400,7.0526923828125,0.5145416259765625,1.20574951171875,-0.86041259765625
1663860787579580200,7.062580078125,0.64984130859375,-0.7138519287109375,-2.70758056640625
1663860787589467600,7.072467529296875,0.1843109130859375,-2.4630126953125,-3.7866973876953125
1663860787599355400,7.08235546875,-0.159759521484375,-2.840118408203125,-3.7174530029296875
1663860787609243100,7.0922431640625,-0.3387298583984375,-2.669677734375,-3.0250396728515625
1663860787619100400,7.102100341796875,-0.378143310546875,-2.2094879150390625,-2.2122344970703125
1663860787629018600,7.1120185546875,0.0724639892578125,-1.244354248046875,-1.06707763671875
1663860787638906000,7.121906005859375,0.5379791259765625,0.146881103515625,0.475433349609375
1663860787648763400,7.131763427734375,0.512420654296875,1.0193328857421875,1.3542633056640625
1663860787658651100,7.141651123046875,0.4836578369140625,1.1844482421875,0.635223388671875
1663860787668539000,7.151538818359375,0.296173095703125,1.308013916015625,-0.8242034912109375
1663860787678426400,7.16142626953125,-0.061767578125,1.434783935546875,-0.94244384765625
1663860787688314000,7.171314208984375,-0.3419342041015625,1.66168212890625,-0.0433502197265625
1663860787698201900,7.181201904296875,-0.707305908203125,1.2952423095703125,0.6884765625
1663860787708089600,7.191089599609375,-0.8649749755859375,0.56658935546875,1.011260986328125
1663860787717947000,7.20094677734375,-0.3717498779296875,-0.4560546875,0.73321533203125
1663860787727834400,7.21083447265625,0.2183990478515625,-0.8629913330078125,0.586212158203125
1663860787737691600,7.220691650390625,0.261016845703125,0.8723297119140625,1.5928955078125
1663860787747609900,7.23060986328125,0.0277252197265625,3.044403076171875,2.8243408203125
1663860787757497600,7.24049755859375,0.0383758544921875,3.967987060546875,3.2525634765625
1663860787767385300,7.25038525390625,0.2173309326171875,3.74853515625,3.0661468505859375
1663860787777272800,7.26027294921875,0.303619384765625,3.0262908935546875,2.8190155029296875
1663860787787130000,7.270130126953125,0.2982940673828125,2.038787841796875,2.7540283203125
1663860787797017900,7.280017822265625,0.2418365478515625,1.2345123291015625,2.72845458984375
1663860787806905600,7.289905517578125,0.1566162109375,0.96820068359375,2.65283203125
1663860787816762600,7.2997626953125,0.06500244140625,1.0427703857421875,2.61767578125
1663860787826650400,7.309650390625,0.043701171875,1.29949951171875,2.5995635986328125
1663860787836568600,7.319568603515625,0.10015869140625,1.6819305419921875,2.618743896484375
1663860787846425900,7.32942578125,0.169403076171875,1.8832550048828125,2.7146148681640625
1663860787856344000,7.339343994140625,0.2642059326171875,1.848114013671875,2.866943359375
1663860787866201000,7.349201171875,0.364349365234375,1.799102783203125,2.9660186767578125
1663860787876088800,7.3590888671875,0.409088134765625,1.6670074462890625,2.947906494140625
1663860787885976600,7.3689765625,0.4357147216796875,1.616943359375,2.86907958984375
1663860787895864300,7.3788642578125,0.43145751953125,1.674468994140625,2.7817230224609375
1663860787905751800,7.388751708984375,0.376068115234375,1.7948455810546875,2.696502685546875
1663860787915609000,7.398609130859375,0.296173095703125,2.0260009765625,2.6219329833984375
1663860787925496800,7.408496826171875,0.25994873046875,2.3072357177734375,2.548431396484375
1663860787935415000,7.4184150390625,0.3238677978515625,2.5607757568359375,2.482391357421875
1663860787945302800,7.428302734375,0.442108154296875,2.6374664306640625,2.423797607421875
1663860787955190500,7.4381904296875,0.5347900390625,2.5224151611328125,2.2906341552734375
1663860787965047600,7.448047607421875,0.55609130859375,2.33599853515625,2.0157928466796875
1663860787974935300,7.457935302734375,0.545440673828125,2.085662841796875,1.6663970947265625
1663860787984823000,7.467822998046875,0.6391754150390625,1.6712799072265625,1.4267120361328125
1663860787994710800,7.477710693359375,0.7915191650390625,1.0960235595703125,1.30633544921875
1663860788004598300,7.487598388671875,0.876739501953125,0.5399627685546875,1.225372314453125
1663860788014455600,7.49745556640625,0.8256072998046875,0.2523345947265625,1.2306976318359375
1663860788024343300,7.50734326171875,0.705230712890625,0.2917633056640625,1.371307373046875
1663860788034231000,7.51723095703125,0.6061553955078125,0.569793701171875,1.6195220947265625
1663860788044118500,7.527118408203125,0.5145416259765625,0.8691253662109375,1.8464202880859375
1663860788054006300,7.53700634765625,0.430389404296875,1.1088104248046875,1.878387451171875
1663860788063894000,7.54689404296875,0.409088134765625,1.2803192138671875,1.6184539794921875
1663860788073781800,7.55678173828125,0.442108154296875,1.3730010986328125,1.1188507080078125
1663860788083669500,7.56666943359375,0.475128173828125,1.333587646484375,0.5606536865234375
1663860788093557000,7.576556884765625,0.4272003173828125,1.220672607421875,0.1505279541015625
1663860788103444700,7.58644482421875,0.2876434326171875,1.17059326171875,-0.0103302001953125
1663860788113332500,7.59633251953125,0.132110595703125,1.2196044921875,-0.0050048828125
1663860788123189800,7.606189697265625,0.0277252197265625,1.18658447265625,0.03973388671875
1663860788133077200,7.6160771484375,-0.048980712890625,0.9181365966796875,0.0471954345703125
1663860788142965000,7.625965087890625,-0.0969085693359375,0.69122314453125,0.0652923583984375
1663860788152852700,7.635852783203125,-0.131011962890625,0.8819122314453125,0.108978271484375
1663860788162710000,7.6457099609375,-0.21942138671875,1.2078857421875,0.0802154541015625
1663860788172597800,7.65559765625,-0.3653564453125,1.251556396484375,-0.1232452392578125
1663860788182485200,7.6654853515625,-0.5901336669921875,1.0789794921875,-0.450286865234375
1663860788192373000,7.675373046875,-0.883087158203125,0.7476959228515625,-0.7975616455078125
1663860788202260700,7.6852607421875,-1.0332794189453125,0.203338623046875,-1.1949005126953125
1663860788212148500,7.6951484375,-0.9225006103515625,-0.13861083984375,-1.7104949951171875
1663860788222005500,7.705005615234375,-0.7488555908203125,-0.0874786376953125,-2.2463226318359375
1663860788231923700,7.714923828125,-0.563507080078125,-0.071502685546875,-2.654327392578125
1663860788241811500,7.7248115234375,-0.342987060546875,-0.3175811767578125,-3.0207672119140625
1663860788251699200,7.73469921875,-0.1512451171875,-0.665924072265625,-3.31158447265625
1663860788261587000,7.7445869140625,-0.0404510498046875,-0.718109130859375,-3.3094635009765625
1663860788271474700,7.754474609375,-0.004241943359375,-0.2685699462890625,-3.1731109619140625
1663860788281331700,7.764331787109375,0.0479583740234375,0.3077392578125,-3.2125244140625
1663860788291219500,7.774219482421875,0.227996826171875,0.772186279296875,-3.4330291748046875
1663860788301107200,7.784107177734375,0.45062255859375,0.9745941162109375,-3.7110595703125
1663860788310995000,7.793994873046875,0.4335784912109375,0.48883056640625,-3.9933624267578125
1663860788320882400,7.80388232421875,0.1065521240234375,-0.539154052734375,-4.2085418701171875
1663860788330770200,7.813770263671875,-0.32489013671875,-1.460601806640625,-4.2532806396484375
1663860788340658000,7.823657958984375,-0.709442138671875,-1.7727203369140625,-4.113739013671875
1663860788350545700,7.833545654296875,-1.0354156494140625,-1.5128021240234375,-3.885772705078125
1663860788360433400,7.843433349609375,-1.2772216796875,-1.141021728515625,-3.6013336181640625
1663860788370290400,7.85329052734375,-1.3752288818359375,-0.938629150390625,-3.3307647705078125
1663860788380178200,7.86317822265625,-1.313446044921875,-0.9780426025390625,-3.105987548828125
1663860788390066000,7.87306591796875,-1.1366119384765625,-1.1005401611328125,-2.9206390380859375
1663860788399923200,7.882923095703125,-0.9523162841796875,-1.074981689453125,-2.790679931640625
1663860788409810700,7.892810791015625,-0.8532562255859375,-1.0568695068359375,-2.7011871337890625
1663860788419698400,7.902698486328125,-0.7499237060546875,-1.1250457763671875,-2.630889892578125
1663860788429555700,7.9125556640625,-0.572021484375,-1.14208984375,-2.6223602294921875
1663860788439474000,7.922473876953125,-0.415435791015625,-1.1367645263671875,-2.58294677734375
1663860788449331000,7.9323310546875,-0.35791015625,-1.185760498046875,-2.4167633056640625
1663860788459218700,7.94221875,-0.3600311279296875,-1.265655517578125,-2.1419219970703125
1663860788469076000,7.952075927734375,-0.3887939453125,-1.392425537109375,-1.818084716796875
1663860788478994200,7.961994140625,-0.401580810546875,-1.5394287109375,-1.4953155517578125
1663860788488882000,7.9718818359375,-0.399444580078125,-1.6097412109375,-1.2364501953125
1663860788498769400,7.981769287109375,-0.39093017578125,-1.5575408935546875,-1.032989501953125
1663860788508657200,7.9916572265625,-0.389862060546875,-1.392425537109375,-0.8231353759765625
1663860788518545000,8.001544921875,-0.4186248779296875,-1.1719207763671875,-0.5482940673828125
1663860788528432600,8.0114326171875,-0.4527130126953125,-0.9865570068359375,-0.2042083740234375
1663860788538320400,8.0213203125,-0.46124267578125,-0.9002685546875,0.17822265625
1663860788548207900,8.031207763671874,-0.446319580078125,-0.857666015625,0.58941650390625
1663860788558095600,8.041095703125,-0.4537811279296875,-0.7937469482421875,1.0346832275390625
1663860788567983400,8.0509833984375,-0.495330810546875,-0.6786956787109375,1.490631103515625
1663860788577871000,8.06087109375,-0.5549774169921875,-0.5103912353515625,1.9241790771484375
1663860788587758800,8.0707587890625,-0.618896484375,-0.3367462158203125,2.2927703857421875
1663860788597646600,8.080646484375,-0.6710968017578125,-0.2248992919921875,2.562286376953125
1663860788607503600,8.090503662109375,-0.6785430908203125,-0.2579193115234375,2.6794586181640625
1663860788617391400,8.100391357421875,-0.5699005126953125,-0.4038543701171875,2.59210205078125
1663860788627279000,8.110279052734375,-0.312103271484375,-0.5881500244140625,2.2789154052734375
1663860788637166800,8.120166748046875,-0.0425872802734375,-0.7394256591796875,1.6983489990234375
1663860788647054300,8.130054443359375,0.0735321044921875,-0.9791107177734375,0.7001953125
1663860788656942000,8.139942138671875,0.132110595703125,-1.1463470458984375,-0.6974334716796875
1663860788666829800,8.149829833984375,0.2173309326171875,-0.7255706787109375,-1.9576416015625
1663860788676717600,8.159717529296875,-0.0180816650390625,-0.70001220703125,-2.5680389404296875
1663860788686574600,8.16957470703125,-0.335540771484375,-1.0227813720703125,-2.41143798828125
1663860788696462300,8.17946240234375,-0.528350830078125,-1.406280517578125,-1.8947906494140625
1663860788706350000,8.18935009765625,-0.619964599609375,-2.04437255859375,-1.557098388671875
1663860788716207400,8.199207275390625,-0.513427734375,-2.25103759765625,-1.204498291015625
1663860788726094800,8.2090947265625,-0.32061767578125,-1.1165313720703125,-0.293701171875
1663860788735982600,8.218982666015625,-0.2918548583984375,0.8606109619140625,1.1518707275390625
1663860788745870300,8.228870361328125,-0.0628204345703125,1.8864593505859375,2.0520172119140625
1663860788755758000,8.238758056640625,0.362213134765625,2.24224853515625,1.371307373046875
1663860788765645800,8.248645751953125,0.3888397216796875,2.2379913330078125,-0.471588134765625
1663860788775533300,8.258533203125,0.0373077392578125,0.9117431640625,-1.430328369140625
1663860788785421000,8.268421142578125,-0.1320648193359375,-0.15032958984375,-0.7730560302734375
1663860788795308800,8.278308837890625,-0.39093017578125,-0.5966796875,0.0088348388671875
1663860788805196500,8.288196533203125,-0.518768310546875,-1.258209228515625,0.3774261474609375
1663860788815084300,8.298084228515625,-0.2013092041015625,-1.9250640869140625,0.3731536865234375
1663860788824972000,8.307971923828125,0.1875152587890625,-0.718109130859375,0.5915374755859375
1663860788834829000,8.3178291015625,0.2301177978515625,2.185791015625,1.7207183837890625
1663860788844716800,8.327716796875,0.1150665283203125,4.35467529296875,2.9095611572265625
1663860788854604500,8.3376044921875,0.1289215087890625,4.7616119384765625,3.23126220703125
1663860788864492300,8.3474921875,0.2407684326171875,3.852935791015625,3.0086212158203125
1663860788874379800,8.3573798828125,0.2397003173828125,2.17620849609375,2.84564208984375
1663860788884267500,8.367267578125,0.0362396240234375,0.62518310546875,3.0150146484375
1663860788894155300,8.3771552734375,-0.2045135498046875,-0.0587158203125,3.1716156005859375
1663860788904012500,8.387012451171875,-0.286529541015625,-0.149261474609375,3.06402587890625
1663860788913869600,8.39686962890625,-0.2162322998046875,0.1319732666015625,2.831787109375
1663860788923726800,8.406726806640625,-0.085205078125,0.6528778076171875,2.637908935546875
1663860788933645000,8.41664501953125,0.089508056640625,1.1333160400390625,2.5452423095703125
1663860788943532800,8.42653271484375,0.33026123046875,1.4081573486328125,2.494110107421875
1663860788953389800,8.436389892578125,0.5859222412109375,1.2707366943359375,2.445098876953125
1663860788963277600,8.446277587890625,0.83837890625,0.8488922119140625,2.374786376953125
1663860788973165300,8.456165283203125,1.0567626953125,0.54742431640625,2.3236541748046875
1663860788983053000,8.466052978515625,1.0887298583984375,0.588958740234375,2.398223876953125
1663860788992940500,8.4759404296875,0.90869140625,1.014007568359375,2.5654754638671875
1663860789002828300,8.485828369140625,0.6615447998046875,1.7490386962890625,2.729522705078125
1663860789012716000,8.495716064453125,0.41973876953125,2.3306732177734375,2.9095611572265625
1663860789022603800,8.505603759765625,0.258880615234375,2.49365234375,3.07147216796875
1663860789032491500,8.515491455078125,0.2216033935546875,2.5575714111328125,3.09490966796875
1663860789042379000,8.52537890625,0.2524871826171875,2.5458526611328125,2.879730224609375
1663860789052266800,8.535266845703125,0.29510498046875,2.3754119873046875,2.379058837890625
1663860789062154500,8.545154541015625,0.4005584716796875,2.0995025634765625,1.75054931640625
1663860789072042200,8.555042236328125,0.6200103759765625,1.6893768310546875,1.28076171875
1663860789081930000,8.564929931640625,0.8682098388671875,1.11627197265625,1.06451416015625
1663860789091817700,8.574817626953125,1.0312042236328125,0.5165252685546875,1.008056640625
1663860789101705200,8.584705322265625,1.0535736083984375,0.1053314208984375,1.0932769775390625
1663860789111593000,8.594593017578125,0.944915771484375,0.11492919921875,1.319122314453125
1663860789121480700,8.604480712890625,0.785125732421875,0.56658935546875,1.5832977294921875
1663860789131338000,8.614337890625,0.6082916259765625,1.159942626953125,1.7430877685546875
1663860789141195000,8.624195068359375,0.4527587890625,1.5040283203125,1.6962127685546875
1663860789151082800,8.634082763671875,0.3558197021484375,1.5200042724609375,1.4128570556640625
1663860789160970500,8.643970458984375,0.3132171630859375,1.298431396484375,0.9462738037109375
1663860789170858200,8.653858154296875,0.291900634765625,0.922393798828125,0.4700927734375
1663860789180745700,8.663745849609375,0.249298095703125,0.54742431640625,0.188873291015625
1663860789190633500,8.673633544921875,0.17047119140625,0.3002777099609375,0.1601104736328125
1663860789200521200,8.683521240234375,0.0831146240234375,0.1426239013671875,0.2059173583984375
1663860789210409000,8.693408935546875,0.009613037109375,0.0478057861328125,0.167572021484375
1663860789220296700,8.703296630859375,-0.048980712890625,0.1628570556640625,0.1015167236328125
1663860789230153700,8.71315380859375,-0.105438232421875,0.5623321533203125,0.0770111083984375
1663860789240041500,8.72304150390625,-0.23114013671875,0.8829803466796875,0.007781982421875
1663860789249929200,8.73292919921875,-0.4537811279296875,0.8499603271484375,-0.19781494140625
1663860789259817000,8.74281689453125,-0.688140869140625,0.579376220703125,-0.5578765869140625
1663860789269674000,8.752674072265625,-0.8170318603515625,0.149017333984375,-1.066009521484375
1663860789279561700,8.762561767578125,-0.7818756103515625,-0.25152587890625,-1.6263427734375
1663860789289419000,8.7724189453125,-0.744598388671875,-0.17376708984375,-2.1121063232421875
1663860789299337200,8.782337158203125,-0.7435302734375,0.1383514404296875,-2.4678955078125
1663860789309225000,8.792224853515625,-0.6476593017578125,0.0936126708984375,-2.8194427490234375
1663860789319112400,8.802112548828125,-0.3941192626953125,-0.2270355224609375,-3.2508697509765625
1663860789328969700,8.8119697265625,-0.1746826171875,-0.346343994140625,-3.4543304443359375
1663860789338888000,8.821887939453125,-0.1895904541015625,0.00732421875,-3.279632568359375
1663860789348745200,8.8317451171875,-0.2609710693359375,0.4462127685546875,-3.086822509765625
1663860789358602200,8.841602294921875,-0.1555023193359375,0.6219940185546875,-3.185882568359375
1663860789368520400,8.8515205078125,0.1331787109375,0.611328125,-3.5139923095703125
1663860789378408200,8.861408203125,0.3781890869140625,0.68377685546875,-3.8878936767578125
1663860789388296000,8.8712958984375,0.3046875,0.82012939453125,-4.236236572265625
1663860789398183700,8.88118359375,-0.046844482421875,0.544219970703125,-4.36407470703125
1663860789408071200,8.8910712890625,-0.4761505126953125,-0.3719024658203125,-4.1361083984375
1663860789417959000,8.900958984375,-0.814910888671875,-1.3199920654296875,-3.72491455078125
1663860789427846700,8.9108466796875,-1.0790863037109375,-1.4584808349609375,-3.336090087890625
1663860789437734400,8.920734375,-1.3645782470703125,-0.8832244873046875,-3.0442047119140625
1663860789447622100,8.9306220703125,-1.6404876708984375,-0.5093231201171875,-2.870574951171875
1663860789457509600,8.940509521484374,-1.7512664794921875,-0.7724456787109375,-2.790679931640625
1663860789467397400,8.9503974609375,-1.658599853515625,-1.094146728515625,-2.7949371337890625
1663860789477285000,8.96028515625,-1.4913482666015625,-1.16552734375,-2.798126220703125
1663860789487172900,8.9701728515625,-1.315582275390625,-1.176177978515625,-2.7491302490234375
1663860789497030000,8.98002978515625,-1.1014556884765625,-1.242218017578125,-2.6681671142578125
1663860789506887200,8.98988720703125,-0.8276824951171875,-1.338104248046875,-2.5616455078125
1663860789516744400,8.999744384765625,-0.6018524169921875,-1.3871002197265625,-2.402923583984375
1663860789526662700,9.00966259765625,-0.502777099609375,-1.357269287109375,-2.1664276123046875
1663860789536550400,9.01955029296875,-0.4846649169921875,-1.3668670654296875,-1.8468475341796875
1663860789546438000,9.02943798828125,-0.4782867431640625,-1.4073486328125,-1.4857177734375
1663860789556325600,9.03932568359375,-0.471893310546875,-1.4531402587890625,-1.1735992431640625
1663860789566213400,9.04921337890625,-0.4942626953125,-1.508544921875,-0.9349822998046875
1663860789576101000,9.05910107421875,-0.540069580078125,-1.51812744140625,-0.734710693359375
1663860789585988900,9.06898876953125,-0.5912017822265625,-1.42864990234375,-0.5110015869140625
1663860789595876400,9.07887646484375,-0.62847900390625,-1.2592620849609375,-0.2287139892578125
1663860789605764000,9.08876416015625,-0.6561737060546875,-1.1016082763671875,0.1238861083984375
1663860789615651800,9.09865185546875,-0.6806793212890625,-1.0206451416015625,0.527618408203125
1663860789625539600,9.10853955078125,-0.711578369140625,-1.006805419921875,0.9771728515625
1663860789635427300,9.11842724609375,-0.7627105712890625,-0.9940185546875,1.4693145751953125
1663860789645284400,9.128284423828125,-0.8372802734375,-0.9322357177734375,1.946563720703125
1663860789655172000,9.138172119140625,-0.9033203125,-0.8427581787109375,2.3577423095703125
1663860789665059800,9.148059814453125,-0.9075775146484375,-0.802276611328125,2.6549530029296875
1663860789674947600,9.157947509765625,-0.8255615234375,-0.9087982177734375,2.7252655029296875
1663860789684835000,9.1678349609375,-0.6614990234375,-1.09735107421875,2.4291229248046875
1663860789694722800,9.177722900390625,-0.4186248779296875,-1.049407958984375,1.794219970703125
1663860789704610600,9.187610595703125,-0.1587066650390625,-0.6243743896484375,0.9569244384765625
1663860789714467800,9.1974677734375,0.0138702392578125,-0.6009368896484375,-0.0774383544921875
1663860789724324900,9.207324951171875,0.227996826171875,-0.948211669921875,-1.3802642822265625
1663860789734212600,9.217212646484375,0.148101806640625,-1.22198486328125,-2.6106414794921875
1663860789744070000,9.22706982421875,-0.2279510498046875,-1.6129302978515625,-3.1304931640625
1663860789753988000,9.236988037109375,-0.3483123779296875,-1.995361328125,-2.8695068359375
1663860789763875800,9.246875732421875,-0.458038330078125,-2.2371826171875,-2.2793426513671875
1663860789773763300,9.256763427734375,-0.650848388671875,-2.3021697998046875,-1.6316680908203125
1663860789783651000,9.266651123046875,-0.642333984375,-2.0731353759765625,-0.9605560302734375
1663860789793538800,9.276538818359375,-0.4324798583984375,-1.0653839111328125,-0.0817108154296875
1663860789803426600,9.286426513671875,-0.491058349609375,0.396148681640625,0.9814300537109375
1663860789813314300,9.296314208984375,-0.58160400390625,1.29736328125,1.6972808837890625
1663860789823171300,9.30617138671875,-0.4516448974609375,2.003631591796875,1.612060546875
1663860789833059000,9.31605908203125,-0.210906982421875,2.574615478515625,0.7385406494140625
1663860789842946800,9.32594677734375,0.1523590087890625,2.1080322265625,-0.3171234130859375
1663860789852834600,9.33583447265625,0.397369384765625,0.5879058837890625,-0.5546875
1663860789862722000,9.34572216796875,0.132110595703125,-0.8171844482421875,-0.2382965087890625
1663860789872609800,9.35560986328125,-0.0894622802734375,-1.7769927978515625,-0.0252532958984375
1663860789882497500,9.36549755859375,0.1949615478515625,-2.11041259765625,0.17822265625
1663860789892385300,9.37538525390625,0.4229278564453125,-0.85552978515625,0.6831512451171875
1663860789902273000,9.38527294921875,0.4026947021484375,1.5040283203125,1.588623046875
1663860789912160500,9.395160400390624,0.2503662109375,3.5749053955078125,2.59210205078125
1663860789922048300,9.40504833984375,0.18963623046875,4.5315093994140625,3.20782470703125
1663860789931905500,9.414905517578125,0.2450408935546875,4.2396240234375,3.4400634765625
1663860789941793300,9.424793212890625,0.16619873046875,3.1253662109375,3.4879913330078125
1663860789951680800,9.4346806640625,-0.128875732421875,1.695770263671875,3.417694091796875
1663860789961568500,9.444568603515625,-0.4282073974609375,0.6432952880859375,3.288787841796875
1663860789971456300,9.454456298828125,-0.471893310546875,0.3460845947265625,3.072540283203125
1663860789981344000,9.464343994140625,-0.368560791015625,0.502685546875,2.832855224609375
1663860789991231700,9.474231689453125,-0.25457763671875,0.7125396728515625,2.6688079833984375
1663860790001119500,9.484119384765625,-0.0745391845703125,0.9969635009765625,2.538848876953125
1663860790010976500,9.4939765625,0.1960296630859375,1.2579498291015625,2.447235107421875
1663860790020864300,9.5038642578125,0.47406005859375,1.071533203125,2.4195404052734375
1663860790030752000,9.513751953125,0.73931884765625,0.499481201171875,2.4387054443359375
1663860790040639700,9.5236396484375,1.022674560546875,0.297088623046875,2.4291229248046875
1663860790050527200,9.53352734375,1.1675567626953125,0.6741790771484375,2.3961029052734375
1663860790060415000,9.5434150390625,1.0748748779296875,1.30908203125,2.4493560791015625
1663860790070272300,9.553272216796875,0.8351898193359375,1.937591552734375,2.6315155029296875
1663860790080129300,9.56312939453125,0.557159423828125,2.4510498046875,2.8616180419921875
1663860790090017000,9.57301708984375,0.385650634765625,2.7162933349609375,3.0128936767578125
1663860790099904800,9.58290478515625,0.3558197021484375,2.7844696044921875,3.0203399658203125
1663860790109792500,9.59279248046875,0.305755615234375,2.69073486328125,2.84564208984375
1663860790119680300,9.60268017578125,0.2429046630859375,2.4904632568359375,2.42486572265625
1663860790129537300,9.612537353515625,0.2876434326171875,2.30084228515625,1.8304443359375
1663860790139455500,9.62245556640625,0.49749755859375,2.048370361328125,1.3233795166015625
1663860790149312800,9.632312744140625,0.7435760498046875,1.6009674072265625,1.054931640625
1663860790159200500,9.642200439453125,0.9161529541015625,0.980987548828125,0.9771728515625
1663860790169088000,9.652087890625,0.9928436279296875,0.4153289794921875,1.0474700927734375
1663860790178945300,9.6619453125,0.9736785888671875,0.182037353515625,1.248809814453125
1663860790188833000,9.6718330078125,0.8778076171875,0.43023681640625,1.5076751708984375
1663860790198751200,9.681751220703125,0.7425079345703125,0.9618072509765625,1.7111358642578125
1663860790208639000,9.691638916015625,0.592315673828125,1.352752685546875,1.7537384033203125
1663860790218526700,9.701526611328125,0.4793853759765625,1.4507598876953125,1.5694580078125
1663860790228383700,9.7113837890625,0.4239959716796875,1.3293304443359375,1.1838226318359375
1663860790238271500,9.721271484375,0.3899078369140625,1.08111572265625,0.6863555908203125
1663860790248159200,9.7311591796875,0.3195953369140625,0.8179931640625,0.276214599609375
1663860790258047000,9.741046875,0.192840576171875,0.649688720703125,0.108978271484375
1663860790267934500,9.7509345703125,0.0809783935546875,0.5154571533203125,0.108978271484375
1663860790277822200,9.760822265625,0.031982421875,0.292816162109375,0.0919342041015625
1663860790287710000,9.7707099609375,0.0032196044921875,0.066986083984375,-0.0113983154296875
1663860790297567200,9.780567138671875,-0.0574951171875,0.09149169921875,-0.140289306640625
1663860790307454700,9.790454833984375,-0.2119598388671875,0.417449951171875,-0.2510833740234375
1663860790317342500,9.800342529296875,-0.537933349609375,0.775390625,-0.368255615234375
1663860790327230200,9.810230224609375,-0.9565887451171875,0.681640625,-0.5823822021484375
1663860790337118000,9.820117919921875,-1.1483306884765625,0.090423583984375,-0.943511962890625
1663860790346975000,9.82997509765625,-1.029022216796875,-0.6147918701171875,-1.4250030517578125
1663860790356862700,9.83986279296875,-0.8916015625,-0.916259765625,-1.976806640625
1663860790366750500,9.84975048828125,-0.768035888671875,-0.7234344482421875,-2.51263427734375
1663860790376638200,9.85963818359375,-0.467620849609375,-0.5348968505859375,-3.0814971923828125
1663860790386526000,9.86952587890625,-0.035125732421875,-0.5551300048828125,-3.5821685791015625
1663860790396383000,9.879383056640625,0.33770751953125,-0.4550018310546875,-3.70361328125
1663860790406270700,9.889270751953125,0.41015625,-0.03741455078125,-3.47137451171875
1663860790416158500,9.899158447265625,0.258880615234375,0.350341796875,-3.2050628662109375
1663860790426046200,9.909046142578125,0.2631378173828125,0.536773681640625,-3.12835693359375
1663860790435933700,9.91893359375,0.4591522216796875,0.6656646728515625,-3.3190460205078125
1663860790445821400,9.928821533203125,0.5496978759765625,1.001220703125,-3.6269073486328125
1663860790455709200,9.938709228515625,0.3451690673828125,1.4188079833984375,-3.8985443115234375
1663860790465597000,9.948596923828125,-0.0340728759765625,1.3580780029296875,-3.9603271484375
1663860790475484700,9.958484619140625,-0.4708251953125,0.30560302734375,-3.65673828125
1663860790485372400,9.968372314453125,-0.94061279296875,-1.4872283935546875,-3.1816253662109375
1663860790495260000,9.978260009765625,-1.3795013427734375,-2.7197418212890625,-2.89080810546875
1663860790505117200,9.9881171875,-1.7853546142578125,-2.4917755126953125,-2.8386077880859375
1663860790515005000,9.9980048828125,-2.11346435546875,-1.4915008544921875,-2.8759002685546875
1663860790524892700,10.007892578125,-2.240234375,-1.1495513916015625,-2.85565185546875
1663860790534780200,10.0177802734375,-2.0506134033203125,-1.40521240234375,-2.8194427490234375
1663860790544668000,10.02766796875,-1.6500701904296875,-1.700286865234375,-2.8077239990234375
1663860790554555600,10.0375556640625,-1.2623138427734375,-1.8526153564453125,-2.743804931640625
1663860790564413000,10.047412841796875,-0.9501953125,-1.857940673828125,-2.6575164794921875
1663860790574300400,10.057300537109375,-0.7030487060546875,-1.7162628173828125,-2.5264892578125
1663860790584218600,10.067218505859374,-0.5294189453125,-1.550079345703125,-2.31024169921875
1663860790594076000,10.077075927734375,-0.4409942626953125,-1.5788421630859375,-1.999176025390625
1663860790603963600,10.086963623046875,-0.4047698974609375,-1.6683349609375,-1.6444549560546875
1663860790613820700,10.096820556640624,-0.4164886474609375,-1.61932373046875,-1.3003692626953125
1663860790623739000,10.10673876953125,-0.460174560546875,-1.45953369140625,-1.0138092041015625
1663860790633626600,10.116626708984375,-0.5113067626953125,-1.3327789306640625,-0.805023193359375
1663860790643514400,10.126514404296875,-0.5699005126953125,-1.265655517578125,-0.6622772216796875
1663860790653402000,10.136402099609375,-0.6146392822265625,-1.1921539306640625,-0.5387115478515625
1663860790663289900,10.146289794921875,-0.6370086669921875,-1.072845458984375,-0.3746490478515625
1663860790673177600,10.156177490234375,-0.6572418212890625,-0.96099853515625,-0.1253814697265625
1663860790683034600,10.16603466796875,-0.6806793212890625,-0.9226531982421875,0.2037811279296875
1663860790692892000,10.175891845703125,-0.6945343017578125,-0.9322357177734375,0.5904693603515625
1663860790702810000,10.18581005859375,-0.6902618408203125,-0.9556732177734375,1.0144500732421875
1663860790712697900,10.19569775390625,-0.6828155517578125,-0.934356689453125,1.451202392578125
1663860790722585300,10.20558544921875,-0.6828155517578125,-0.8182525634765625,1.874114990234375
1663860790732442600,10.215442626953125,-0.6785430908203125,-0.640350341796875,2.24163818359375
1663860790742330400,10.225330322265625,-0.586944580078125,-0.548736572265625,2.491973876953125
1663860790752218000,10.235218017578125,-0.413299560546875,-0.616912841796875,2.489837646484375
1663860790762075100,10.2450751953125,-0.1885223388671875,-0.7596588134765625,2.20648193359375
1663860790771993300,10.254993408203125,0.008544921875,-0.7799072265625,1.7665252685546875
1663860790781881000,10.264881103515625,0.1150665283203125,-0.6936187744140625,1.0133819580078125
1663860790791768800,10.274768798828125,0.2056121826171875,-1.1953582763671875,-0.4460296630859375
1663860790801656600,10.284656494140625,0.4698028564453125,-1.7173309326171875,-2.205841064453125
1663860790811544000,10.2945439453125,0.2642059326171875,-1.2273101806640625,-3.1613922119140625
1663860790821401300,10.3044013671875,-0.288665771484375,-0.981231689453125,-3.1848297119140625
1663860790831289000,10.3142890625,-0.570953369140625,-1.1495513916015625,-2.5680389404296875
1663860790841146000,10.32414599609375,-0.75311279296875,-1.528778076171875,-1.88519287109375
1663860790851064300,10.334064208984374,-0.643402099609375,-1.9879150390625,-1.4143524169921875
1663860790860952000,10.3439521484375,-0.239654541015625,-1.6843109130859375,-0.46307373046875
1663860790870839800,10.35383984375,-0.0063629150390625,-0.2025299072265625,0.92816162109375
1663860790880697000,10.363697021484375,0.1832427978515625,1.0640716552734375,1.4597320556640625
1663860790890615300,10.373615234375,0.5933685302734375,1.3239898681640625,0.26556396484375
1663860790900472300,10.383472412109375,0.40802001953125,1.03424072265625,-1.3568267822265625
1663860790910360000,10.393360107421875,-0.3610992431640625,0.945831298828125,-1.2066192626953125
1663860790920217300,10.40321728515625,-0.7637786865234375,0.989501953125,-0.1019439697265625
1663860790930135600,10.413135498046875,-1.08441162109375,0.419586181640625,0.6245574951171875
1663860790939992600,10.42299267578125,-0.9789581298828125,-0.950347900390625,0.8195037841796875
1663860790949910800,10.432910888671875,-0.011688232421875,-3.14691162109375,0.1963348388671875
1663860790959768000,10.44276806640625,0.612548828125,-1.9463653564453125,0.38275146484375
1663860790969655800,10.45265576171875,0.4527587890625,1.958892822265625,2.1329803466796875
1663860790979543600,10.46254345703125,0.3334503173828125,4.4153900146484375,3.4453887939453125
1663860790989431000,10.47243115234375,0.5582275390625,4.8713226318359375,3.4304656982421875
1663860790999318800,10.48231884765625,0.7457122802734375,3.7304229736328125,2.9276580810546875
1663860791009206500,10.49220654296875,0.600830078125,1.709625244140625,2.710357666015625
1663860791019063800,10.502063720703125,0.200286865234375,0.21612548828125,2.778533935546875
1663860791028951300,10.511951416015625,-0.208770751953125,-0.334625244140625,2.8179473876953125
1663860791038839000,10.521839111328125,-0.4314117431640625,-0.388946533203125,2.7028961181640625
1663860791048696300,10.5316962890625,-0.4047698974609375,0.0861663818359375,2.538848876953125
1663860791058614500,10.541614501953125,-0.2130279541015625,0.8925628662109375,2.4632110595703125
1663860791068502300,10.551502197265625,0.0053558349609375,1.4859161376953125,2.5079498291015625
1663860791078359300,10.561359375,0.223724365234375,1.4965667724609375,2.6197967529296875
1663860791088247000,10.5712470703125,0.4879150390625,0.9756622314453125,2.6890411376953125
1663860791098165200,10.581165283203125,0.740386962890625,0.3460845947265625,2.66455078125
1663860791108022500,10.5910224609375,0.8543701171875,0.02117919921875,2.604888916015625
1663860791117910000,10.600909912109374,0.75848388671875,0.15753173828125,2.60595703125
1663860791127797800,10.6107978515625,0.5273284912109375,0.716796875,2.6315155029296875
1663860791137685500,10.620685546875,0.3132171630859375,1.4273223876953125,2.6443023681640625
1663860791147573200,10.6305732421875,0.2066802978515625,1.95782470703125,2.675201416015625
1663860791157461000,10.6404609375,0.1917724609375,2.2369232177734375,2.7188720703125
1663860791167348700,10.6503486328125,0.2407684326171875,2.391387939453125,2.7124786376953125
1663860791177236200,10.660236328125,0.29296875,2.48406982421875,2.59637451171875
1663860791187124000,10.6701240234375,0.3313140869140625,2.4553070068359375,2.3588104248046875
1663860791197011700,10.68001171875,0.3579559326171875,2.268890380859375,2.024322509765625
1663860791206899500,10.6898994140625,0.4644775390625,2.0249481201171875,1.679168701171875
1663860791216787200,10.699787109375,0.6402435302734375,1.674468994140625,1.4618682861328125
1663860791226674700,10.7096748046875,0.8000335693359375,1.1002960205078125,1.3894195556640625
1663860791236562400,10.7195625,0.9172210693359375,0.4707183837890625,1.3777008056640625
1663860791246450200,10.7294501953125,0.9406585693359375,0.10107421875,1.3926239013671875
1663860791256338000,10.739337890625,0.8554229736328125,0.189483642578125,1.443756103515625
1663860791266195000,10.74919482421875,0.7212066650390625,0.63690185546875,1.542816162109375
1663860791276082700,10.759082763671875,0.5848541259765625,1.080047607421875,1.63763427734375
1663860791285940000,10.76893994140625,0.46234130859375,1.2792510986328125,1.600341796875
1663860791295827700,10.77882763671875,0.3654022216796875,1.2345123291015625,1.3116607666015625
1663860791305715200,10.788715087890624,0.2897796630859375,1.03851318359375,0.8567962646484375
1663860791315603000,10.79860302734375,0.2194671630859375,0.7199859619140625,0.4243011474609375
1663860791325490700,10.80849072265625,0.1299896240234375,0.2906951904296875,0.14093017578125
1663860791335378400,10.81837841796875,0.06500244140625,-0.0896148681640625,0.017364501953125
1663860791345266200,10.82826611328125,0.01068115234375,-0.2675018310546875,-0.0146026611328125
1663860791355153700,10.838153564453124,-0.1086273193359375,-0.1013336181640625,-0.008209228515625
1663860791365041400,10.84804150390625,-0.267364501953125,0.353546142578125,-0.008209228515625
1663860791374929200,10.85792919921875,-0.458038330078125,0.741302490234375,-0.08489990234375
1663860791384817000,10.86781689453125,-0.711578369140625,0.694427490234375,-0.337371826171875
1663860791394704600,10.87770458984375,-0.9331512451171875,0.20440673828125,-0.7869110107421875
1663860791404561700,10.887561767578125,-0.982147216796875,-0.5103912353515625,-1.3365936279296875
1663860791414449400,10.897449462890625,-0.9416656494140625,-0.93756103515625,-1.9022369384765625
1663860791424306700,10.907306640625,-0.9192962646484375,-0.7021331787109375,-2.4039764404296875
1663860791434194400,10.9171943359375,-0.7637786865234375,-0.410247802734375,-2.8535308837890625
1663860791444051500,10.927051513671875,-0.3834686279296875,-0.5263671875,-3.2860260009765625
1663860791453969700,10.9369697265625,0.043701171875,-0.626495361328125,-3.5672454833984375
1663860791463857400,10.946857421875,0.24822998046875,-0.3388824462890625,-3.5246429443359375
1663860791473745200,10.9567451171875,0.16619873046875,0.066986083984375,-3.258331298828125
1663860791483602200,10.966602294921875,0.1448974609375,0.257659912109375,-3.1155853271484375
1663860791493490000,10.976489990234375,0.383514404296875,0.4472808837890625,-3.254058837890625
1663860791503377700,10.986377685546875,0.659423828125,0.96820068359375,-3.577911376953125
1663860791513265400,10.996265380859375,0.7009735107421875,1.50616455078125,-3.9432830810546875
1663860791523122400,11.006122314453124,0.5038909912109375,1.5860595703125,-4.1669921875
1663860791533040600,11.01604052734375,0.1651458740234375,0.8020172119140625,-4.0391693115234375
1663860791542928400,11.025928466796875,-0.2812042236328125,-0.7948150634765625,-3.57684326171875
1663860791552816000,11.035816162109375,-0.810638427734375,-2.1871185302734375,-3.15179443359375
1663860791562704000,11.045703857421875,-1.3294219970703125,-2.31707763671875,-3.0090484619140625
1663860791572591600,11.055591552734375,-1.79388427734375,-1.4659271240234375,-3.0218353271484375
1663860791582479000,11.06547900390625,-2.1060028076171875,-0.869384765625,-2.9557952880859375
1663860791592366800,11.075366943359375,-2.1283721923828125,-0.845947265625,-2.8258209228515625
1663860791602254600,11.085254638671875,-1.8673858642578125,-1.1271820068359375,-2.768310546875
1663860791612142300,11.095142333984375,-1.5052032470703125,-1.437164306640625,-2.7278289794921875
1663860791622030000,11.105030029296875,-1.1717681884765625,-1.74822998046875,-2.673492431640625
1663860791631887000,11.11488720703125,-0.878814697265625,-1.89630126953125,-2.5797576904296875
1663860791641774800,11.12477490234375,-0.67535400390625,-1.8441009521484375,-2.4167633056640625
1663860791651662600,11.13466259765625,-0.5784149169921875,-1.789764404296875,-2.1536407470703125
1663860791661550300,11.14455029296875,-0.5347442626953125,-1.770599365234375,-1.83087158203125
1663860791671438000,11.15443798828125,-0.4857330322265625,-1.7578125,-1.502777099609375
1663860791681295000,11.164295166015625,-0.4441986083984375,-1.6725921630859375,-1.2076873779296875
1663860791691182800,11.174182861328125,-0.458038330078125,-1.4925689697265625,-0.9935760498046875
1663860791701070600,11.184070556640625,-0.504913330078125,-1.2954864501953125,-0.84124755859375
1663860791710958300,11.193958251953125,-0.5560455322265625,-1.08349609375,-0.6590728759765625
1663860791720845800,11.203845703125,-0.606109619140625,-0.870452880859375,-0.4087371826171875
1663860791730703000,11.213703125,-0.6572418212890625,-0.710662841796875,-0.0934295654296875
1663860791740590800,11.2235908203125,-0.7019805908203125,-0.6030731201171875,0.276214599609375
1663860791750478600,11.233478515625,-0.7254180908203125,-0.54022216796875,0.6650390625
1663860791760366000,11.243365966796874,-0.742462158203125,-0.494415283203125,1.05706787109375
1663860791770253800,11.25325390625,-0.7595062255859375,-0.45819091796875,1.4725189208984375
1663860791780141600,11.2631416015625,-0.7616424560546875,-0.3846893310546875,1.9145965576171875
1663860791790029300,11.273029296875,-0.7435302734375,-0.218505859375,2.34283447265625
1663860791799917000,11.2829169921875,-0.6849365234375,-0.038482666015625,2.6922454833984375
1663860791809804500,11.292804443359374,-0.5773468017578125,-0.024627685546875,2.868011474609375
1663860791819692300,11.3026923828125,-0.4196929931640625,-0.2366180419921875,2.7348480224609375
1663860791829580000,11.312580078125,-0.2226104736328125,-0.62969970703125,2.264007568359375
1663860791839467800,11.3224677734375,-0.0319366455078125,-0.8076019287109375,1.5460205078125
1663860791849325000,11.332324951171875,0.1044158935546875,-0.9524688720703125,0.5009918212890625
1663860791859212500,11.342212646484375,0.3451690673828125,-1.2826995849609375,-1.0489654541015625
1663860791869100300,11.352100341796875,0.36328125,-1.3050689697265625,-2.6095733642578125
1663860791878988000,11.361988037109375,-0.19384765625,-1.367919921875,-3.33502197265625
1663860791888875800,11.371875732421875,-0.5464630126953125,-1.690704345703125,-3.006927490234375
1663860791898763500,11.381763427734375,-0.674285888671875,-2.02093505859375,-2.161102294921875
1663860791908651000,11.391651123046875,-0.7147674560546875,-2.386322021484375,-1.5794677734375
1663860791918538800,11.401538818359375,-0.3951873779296875,-2.0592803955078125,-0.939239501953125
1663860791928396000,11.41139599609375,-0.082000732421875,-0.3857574462890625,0.3433380126953125
1663860791938253000,11.421253173828125,0.0799102783203125,1.1844482421875,1.3883514404296875
1663860791948110300,11.4311103515625,0.4335784912109375,1.310150146484375,0.917510986328125
1663860791958028500,11.441028564453125,0.47406005859375,0.8350372314453125,-0.8433685302734375
1663860791967885800,11.4508857421875,-0.1096954345703125,0.466461181640625,-1.646575927734375
1663860791977804000,11.460803955078125,-0.514495849609375,0.5751190185546875,-0.6857147216796875
1663860791987661000,11.4706611328125,-0.890533447265625,0.2981414794921875,0.4306793212890625
1663860791997548800,11.480548828125,-1.1579132080078125,-0.4081268310546875,1.0719757080078125
1663860792007436500,11.4904365234375,-0.688140869140625,-1.688568115234375,0.92816162109375
1663860792017293600,11.50029345703125,0.007476806640625,-2.0592803955078125,0.393402099609375
1663860792027181300,11.510181396484375,0.0980224609375,0.8648681640625,1.3563995361328125
1663860792037099500,11.520099609375,-0.0681610107421875,3.95733642578125,3.218475341796875
1663860792046987300,11.5299873046875,0.108673095703125,4.9437713623046875,3.89385986328125
1663860792056875000,11.539875,0.46234130859375,4.322723388671875,3.469879150390625
1663860792066762800,11.5497626953125,0.535858154296875,2.6704864501953125,2.9883880615234375
1663860792076650500,11.559650390625,0.3547515869140625,0.93304443359375,2.91168212890625
1663860792086538000,11.5695380859375,0.134246826171875,0.03076171875,2.934051513671875
1663860792096425700,11.57942578125,-0.026611328125,-0.1567230224609375,2.832855224609375
1663860792106313500,11.5893134765625,-0.093719482421875,-0.04913330078125,2.66241455078125
1663860792116201200,11.599201171875,-0.050048828125,0.3311767578125,2.5090179443359375
1663860792126089000,11.6090888671875,0.0735321044921875,0.8797760009765625,2.4632110595703125
1663860792135976400,11.6189765625,0.258880615234375,1.2334442138671875,2.56121826171875
1663860792145833700,11.628833740234375,0.49005126953125,1.1535491943359375,2.7252655029296875
1663860792155721500,11.638721435546875,0.705230712890625,0.729583740234375,2.8243408203125
1663860792165609200,11.648609130859375,0.8586273193359375,0.41851806640625,2.8051605224609375
1663860792175496700,11.65849658203125,0.84051513671875,0.4866943359375,2.7380523681640625
1663860792185384400,11.668384521484375,0.6200103759765625,0.8936309814453125,2.710357666015625
1663860792195272200,11.678272216796875,0.3473052978515625,1.5998992919921875,2.708221435546875
1663860792205160000,11.688159912109375,0.1289215087890625,2.23480224609375,2.7454986572265625
1663860792215047700,11.698047607421875,0.00640869140625,2.475555419921875,2.81048583984375
1663860792224874200,11.707874267578125,0.000030517578125,2.4989776611328125,2.808349609375
1663860792234762000,11.717761962890625,0.0628662109375,2.3924560546875,2.6485595703125
1663860792244619000,11.727618896484374,0.1651458740234375,2.163421630859375,2.299163818359375
1663860792254537200,11.737537109375,0.3110809326171875,1.9397125244140625,1.8442840576171875
1663860792264425000,11.747425048828125,0.5188140869140625,1.7170867919921875,1.51300048828125
1663860792274282200,11.7572822265625,0.718017578125,1.220672607421875,1.3318939208984375
1663860792284200400,11.767200439453125,0.804290771484375,0.5516815185546875,1.2061920166015625
1663860792294088200,11.777088134765625,0.8000335693359375,0.069122314453125,1.1625213623046875
1663860792303976000,11.786975830078125,0.7552947998046875,-0.06085205078125,1.2402801513671875
1663860792313863400,11.796863525390625,0.6647491455078125,0.1628570556640625,1.410736083984375
1663860792323751200,11.806751220703125,0.5369110107421875,0.593231201171875,1.623779296875
1663860792333639000,11.816638916015625,0.3781890869140625,0.967132568359375,1.7910308837890625
1663860792343496200,11.82649609375,0.2535552978515625,1.1897735595703125,1.7782440185546875
1663860792353383700,11.8363837890625,0.1949615478515625,1.2494354248046875,1.4831695556640625
1663860792363271400,11.846271484375,0.1725921630859375,1.0534210205078125,1.0059356689453125
1663860792373159200,11.8561591796875,0.1566162109375,0.748748779296875,0.5467987060546875
1663860792383047000,11.866046875,0.0980224609375,0.647552490234375,0.24639892578125
1663860792392934700,11.8759345703125,-0.0063629150390625,0.673126220703125,0.14093017578125
1663860792402822100,11.885822265625,-0.1128997802734375,0.6560821533203125,0.09405517578125
1663860792412710000,11.8957099609375,-0.1587066650390625,0.4866943359375,-0.0092620849609375
1663860792422567200,11.905567138671875,-0.164031982421875,0.2843017578125,-0.1253814697265625
1663860792432455000,11.915454833984375,-0.26416015625,0.35247802734375,-0.22125244140625
1663860792442342400,11.92534228515625,-0.528350830078125,0.5761871337890625,-0.33843994140625
1663860792452230100,11.935230224609375,-0.8756256103515625,0.6060028076171875,-0.5791778564453125
1663860792462118000,11.945117919921875,-1.1259613037109375,0.3205108642578125,-0.9701385498046875
1663860792472005600,11.955005615234375,-1.1621856689453125,-0.1577911376953125,-1.44097900390625
1663860792481893400,11.964893310546875,-1.073760986328125,-0.414520263671875,-1.9618988037109375
1663860792491780900,11.97478076171875,-0.937408447265625,-0.3825531005859375,-2.47003173828125
1663860792501668600,11.984668701171875,-0.6614990234375,-0.4677734375,-2.9866790771484375
1663860792511526000,11.99452587890625,-0.2343292236328125,-0.7372894287109375,-3.474578857421875
1663860792521383000,12.0043828125,0.1299896240234375,-0.809722900390625,-3.5672454833984375
1663860792531270700,12.014270751953125,0.2034912109375,-0.2909393310546875,-3.2838897705078125
1663860792541158400,12.024158447265625,0.145965576171875,0.4749755859375,-3.1155853271484375
1663860792551046100,12.034046142578125,0.2769927978515625,0.9160003662109375,-3.2498016357421875
1663860792560903400,12.0439033203125,0.615753173828125,1.025726318359375,-3.5491485595703125
1663860792570821600,12.053821533203125,0.8682098388671875,0.957550048828125,-3.874053955078125
1663860792580709000,12.063709228515625,0.7339935302734375,0.466461181640625,-4.14569091796875
1663860792590596900,12.073596923828125,0.2556915283203125,-0.4794921875,-4.1840362548828125
1663860792600484600,12.083484619140625,-0.253509521484375,-1.253936767578125,-4.064727783203125
1663860792610372400,12.093372314453125,-0.6103668212890625,-1.460601806640625,-3.9486236572265625
1663860792620229400,12.1032294921875,-0.9192962646484375,-1.1495513916015625,-3.7856292724609375
1663860792630117000,12.1131171875,-1.2058563232421875,-0.574310302734375,-3.482025146484375
1663860792639974400,12.122974365234375,-1.36883544921875,-0.355926513671875,-3.076171875
1663860792649892600,12.132892578125,-1.325164794921875,-0.5551300048828125,-2.778961181640625
1663860792659749600,12.14274951171875,-1.13128662109375,-0.8267669677734375,-2.661773681640625
1663860792669634800,12.152634765625,-0.9810791015625,-1.14422607421875,-2.570159912109375
1663860792679522600,12.1625224609375,-0.836212158203125,-1.371124267578125,-2.5211639404296875
1663860792689410300,12.172410400390625,-0.6583099365234375,-1.368988037109375,-2.51690673828125
1663860792699267600,12.182267578125,-0.491058349609375,-1.26885986328125,-2.4796142578125
1663860792709185800,12.192185791015625,-0.389862060546875,-1.21026611328125,-2.3496551513671875
1663860792719042800,12.202042724609376,-0.3259429931640625,-1.223052978515625,-2.12701416015625
1663860792728961000,12.2119609375,-0.27801513671875,-1.3167877197265625,-1.8244781494140625
1663860792738818300,12.221818359375,-0.243927001953125,-1.4659271240234375,-1.500640869140625
1663860792748706000,12.2317060546875,-0.25457763671875,-1.577789306640625,-1.237518310546875
1663860792758593800,12.24159375,-0.32489013671875,-1.566070556640625,-1.0170135498046875
1663860792768481300,12.251481201171876,-0.415435791015625,-1.4648590087890625,-0.781585693359375
1663860792778369000,12.261369140625,-0.5006561279296875,-1.3104095458984375,-0.4907684326171875
1663860792788226300,12.271226318359375,-0.573089599609375,-1.15167236328125,-0.13177490234375
1663860792798144500,12.28114453125,-0.6252899169921875,-1.028106689453125,0.280487060546875
1663860792808001500,12.29100146484375,-0.6689605712890625,-0.924774169921875,0.710845947265625
1663860792817858800,12.30085888671875,-0.723297119140625,-0.81292724609375,1.145477294921875
1663860792827746600,12.31074658203125,-0.787200927734375,-0.628631591796875,1.599273681640625
1663860792837634300,12.32063427734375,-0.8649749755859375,-0.36871337890625,2.0509490966796875
1663860792847521800,12.330521728515626,-0.9203643798828125,-0.1087799072265625,2.4525604248046875
1663860792857409500,12.340409423828126,-0.8798828125,0.0946807861328125,2.7614898681640625
1663860792867297300,12.35029736328125,-0.746734619140625,0.11065673828125,2.844573974609375
1663860792877185000,12.36018505859375,-0.5421905517578125,-0.184417724609375,2.58251953125
1663860792887072800,12.37007275390625,-0.2503204345703125,-0.412384033203125,1.95721435546875
1663860792896960300,12.379960205078126,0.0383758544921875,-0.36444091796875,1.043212890625
1663860792906817500,12.389817626953125,0.3536834716796875,-0.845947265625,-0.3874359130859375
1663860792916705300,12.399705322265625,0.6295928955078125,-1.6257171630859375,-2.2559051513671875
1663860792926593000,12.409593017578125,0.223724365234375,-1.9207916259765625,-3.505462646484375
1663860792936511200,12.41951123046875,-0.31103515625,-2.167938232421875,-3.6695098876953125
1663860792946398700,12.429398681640626,-0.4505767822265625,-2.285125732421875,-2.948333740234375
1663860792956256000,12.439256103515625,-0.5666961669921875,-2.4832611083984375,-2.1238250732421875
1663860792966143700,12.449143798828125,-0.4505767822265625,-2.8145599365234375,-1.5858612060546875
1663860792976001000,12.4590009765625,-0.2002410888671875,-1.9889678955078125,-0.66973876953125
1663860792985919200,12.468919189453125,-0.2503204345703125,0.14794921875,0.767303466796875
1663860792995806700,12.478806640625,-0.3493804931640625,1.3953704833984375,1.4565277099609375
1663860793005664000,12.4886640625,-0.2013092041015625,2.0931243896484375,0.6810150146484375
1663860793015582200,12.498582275390625,-0.185333251953125,2.2262725830078125,-0.5376434326171875
1663860793025439500,12.508439453125,-0.389862060546875,1.21746826171875,-0.727264404296875
1663860793035327000,12.518326904296876,-0.6455230712890625,0.236358642578125,-0.1690521240234375
1663860793045214700,12.528214599609376,-0.890533447265625,-0.51678466796875,0.4764862060546875
1663860793055102500,12.5381025390625,-0.6838836669921875,-1.669403076171875,0.687408447265625
1663860793064959700,12.547959716796875,-0.1096954345703125,-2.38525390625,0.3731536865234375
1663860793074847200,12.55784716796875,0.202423095703125,-0.5380859375,0.7470703125
1663860793084765400,12.567765380859376,0.1299896240234375,2.436126708984375,2.1755828857421875
1663860793094653200,12.577653076171876,0.0703277587890625,4.2396240234375,3.31329345703125
1663860793104510500,12.587510498046875,0.2066802978515625,4.4377593994140625,3.554046630859375
1663860793114367500,12.597367431640626,0.327056884765625,3.46624755859375,3.359100341796875
1663860793124255200,12.607255126953126,0.2098846435546875,1.9184112548828125,3.2845306396484375
1663860793134173400,12.61717333984375,-0.073486328125,0.684844970703125,3.42620849609375
1663860793144061200,12.627061279296875,-0.232208251953125,0.22357177734375,3.4411163330078125
1663860793153949000,12.636948974609375,-0.239654541015625,0.217193603515625,3.253631591796875
1663860793163836700,12.646836669921875,-0.183197021484375,0.4632568359375,3.0384521484375
1663860793173724200,12.65672412109375,-0.0788116455078125,0.8819122314453125,2.9095611572265625
1663860793183612000,12.66661181640625,0.0926971435546875,1.3389129638671875,2.8754730224609375
1663860793193499600,12.676499755859375,0.2993621826171875,1.49444580078125,2.89251708984375
1663860793203387400,12.686387451171875,0.5283966064453125,1.2249298095703125,2.901031494140625
1663860793213275100,12.696275146484375,0.749969482421875,0.7583465576171875,2.81048583984375
1663860793223132200,12.706132080078126,0.8927154541015625,0.4845733642578125,2.6208648681640625
1663860793233020000,12.71602001953125,0.853302001953125,0.6422271728515625,2.4653472900390625
1663860793242907600,12.72590771484375,0.66900634765625,1.2696685791015625,2.4163360595703125
1663860793252795400,12.73579541015625,0.4176025390625,2.1048431396484375,2.4770660400390625
1663860793262683100,12.74568310546875,0.136383056640625,2.6289520263671875,2.6475067138671875
1663860793272570600,12.755570556640626,-0.0287322998046875,2.7983245849609375,2.799835205078125
1663860793282458400,12.765458251953126,-0.061767578125,2.792999267578125,2.774261474609375
1663860793292346000,12.77534619140625,0.020263671875,2.6353302001953125,2.5100860595703125
1663860793302233900,12.78523388671875,0.17047119140625,2.4190826416015625,2.0615997314453125
1663860793312121600,12.79512158203125,0.328125,2.1197509765625,1.601409912109375
1663860793321978600,12.804978515625,0.568878173828125,1.5327911376953125,1.2892913818359375
1663860793331866400,12.814866455078125,0.8074951171875,0.8297119140625,1.078369140625
1663860793341754000,12.824754150390625,0.9374542236328125,0.3237152099609375,0.997406005859375
1663860793351641900,12.834641845703125,0.91827392578125,0.2225189208984375,1.1273651123046875
1663860793361529300,12.844529296875,0.78192138671875,0.5623321533203125,1.4480133056640625
1663860793371417000,12.8544169921875,0.611480712890625,1.093902587890625,1.8016815185546875
1663860793381304800,12.864304931640625,0.4602203369140625,1.444366455078125,1.9358978271484375
1663860793391162000,12.874162109375,0.3462371826171875,1.5189361572265625,1.7420196533203125
1663860793401019100,12.88401904296875,0.27166748046875,1.3943023681640625,1.3212432861328125
1663860793410907000,12.893906982421875,0.2194671630859375,1.0970916748046875,0.8557281494140625
1663860793420764200,12.90376416015625,0.157684326171875,0.7668609619140625,0.5020599365234375
1663860793430652000,12.91365185546875,0.030914306640625,0.6667327880859375,0.3401336669921875
1663860793440570000,12.923570068359375,-0.1214141845703125,0.6315765380859375,0.323089599609375
1663860793450427100,12.93342724609375,-0.18426513671875,0.432373046875,0.2517242431640625
1663860793460315000,12.94331494140625,-0.12994384765625,0.1543426513671875,0.017364501953125
1663860793470202600,12.95320263671875,-0.09478759765625,0.0382232666015625,-0.25640869140625
1663860793480090400,12.96309033203125,-0.2247467041015625,0.25128173828125,-0.4460296630859375
1663860793489977900,12.972977783203126,-0.52728271484375,0.577239990234375,-0.5855712890625
1663860793499865600,12.982865478515626,-0.90545654296875,0.6443634033203125,-0.7666778564453125
1663860793509753300,12.99275341796875,-1.199462890625,0.3237152099609375,-1.0372467041015625
1663860793519641000,13.00264111328125,-1.2271575927734375,-0.2696380615234375,-1.4505767822265625
1663860793529528800,13.01252880859375,-1.06524658203125,-0.661651611328125,-2.0172882080078125
1663860793539416300,13.022416259765626,-0.845794677734375,-0.61798095703125,-2.6798858642578125
1663860793549304000,13.032303955078126,-0.502777099609375,-0.593475341796875,-3.338226318359375
