time,seconds_elapsed,z,y,x
1663860780717732400,0.200732421875,-42.7154541015625,4.56695556640625,-5.4718017578125
1663860780737691000,0.22069091796875,-41.76483154296875,6.21795654296875,-8.2061767578125
1663860780757710300,0.24071044921875,-40.65704345703125,8.0352783203125,-9.2620849609375
1663860780777699300,0.26069921875,-41.71142578125,8.64105224609375,-9.26055908203125
1663860780797688300,0.280688232421875,-41.015625,5.74493408203125,-10.49346923828125
1663860780817677300,0.30067724609375,-42.0196533203125,8.612060546875,-12.61444091796875
1663860780837666300,0.320666259765625,-41.015625,5.73883056640625,-11.102294921875
1663860780857655600,0.340655517578125,-38.7115478515625,6.63299560546875,-13.8397216796875
1663860780877644500,0.36064453125,-39.92767333984375,6.77947998046875,-14.1448974609375
1663860780897633500,0.380633544921875,-40.73028564453125,4.9652099609375,-12.93487548828125
1663860780917622500,0.40062255859375,-40.8538818359375,6.31103515625,-15.36712646484375
1663860780937611500,0.420611572265625,-38.56964111328125,6.17218017578125,-14.4500732421875
1663860780957600500,0.4406005859375,-38.88702392578125,5.70068359375,-16.28265380859375
1663860780977559000,0.46055908203125,-39.82696533203125,4.49676513671875,-14.61334228515625
1663860780997578500,0.48057861328125,-38.8885498046875,5.68695068359375,-17.8070068359375
1663860781017567500,0.5005673828125,-38.27972412109375,5.5511474609375,-16.13006591796875
1663860781037556500,0.520556396484375,-38.1256103515625,5.69610595703125,-17.0440673828125
1663860781057545500,0.54054541015625,-37.31231689453125,7.97119140625,-17.79327392578125
1663860781077534500,0.560534423828125,-37.33062744140625,7.1990966796875,-19.1680908203125
1663860781097523700,0.580523681640625,-37.9364013671875,7.35931396484375,-17.94891357421875
1663860781117512700,0.6005126953125,-36.66534423828125,9.6343994140625,-18.8507080078125
1663860781137501700,0.620501708984375,-36.21063232421875,9.61151123046875,-21.746826171875
1663860781157490700,0.64049072265625,-34.91058349609375,13.1134033203125,-21.270751953125
1663860781177479700,0.660479736328125,-34.72747802734375,14.4805908203125,-21.41571044921875
1663860781197468700,0.68046875,-33.76922607421875,16.45050048828125,-22.31903076171875
1663860781217457700,0.700457763671875,-34.2315673828125,16.2872314453125,-23.53973388671875
1663860781237446700,0.72044677734375,-32.6690673828125,17.82379150390625,-21.85516357421875
1663860781257435600,0.740435546875,-31.121826171875,18.8812255859375,-23.06671142578125
1663860781277424600,0.760424560546875,-29.87213134765625,20.2392578125,-24.58343505859375
1663860781297413600,0.78041357421875,-29.8736572265625,20.22857666015625,-25.8026123046875
1663860781317677300,0.80067724609375,-29.26177978515625,20.37353515625,-26.715087890625
1663860781337757700,0.8207578125,-29.571533203125,20.2117919921875,-27.935791015625
1663860781357380400,0.84038037109375,-28.30810546875,22.05352783203125,-26.0955810546875
1663860781377400000,0.860400146484375,-27.8289794921875,22.9705810546875,-25.48065185546875
1663860781397389000,0.88038916015625,-27.64892578125,24.1912841796875,-25.018310546875
1663860781417347600,0.90034765625,-25.80108642578125,24.95880126953125,-24.554443359375
1663860781437305900,0.920305908203125,-26.84478759765625,26.0162353515625,-25.00762939453125
1663860781457325600,0.94032568359375,-24.54376220703125,26.63116455078125,-24.8504638671875
1663860781477314600,0.960314453125,-25.75225830078125,27.08892822265625,-24.2401123046875
1663860781497303600,0.980303466796875,-25.286865234375,27.5299072265625,-26.0650634765625
1663860781517292500,1.00029248046875,-23.541259765625,30.4443359375,-23.4588623046875
1663860781537281500,1.020281494140625,-23.15826416015625,33.795166015625,-22.52655029296875
1663860781557270500,1.0402705078125,-21.15325927734375,34.72900390625,-20.53985595703125
1663860781577259500,1.060259521484375,-21.15325927734375,34.72900390625,-20.53985595703125
1663860781597248500,1.08024853515625,-18.194580078125,37.33978271484375,-17.93212890625
1663860781617237500,1.100237548828125,-16.05987548828125,37.3443603515625,-17.9290771484375
1663860781637226800,1.120226806640625,-13.18511962890625,36.30218505859375,-16.10260009765625
1663860781657215700,1.1402158203125,-9.8907470703125,40.27862548828125,-13.946533203125
1663860781677204700,1.160204833984375,-6.23931884765625,39.97344970703125,-15.01007080078125
1663860781697193700,1.18019384765625,-7.29827880859375,40.28778076171875,-13.4857177734375
1663860781717182700,1.2001826171875,-7.3516845703125,37.86773681640625,-12.12615966796875
1663860781737171700,1.220171630859375,-6.549072265625,39.67437744140625,-14.25018310546875
1663860781757160700,1.24016064453125,-6.86187744140625,39.36309814453125,-15.16571044921875
1663860781777149700,1.260149658203125,-5.53741455078125,37.37640380859375,-16.85028076171875
1663860781797138700,1.280138671875,-6.134033203125,37.97149658203125,-18.06793212890625
1663860781817127700,1.300127685546875,-5.1025390625,36.4501953125,-18.53179931640625
1663860781837116700,1.32011669921875,-6.36444091796875,34.7442626953125,-22.35107421875
1663860781857105700,1.340105712890625,-3.80401611328125,33.37554931640625,-23.1170654296875
1663860781877095000,1.360094970703125,-3.77349853515625,34.73358154296875,-24.17755126953125
1663860781897084000,1.380083984375,-2.4017333984375,34.73052978515625,-24.93743896484375
1663860781917073000,1.400072998046875,-0.5767822265625,34.44366455078125,-23.4130859375
1663860781937031400,1.420031494140625,1.10321044921875,34.5977783203125,-23.5626220703125
1663860781957051000,1.44005078125,3.8360595703125,34.1400146484375,-24.47662353515625
1663860781977040000,1.460039794921875,4.644775390625,36.11907958984375,-24.3133544921875
1663860781997028900,1.48002880859375,2.008056640625,34.14764404296875,-23.10638427734375
1663860782017017900,1.500017822265625,5.96160888671875,33.6883544921875,-24.47662353515625
1663860782037006800,1.5200068359375,3.2135009765625,33.53118896484375,-24.32708740234375
1663860782056995800,1.539995849609375,4.89349365234375,33.6822509765625,-24.93438720703125
1663860782076984800,1.55998486328125,4.43572998046875,33.68072509765625,-24.93438720703125
1663860782096973800,1.579973876953125,4.107666015625,32.623291015625,-24.1790771484375
1663860782116963000,1.599963134765625,5.96160888671875,33.6883544921875,-24.47662353515625
1663860782136952000,1.6199521484375,6.2225341796875,31.84967041015625,-26.31378173828125
1663860782156941000,1.639941162109375,6.05926513671875,31.38580322265625,-27.2308349609375
1663860782176930000,1.659929931640625,5.8746337890625,30.00640869140625,-28.60870361328125
1663860782196919000,1.6799189453125,7.37762451171875,29.0985107421875,-28.45916748046875
1663860782217243600,1.70024365234375,7.4371337890625,31.68182373046875,-28.44696044921875
1663860782237019100,1.72001904296875,8.770751953125,30.00946044921875,-28.91082763671875
1663860782256886000,1.739885986328125,8.6395263671875,30.92193603515625,-28.753662109375
1663860782276875000,1.759875,6.79473876953125,30.30853271484375,-29.06341552734375
1663860782296864000,1.779864013671875,8.001708984375,29.69970703125,-29.3701171875
1663860782316853000,1.79985302734375,5.95550537109375,33.64715576171875,-29.35333251953125
1663860782336842000,1.819842041015625,4.08477783203125,31.82525634765625,-28.60260009765625
1663860782356831200,1.839831298828125,1.336669921875,31.66656494140625,-28.75823974609375
1663860782376820200,1.8598203125,2.1484375,33.80279541015625,-27.984619140625
1663860782396809200,1.879809326171875,-0.7293701171875,34.56878662109375,-26.61285400390625
1663860782416798200,1.899798095703125,-3.33709716796875,33.82415771484375,-24.02801513671875
1663860782436787200,1.919787109375,-4.656982421875,36.1083984375,-23.2574462890625
1663860782456776200,1.939776123046875,-5.69915771484375,37.17803955078125,-22.186279296875
1663860782476765200,1.95976513671875,-4.6295166015625,37.19024658203125,-21.1181640625
1663860782496754200,1.979754150390625,-4.315185546875,37.51373291015625,-18.829345703125
1663860782516743200,1.9997431640625,-4.07867431640625,41.17889404296875,-16.8304443359375
1663860782536732200,2.019732177734375,-1.48773193359375,40.91644287109375,-12.40997314453125
1663860782556721200,2.03972119140625,-4.6630859375,41.998291015625,-9.5123291015625
1663860782576710400,2.05971044921875,-4.60968017578125,44.293212890625,-7.672119140625
1663860782596699400,2.079699462890625,-5.517578125,44.4671630859375,-4.9285888671875
1663860782616688400,2.0996884765625,-6.74591064453125,44.02923583984375,-2.3406982421875
1663860782636677400,2.119677490234375,-8.07647705078125,45.84503173828125,-3.09600830078125
1663860782656666400,2.139666259765625,-9.197998046875,43.4234619140625,-1.58538818359375
1663860782676656400,2.159656494140625,-8.380126953125,45.8587646484375,-1.26800537109375
1663860782696645400,2.179645263671875,-7.48291015625,44.976806640625,1.93023681640625
1663860782716634600,2.199634521484375,-5.5023193359375,44.83184814453125,2.38800048828125
1663860782736623600,2.21962353515625,-7.35015869140625,44.06890869140625,2.38189697265625
1663860782756612600,2.239612548828125,-6.40106201171875,45.458984375,4.82940673828125
1663860782776601600,2.2596015625,-5.15899658203125,46.38519287109375,6.20574951171875
1663860782796590600,2.279590576171875,-4.26025390625,45.50628662109375,10.0128173828125
1663860782816610000,2.299610107421875,-2.42767333984375,45.5322265625,12.6068115234375
1663860782836568600,2.319568603515625,-2.4505615234375,44.47784423828125,13.66729736328125
1663860782856557600,2.3395576171875,0.74005126953125,43.7774658203125,19.915771484375
1663860782876546600,2.359546630859375,2.6824951171875,41.839599609375,24.0234375
1663860782896535600,2.37953564453125,2.20794677734375,40.95611572265625,27.5238037109375
1663860782916524500,2.399524658203125,5.43060302734375,34.80072021484375,35.7269287109375
1663860782936513500,2.419513427734375,7.21588134765625,32.7056884765625,39.0716552734375
1663860782956502800,2.439502685546875,6.93359375,33.7615966796875,38.3148193359375
1663860782976491800,2.45949169921875,9.66339111328125,33.15277099609375,37.40081787109375
1663860782996480800,2.479480712890625,11.33575439453125,32.867431640625,39.2303466796875
1663860783016469800,2.4994697265625,11.18011474609375,32.71636962890625,39.38140869140625
1663860783036458800,2.519458740234375,12.0758056640625,31.8206787109375,41.05377197265625
1663860783056447700,2.53944775390625,10.406494140625,32.2540283203125,38.76800537109375
1663860783076436700,2.559436767578125,11.21063232421875,34.075927734375,38.3209228515625
1663860783096731000,2.57973095703125,9.820556640625,33.3160400390625,38.7725830078125
1663860783116689400,2.599689453125,8.8104248046875,35.88714599609375,37.56561279296875
1663860783136434400,2.619434326171875,7.1136474609375,34.97467041015625,37.8631591796875
1663860783156392700,2.639392822265625,6.19964599609375,35.107421875,35.72998046875
1663860783176381700,2.659381591796875,4.40216064453125,36.6119384765625,34.36279296875
1663860783196371000,2.679370849609375,1.69830322265625,38.29345703125,36.3494873046875
1663860783216390400,2.699390380859375,1.42364501953125,39.65301513671875,35.28900146484375
1663860783236349000,2.719348876953125,-0.12054443359375,38.8824462890625,34.521484375
1663860783256338000,2.739337890625,0.33111572265625,38.580322265625,34.521484375
1663860783276327000,2.759326904296875,0.35552978515625,39.64996337890625,35.2874755859375
1663860783296316000,2.77931591796875,5.50994873046875,38.427734375,33.306884765625
1663860783316305000,2.799304931640625,2.16522216796875,38.8702392578125,32.391357421875
1663860783336294000,2.8192939453125,2.47039794921875,38.8702392578125,32.391357421875
1663860783356283000,2.839282958984375,3.56597900390625,40.0970458984375,33.465576171875
1663860783376272000,2.85927197265625,4.6478271484375,40.7135009765625,34.2315673828125
1663860783396260900,2.8792607421875,0.6561279296875,39.62249755859375,31.93511962890625
1663860783416280600,2.899280517578125,2.19268798828125,40.081787109375,31.939697265625
1663860783436239000,2.919239013671875,2.6031494140625,37.97149658203125,33.9111328125
1663860783456228000,2.93922802734375,1.26190185546875,39.45465087890625,29.95452880859375
1663860783476217000,2.959217041015625,-1.65863037109375,38.4033203125,32.080078125
1663860783496206000,2.9792060546875,-4.5501708984375,38.68865966796875,30.70526123046875
1663860783516225500,2.9992255859375,-6.8023681640625,40.203857421875,30.71136474609375
1663860783536184000,3.01918408203125,-9.1461181640625,37.76702880859375,30.54351806640625
1663860783556173000,3.039173095703125,-9.00115966796875,37.33062744140625,32.8277587890625
1663860783576162000,3.059162109375,-11.13739013671875,37.3138427734375,31.45294189453125
1663860783596151000,3.079151123046875,-10.3851318359375,36.859130859375,31.45294189453125
1663860783616140000,3.09914013671875,-12.6373291015625,38.38043212890625,32.06634521484375
1663860783636129000,3.11912890625,-12.33673095703125,38.22479248046875,31.60858154296875
1663860783656392700,3.139392822265625,-12.42828369140625,34.13238525390625,32.96051025390625
1663860783676107300,3.159107177734375,-14.2242431640625,35.63995361328125,31.89849853515625
1663860783696126700,3.179126708984375,-12.8509521484375,35.65521240234375,33.42437744140625
1663860783716115700,3.19911572265625,-14.239501953125,34.89532470703125,33.7249755859375
1663860783736074200,3.21907421875,-15.98358154296875,31.87255859375,36.14654541015625
1663860783756063200,3.239063232421875,-13.99993896484375,32.01446533203125,34.47265625
1663860783776082700,3.259082763671875,-15.362548828125,32.330322265625,36.3006591796875
1663860783796071700,3.27907177734375,-13.53302001953125,32.33489990234375,36.3037109375
1663860783816030200,3.2990302734375,-15.7958984375,33.39691162109375,36.61041259765625
1663860783836019200,3.319019287109375,-14.44091796875,32.6416015625,36.9140625
1663860783856039000,3.339038818359375,-12.76092529296875,32.66143798828125,38.74359130859375
1663860783876028000,3.35902783203125,-13.9801025390625,32.79266357421875,36.61041259765625
1663860783896017000,3.379016845703125,-12.73193359375,34.0087890625,36.4654541015625
1663860783915975400,3.398975341796875,-9.820556640625,34.75341796875,33.880615234375
1663860783935964400,3.41896435546875,-9.332275390625,36.12213134765625,33.88824462890625
1663860783956014300,3.439014404296875,-7.965087890625,35.8367919921875,35.7177734375
1663860783975942400,3.4589423828125,-4.12445068359375,37.0635986328125,36.0321044921875
1663860783996175600,3.479175537109375,-2.49176025390625,35.0921630859375,36.17706298828125
1663860784016073000,3.499072998046875,0.7354736328125,36.16943359375,36.9476318359375
1663860784035909400,3.518909423828125,3.18756103515625,36.76910400390625,35.27679443359375
1663860784055898400,3.5388984375,7.01141357421875,37.37030029296875,33.60748291015625
1663860784075887400,3.558887451171875,5.3436279296875,37.8173828125,32.9986572265625
1663860784095876400,3.57887646484375,5.69915771484375,40.08941650390625,31.94427490234375
1663860784115865300,3.598865234375,9.32464599609375,38.57421875,31.63604736328125
1663860784135854600,3.6188544921875,8.3831787109375,37.37030029296875,33.30535888671875
1663860784155843600,3.638843505859375,9.94873046875,39.1845703125,31.79168701171875
1663860784175832600,3.65883251953125,10.0921630859375,38.873291015625,30.87615966796875
1663860784195821600,3.678821533203125,8.14208984375,40.24200439453125,31.48956298828125
1663860784215810600,3.698810546875,9.08203125,41.31622314453125,32.41119384765625
1663860784235799600,3.718799560546875,8.6090087890625,40.69366455078125,30.88226318359375
1663860784255788500,3.73878857421875,5.5694580078125,41.14532470703125,31.03485107421875
1663860784275777500,3.758777587890625,4.4952392578125,40.83251953125,30.26885986328125
1663860784295766500,3.7787666015625,2.813720703125,40.67535400390625,30.11474609375
1663860784315755500,3.798755615234375,0.225830078125,40.8233642578125,30.2642822265625
1663860784335744500,3.81874462890625,1.13677978515625,40.67840576171875,30.8746337890625
1663860784355733500,3.8387333984375,4.35943603515625,41.59393310546875,30.57708740234375
1663860784375722800,3.85872265625,5.11474609375,41.2811279296875,29.35791015625
1663860784395711700,3.878711669921875,4.35028076171875,41.2689208984375,27.98614501953125
1663860784415700700,3.89870068359375,2.850341796875,42.333984375,28.5980224609375
1663860784435689700,3.918689697265625,4.50286865234375,41.1407470703125,30.7281494140625
1663860784455678700,3.9386787109375,7.41729736328125,41.90826416015625,31.0394287109375
1663860784475667700,3.958667724609375,6.329345703125,41.1224365234375,28.13873291015625
1663860784495656700,3.97865673828125,4.217529296875,42.1783447265625,27.685546875
1663860784515645700,3.998645751953125,1.14898681640625,41.26739501953125,28.5919189453125
1663860784535634700,4.018634765625,1.47857666015625,42.33551025390625,29.05426025390625
1663860784555623700,4.038623779296875,-0.48370361328125,43.23577880859375,28.14178466796875
1663860784575612700,4.05861279296875,-4.48150634765625,41.85333251953125,27.3681640625
1663860784595601700,4.0786015625,-6.93359375,41.2445068359375,27.972412109375
1663860784615591000,4.0985908203125,-5.87921142578125,40.64788818359375,29.0374755859375
1663860784635580000,4.118579833984375,-9.24530029296875,40.17333984375,27.65960693359375
1663860784655569000,4.13856884765625,-12.77313232421875,39.25628662109375,27.95562744140625
1663860784675558000,4.158557861328125,-12.9302978515625,39.1021728515625,27.65045166015625
1663860784695547000,4.178546875,-15.22979736328125,38.5040283203125,29.3212890625
1663860784715536000,4.198535888671875,-15.71197509765625,37.432861328125,28.55377197265625
1663860784735524900,4.21852490234375,-17.2821044921875,35.44921875,28.0853271484375
1663860784755513900,4.238513916015625,-15.75164794921875,35.62164306640625,30.0689697265625
1663860784775502800,4.2585029296875,-17.8436279296875,37.445068359375,30.5328369140625
1663860784795491800,4.278491943359375,-17.78564453125,33.21533203125,33.5601806640625
1663860784815480800,4.298480712890625,-19.146728515625,33.6669921875,33.5601806640625
1663860784835469800,4.3184697265625,-20.24993896484375,32.14263916015625,33.24737548828125
1663860784855459000,4.338458984375,-19.16656494140625,32.8948974609375,32.03277587890625
1663860784875783700,4.35878369140625,-17.32940673828125,33.2061767578125,32.49359130859375
1663860784895711700,4.378711669921875,-18.24798583984375,33.05206298828125,32.3394775390625
1663860784915487000,4.398487060546875,-20.68328857421875,33.2061767578125,33.251953125
1663860784935445500,4.418445556640625,-17.61016845703125,34.136962890625,34.783935546875
1663860784955404000,4.438404052734375,-18.2464599609375,33.0535888671875,32.6446533203125
1663860784975423500,4.458423583984375,-14.37225341796875,35.79864501953125,32.81402587890625
1663860784995382000,4.478382080078125,-14.349365234375,36.85150146484375,31.4483642578125
1663860785015371000,4.49837109375,-12.02545166015625,38.52081298828125,30.54351806640625
1663860785035360000,4.518360107421875,-9.423828125,38.84735107421875,32.68280029296875
1663860785055349000,4.538348876953125,-6.51092529296875,39.59808349609375,30.86090087890625
1663860785075338200,4.558338134765625,-4.23431396484375,39.141845703125,30.25054931640625
1663860785095327200,4.5783271484375,-0.57373046875,39.1632080078125,31.77947998046875
1663860785115316200,4.598316162109375,1.568603515625,39.471435546875,31.7840576171875
1663860785135305200,4.61830517578125,4.61883544921875,39.61334228515625,29.8065185546875
1663860785155294200,4.638294189453125,4.6966552734375,43.08929443359375,27.53753662109375
1663860785175283200,4.658283203125,7.27081298828125,42.33551025390625,27.5360107421875
1663860785195272200,4.678272216796875,8.33892822265625,42.333984375,27.23388671875
1663860785215261200,4.69826123046875,8.46405029296875,41.1224365234375,27.68402099609375
1663860785235250200,4.718250244140625,9.99298095703125,41.41387939453125,25.85906982421875
1663860785255239200,4.7382392578125,11.34796142578125,40.521240234375,27.685546875
1663860785275228200,4.758228271484375,10.45684814453125,41.58782958984375,28.2989501953125
1663860785295217200,4.778217041015625,7.73162841796875,42.4835205078125,27.081298828125
1663860785315206400,4.798206298828125,9.54742431640625,41.8731689453125,26.318359375
1663860785335195400,4.8181953125,7.1380615234375,43.23272705078125,25.86517333984375
1663860785355184400,4.838184326171875,4.833984375,42.474365234375,26.6204833984375
1663860785375173400,4.85817333984375,3.3203125,43.06182861328125,24.639892578125
1663860785395162400,4.878162353515625,-0.3143310546875,44.11773681640625,24.64141845703125
1663860785415151400,4.8981513671875,-1.947021484375,46.08917236328125,24.4964599609375
1663860785435140400,4.918140380859375,2.27203369140625,43.8262939453125,25.40435791015625
1663860785455159800,4.938159912109375,4.51812744140625,42.1417236328125,23.41766357421875
1663860785475118300,4.958118408203125,4.40521240234375,43.82171630859375,24.3408203125
1663860785495107300,4.978107421875,3.33709716796875,43.8201904296875,24.33929443359375
1663860785515096300,4.998096435546875,4.87518310546875,44.29779052734375,26.629638671875
1663860785535085300,5.018085205078125,6.09283447265625,44.27642822265625,23.73504638671875
1663860785555074600,5.038074462890625,3.36151123046875,44.879150390625,23.88763427734375
1663860785575063600,5.0580634765625,1.84173583984375,45.17059326171875,22.81951904296875
1663860785595052500,5.078052490234375,-0.59661865234375,45.1751708984375,23.88458251953125
1663860785615041500,5.09804150390625,-2.17132568359375,43.03741455078125,23.10943603515625
1663860785635030500,5.118030517578125,-4.1656494140625,42.43316650390625,24.01885986328125
1663860785655019500,5.13801953125,-5.987548828125,42.8741455078125,22.6470947265625
1663860785675008500,5.158008544921875,-7.94830322265625,43.780517578125,22.49755859375
1663860785694997500,5.17799755859375,-9.37957763671875,41.1895751953125,22.02606201171875
1663860785715017000,5.198016845703125,-13.22479248046875,39.6820068359375,24.45220947265625
1663860785734975500,5.2179755859375,-13.2232666015625,39.691162109375,25.518798828125
1663860785754964500,5.237964599609375,-16.87164306640625,40.1458740234375,26.28021240234375
1663860785775228200,5.258228271484375,-16.619873046875,37.85400390625,24.74517822265625
1663860785795125800,5.278125732421875,-18.62030029296875,36.96136474609375,27.4810791015625
1663860785814962200,5.297962158203125,-18.4600830078125,37.26654052734375,27.63519287109375
1663860785834920700,5.317920654296875,-18.19610595703125,35.58197021484375,26.10321044921875
1663860785854940200,5.337940185546875,-18.939208984375,36.35711669921875,27.93426513671875
1663860785874898700,5.357898681640625,-18.96820068359375,35.13031005859375,26.708984375
1663860785894887700,5.3778876953125,-20.8099365234375,34.5245361328125,27.46734619140625
1663860785914876700,5.397876708984375,-20.77789306640625,35.90240478515625,28.5400390625
1663860785934865700,5.41786572265625,-21.58203125,34.08203125,29.29229736328125
1663860785954854700,5.437854736328125,-22.05810546875,33.1756591796875,29.89654541015625
1663860785974843600,5.45784375,-23.7152099609375,34.0850830078125,30.05218505859375
1663860785994832600,5.47783251953125,-21.7620849609375,32.86590576171875,29.13360595703125
1663860786014821600,5.497821533203125,-22.0733642578125,32.56072998046875,29.132080078125
1663860786034811000,5.517810791015625,-20.82672119140625,33.770751953125,28.22418212890625
1663860786054800000,5.5377998046875,-19.10247802734375,35.76507568359375,29.913330078125
1663860786074788900,5.557788818359375,-16.20941162109375,35.74066162109375,26.25885009765625
1663860786094777900,5.57777783203125,-14.031982421875,37.57476806640625,27.032470703125
1663860786114766800,5.597766845703125,-11.3006591796875,36.98272705078125,28.25164794921875
1663860786134755800,5.617755859375,-8.07952880859375,37.75177001953125,28.56292724609375
1663860786154744800,5.637744873046875,-3.1768798828125,38.69476318359375,31.011962890625
1663860786174733800,5.65773388671875,-0.12969970703125,38.56048583984375,32.38677978515625
1663860786194722800,5.677722900390625,2.46124267578125,38.55133056640625,30.560302734375
1663860786214711800,5.6977119140625,5.03692626953125,37.7960205078125,30.560302734375
1663860786234700800,5.71770068359375,6.60552978515625,39.7735595703125,30.267333984375
1663860786254690000,5.73768994140625,7.9559326171875,38.84735107421875,28.28216552734375
1663860786274679000,5.757678955078125,9.92584228515625,38.3880615234375,27.3681640625
1663860786294637300,5.77763720703125,11.2823486328125,37.63275146484375,27.6702880859375
1663860786314657000,5.797656982421875,12.945556640625,37.03460693359375,28.27911376953125
1663860786334646000,5.81764599609375,12.06817626953125,38.6993408203125,27.6763916015625
1663860786354635000,5.837635009765625,11.895751953125,37.79144287109375,28.28216552734375
1663860786374624000,5.8576240234375,11.1663818359375,39.2974853515625,26.763916015625
1663860786394613000,5.877613037109375,10.0738525390625,38.226318359375,26.1474609375
1663860786414602000,5.89760205078125,9.18731689453125,39.44091796875,26.30615234375
1663860786434591000,5.917591064453125,7.38067626953125,40.49530029296875,25.5462646484375
1663860786454580000,5.937580078125,4.04205322265625,41.24603271484375,25.3936767578125
1663860786474569000,5.95756884765625,3.73382568359375,41.0888671875,24.7833251953125
1663860786494558200,5.97755810546875,3.3905029296875,39.41650390625,24.774169921875
1663860786514547200,5.997547119140625,4.608154296875,39.27154541015625,25.384521484375
1663860786534536200,6.0175361328125,5.54046630859375,40.16571044921875,22.9522705078125
1663860786554525200,6.037525146484375,7.21588134765625,40.02838134765625,24.3255615234375
1663860786574514200,6.05751416015625,7.18231201171875,38.51776123046875,25.384521484375
1663860786594503200,6.077503173828125,7.65838623046875,39.41650390625,23.712158203125
1663860786614492200,6.0974921875,8.837890625,37.591552734375,23.40087890625
1663860786634481200,6.117481201171875,8.13446044921875,40.185546875,24.7833251953125
1663860786654470100,6.13747021484375,6.866455078125,38.18511962890625,22.02911376953125
1663860786674764300,6.157764404296875,5.194091796875,38.34075927734375,22.943115234375
1663860786694539800,6.177539794921875,4.2999267578125,39.24713134765625,22.4884033203125
1663860786714437000,6.19743701171875,1.55792236328125,39.39666748046875,22.943115234375
1663860786734426400,6.21742626953125,-1.0406494140625,39.0869140625,22.9400634765625
1663860786754415400,6.237415283203125,-1.19171142578125,39.22271728515625,20.95794677734375
1663860786774404400,6.257404296875,-4.08935546875,39.21661376953125,20.95489501953125
1663860786794393300,6.277393310546875,-4.24346923828125,39.07470703125,22.174072265625
1663860786814382300,6.29738232421875,-6.07452392578125,39.0594482421875,20.79925537109375
1663860786834371300,6.317371337890625,-6.5704345703125,37.384033203125,20.6390380859375
1663860786854329900,6.337329833984375,-7.44476318359375,39.07318115234375,22.93243408203125
1663860786874349300,6.357349365234375,-8.55560302734375,37.23907470703125,21.85516357421875
1663860786894338300,6.37733837890625,-9.3170166015625,37.23907470703125,22.1588134765625
1663860786914327300,6.397327392578125,-8.11004638671875,36.6485595703125,23.834228515625
1663860786934316300,6.41731640625,-10.41717529296875,35.7330322265625,23.97918701171875
1663860786954305300,6.43730517578125,-10.2508544921875,36.346435546875,24.59259033203125
1663860786974294500,6.45729443359375,-10.5712890625,35.59417724609375,25.65460205078125
1663860786994283500,6.477283447265625,-10.1593017578125,33.6212158203125,25.79803466796875
1663860787014272500,6.4972724609375,-10.1165771484375,35.44921875,26.263427734375
1663860787034292000,6.5172919921875,-8.87451171875,36.370849609375,27.18505859375
1663860787054250500,6.53725048828125,-8.416748046875,36.37847900390625,27.94647216796875
1663860787074239500,6.557239501953125,-8.09783935546875,36.9873046875,27.94952392578125
1663860787094228500,6.577228515625,-7.5164794921875,35.7696533203125,27.6397705078125
1663860787114217500,6.597217529296875,-8.10546875,36.6790771484375,27.49176025390625
1663860787134206500,6.61720654296875,-4.7332763671875,37.44354248046875,27.1942138671875
1663860787154195500,6.637195556640625,-1.1962890625,38.81072998046875,26.1383056640625
1663860787174154000,6.657154052734375,-0.15106201171875,37.7685546875,28.57208251953125
1663860787194173400,6.67717333984375,3.4088134765625,40.1885986328125,26.3031005859375
1663860787214162700,6.69716259765625,7.318115234375,37.628173828125,28.12347412109375
1663860787234151700,6.717151611328125,9.2864990234375,37.0330810546875,29.0374755859375
1663860787254140700,6.737140625,12.1551513671875,35.68572998046875,30.8624267578125
1663860787274129700,6.757129638671875,14.28680419921875,35.6689453125,28.2745361328125
1663860787294118700,6.77711865234375,17.93670654296875,35.223388671875,28.58123779296875
1663860787314107600,6.797107666015625,19.92645263671875,35.53009033203125,28.43170166015625
1663860787334096600,6.8170966796875,20.318603515625,32.647705078125,28.875732421875
1663860787354085600,6.837085693359375,23.382568359375,33.3953857421875,26.7486572265625
1663860787374074600,6.85707470703125,23.6602783203125,32.05413818359375,29.791259765625
1663860787394063600,6.877063720703125,24.603271484375,33.2733154296875,29.949951171875
1663860787414052600,6.897052490234375,24.72076416015625,31.75506591796875,30.09490966796875
1663860787434041900,6.917041748046875,24.54986572265625,30.8502197265625,31.00433349609375
1663860787454030800,6.93703076171875,24.554443359375,31.1431884765625,29.6356201171875
1663860787474019800,6.957019775390625,23.52447509765625,32.6812744140625,32.080078125
1663860787494008800,6.9770087890625,21.5576171875,33.4197998046875,30.0994873046875
1663860787513997800,6.996997802734375,20.953369140625,33.721923828125,29.94842529296875
1663860787533986800,7.01698681640625,18.86138916015625,35.546875,30.71746826171875
1663860787554250500,7.03725048828125,18.121337890625,36.602783203125,29.9591064453125
1663860787574178600,7.057178466796875,14.1998291015625,38.421630859375,30.26885986328125
1663860787593953800,7.076953857421875,17.06085205078125,36.8988037109375,29.19769287109375
1663860787613942800,7.09694287109375,18.87359619140625,36.1480712890625,29.95758056640625
1663860787633931800,7.116931884765625,21.7254638671875,34.04541015625,32.08465576171875
1663860787653951500,7.136951416015625,20.6634521484375,34.33074951171875,30.255126953125
1663860787673910000,7.156909912109375,17.62237548828125,34.6466064453125,32.38677978515625
1663860787693868300,7.176868408203125,20.9442138671875,33.27484130859375,31.01348876953125
1663860787713949000,7.196948974609375,22.04742431640625,34.80072021484375,31.4788818359375
1663860787733877000,7.216876953125,18.55621337890625,35.54840087890625,31.0211181640625
1663860787753866000,7.236865966796875,19.51446533203125,37.51220703125,29.35638427734375
1663860787773855000,7.25685498046875,19.03228759765625,36.4471435546875,29.35028076171875
1663860787793844000,7.276843994140625,15.679931640625,36.58294677734375,28.1280517578125
1663860787813833000,7.2968330078125,16.0430908203125,39.1632080078125,27.68402099609375
1663860787833822000,7.316822021484375,13.91448974609375,39.453125,26.61590576171875
1663860787853811000,7.33681103515625,12.06817626953125,38.6932373046875,27.06756591796875
1663860787873769500,7.35676953125,9.46502685546875,38.35906982421875,24.0142822265625
1663860787893789000,7.376788818359375,10.5743408203125,40.1885986328125,24.481201171875
1663860787913778200,7.396778076171875,8.45489501953125,40.80047607421875,25.54931640625
1663860787933767200,7.41676708984375,6.31866455078125,40.78369140625,24.0234375
1663860787953756200,7.436756103515625,4.4891357421875,40.7867431640625,24.7833251953125
1663860787973745200,7.4567451171875,2.22930908203125,41.99371337890625,24.32861328125
1663860787993734100,7.476734130859375,1.76239013671875,41.54510498046875,25.3936767578125
1663860788013723100,7.49672314453125,1.13067626953125,40.63262939453125,25.3875732421875
1663860788033712000,7.516712158203125,1.28173828125,40.49072265625,26.60675048828125
1663860788053670700,7.536670654296875,-0.38604736328125,40.9423828125,26.45416259765625
1663860788073690000,7.556690185546875,0.830078125,40.7867431640625,25.8453369140625
1663860788093679000,7.57667919921875,-2.35748291015625,41.39556884765625,26.60675048828125
1663860788113668000,7.596668212890625,-0.99029541015625,41.10107421875,27.3681640625
1663860788133657000,7.616656982421875,-0.982666015625,41.41387939453125,28.43780517578125
1663860788153615600,7.63661572265625,0.689697265625,41.25518798828125,27.2186279296875
1663860788173635300,7.65663525390625,1.9317626953125,42.18292236328125,28.90167236328125
1663860788193624300,7.676624267578125,1.9317626953125,42.17681884765625,28.1402587890625
1663860788213613300,7.69661328125,2.8167724609375,40.9454345703125,26.153564453125
1663860788233602300,7.716602294921875,5.2825927734375,42.1600341796875,25.2471923828125
1663860788253591300,7.73659130859375,7.4188232421875,42.17529296875,26.62200927734375
1663860788273580300,7.756580322265625,8.4625244140625,41.107177734375,25.85601806640625
1663860788293569300,7.7765693359375,11.5081787109375,40.9576416015625,25.40130615234375
1663860788313558300,7.796558349609375,16.3543701171875,39.4622802734375,27.0751953125
1663860788333547300,7.81654736328125,18.60809326171875,37.95318603515625,27.68096923828125
1663860788353536300,7.836536376953125,19.6502685546875,36.87896728515625,26.30462646484375
1663860788373525200,7.856525146484375,22.82257080078125,35.53009033203125,27.67333984375
1663860788393514500,7.876514404296875,25.5523681640625,34.91668701171875,26.45416259765625
1663860788413503500,7.89650341796875,25.66070556640625,32.94677734375,27.0538330078125
1663860788433492500,7.916492431640625,28.21807861328125,31.42852783203125,26.593017578125
1663860788453817000,7.936817138671875,29.90264892578125,31.744384765625,27.51007080078125
1663860788473592600,7.956592529296875,29.42962646484375,30.98907470703125,28.2684326171875
1663860788493459500,7.97645947265625,30.15899658203125,29.48455810546875,29.78515625
1663860788513448400,7.996448486328125,31.53228759765625,29.4891357421875,30.09185791015625
1663860788533437400,8.0164375,31.3934326171875,30.096435546875,29.94232177734375
1663860788553396000,8.03639599609375,30.474853515625,29.9468994140625,30.54962158203125
1663860788573415400,8.05641552734375,29.2755126953125,30.85784912109375,30.70526123046875
1663860788593404400,8.076404296875,29.144287109375,31.77337646484375,31.1676025390625
1663860788613393400,8.096393310546874,25.83770751953125,33.88824462890625,30.56488037109375
1663860788633382700,8.116382568359375,24.15771484375,33.8653564453125,28.27606201171875
1663860788653341000,8.1363408203125,22.3480224609375,34.649658203125,31.6314697265625
1663860788673360600,8.156360595703125,21.71630859375,33.72039794921875,29.644775390625
1663860788693349600,8.176349609375,25.7049560546875,34.79461669921875,29.9591064453125
1663860788713338600,8.196338623046875,23.828125,32.672119140625,31.01348876953125
1663860788733327600,8.21632763671875,23.2330322265625,33.2916259765625,32.53936767578125
1663860788753316600,8.236316650390625,24.92218017578125,33.75396728515625,32.84912109375
1663860788773305600,8.2563056640625,24.7772216796875,34.19036865234375,30.56488037109375
1663860788793294600,8.276294677734375,24.31640625,34.03472900390625,30.2581787109375
1663860788813283600,8.29628369140625,24.18975830078125,35.24322509765625,29.35028076171875
1663860788833242000,8.3162421875,24.32403564453125,34.35211181640625,31.7840576171875
1663860788853261800,8.33626171875,23.72589111328125,34.93499755859375,29.0435791015625
1663860788873250800,8.356250732421875,22.0611572265625,35.53466796875,28.43475341796875
1663860788893239800,8.37623974609375,23.60687255859375,36.57684326171875,25.5462646484375
1663860788913228800,8.396228759765625,18.9300537109375,38.71002197265625,27.38037109375
1663860788933217800,8.4162177734375,17.0806884765625,37.933349609375,25.84991455078125
1663860788953206800,8.436206787109375,16.3543701171875,39.4561767578125,26.31378173828125
1663860788973195800,8.45619580078125,13.775634765625,40.057373046875,26.16119384765625
1663860788993184800,8.476184814453125,10.87799072265625,40.0543212890625,26.46331787109375
1663860789013173800,8.496173828125,9.8236083984375,40.65704345703125,26.15966796875
1663860789033162800,8.516162841796875,9.844970703125,41.5740966796875,26.77459716796875
1663860789053151700,8.53615185546875,6.91375732421875,40.0421142578125,26.153564453125
1663860789073140700,8.556140625,7.4005126953125,41.400146484375,24.7894287109375
1663860789093130000,8.5761298828125,5.7373046875,42.01202392578125,25.7049560546875
1663860789113119000,8.596118896484375,5.28564453125,42.17529296875,27.07672119140625
1663860789133108000,8.61610791015625,4.05120849609375,41.5618896484375,26.7669677734375
1663860789153097000,8.636096923828125,5.72052001953125,41.25823974609375,26.46331787109375
1663860789173086000,8.6560859375,1.2908935546875,40.80963134765625,28.436279296875
1663860789193075000,8.676074951171875,1.75018310546875,40.95611572265625,27.5238037109375
1663860789213064000,8.69606396484375,2.66265869140625,40.80352783203125,27.3712158203125
1663860789233053000,8.716052978515625,3.15704345703125,42.474365234375,27.0751953125
1663860789253042000,8.7360419921875,3.14483642578125,41.87469482421875,28.13873291015625
1663860789273031000,8.756031005859375,3.3050537109375,42.31719970703125,26.46484375
1663860789293020000,8.77602001953125,8.03070068359375,42.3187255859375,25.40435791015625
1663860789313009000,8.7960087890625,9.3963623046875,42.01812744140625,25.40435791015625
1663860789333303300,8.81630322265625,11.346435546875,40.509033203125,26.31378173828125
1663860789353231000,8.836231201171875,13.78936767578125,40.6646728515625,26.16424560546875
1663860789373006600,8.856006591796875,18.0450439453125,40.0665283203125,26.165771484375
1663860789392965000,8.875965087890625,19.81658935546875,37.48626708984375,26.15509033203125
1663860789412954000,8.8959541015625,23.3001708984375,36.5631103515625,24.02191162109375
1663860789432943000,8.915943115234375,23.72894287109375,35.2203369140625,26.7578125
1663860789452932000,8.93593212890625,28.0853271484375,32.3394775390625,26.44500732421875
1663860789472921000,8.955921142578125,30.09033203125,33.25958251953125,27.06146240234375
1663860789492910000,8.97591015625,28.9642333984375,30.79986572265625,23.9990234375
1663860789512899000,8.995899169921875,32.305908203125,30.21087646484375,25.372314453125
1663860789532888000,9.01588818359375,32.47222900390625,30.8135986328125,24.7650146484375
1663860789552877000,9.035876953125,33.5296630859375,30.36956787109375,25.83160400390625
1663860789572835600,9.055835693359375,34.893798828125,29.93011474609375,27.50701904296875
1663860789592855300,9.075855224609375,32.708740234375,27.65960693359375,29.01763916015625
1663860789612844300,9.09584423828125,33.21075439453125,29.63409423828125,28.875732421875
1663860789632833300,9.115833251953125,33.0810546875,30.55419921875,29.7943115234375
1663860789652822300,9.135822265625,29.8858642578125,30.987548828125,27.9632568359375
1663860789672811300,9.155811279296875,28.56597900390625,33.26568603515625,28.12652587890625
1663860789692800300,9.17580029296875,26.14288330078125,34.02099609375,28.12652587890625
1663860789712789200,9.195789306640625,25.38299560546875,34.03778076171875,30.25970458984375
1663860789732778200,9.2157783203125,26.1810302734375,35.565185546875,31.0302734375
1663860789752767200,9.235767333984375,27.5360107421875,34.808349609375,31.0272216796875
1663860789772756200,9.255756103515624,28.265380859375,33.29620361328125,31.78253173828125
1663860789792745200,9.2757451171875,28.21044921875,30.87005615234375,32.53326416015625
1663860789812734500,9.295734375,25.8209228515625,33.13140869140625,30.865478515625
1663860789832723500,9.315723388671875,25.18157958984375,31.77490234375,32.3822021484375
1663860789852712400,9.33571240234375,26.4556884765625,34.33380126953125,29.1961669921875
1663860789872701400,9.355701416015625,27.362060546875,33.88824462890625,30.108642578125
1663860789892690400,9.3756904296875,25.69580078125,34.34600830078125,30.718994140625
1663860789912679400,9.395679443359375,24.481201171875,34.63287353515625,29.04205322265625
1663860789932668400,9.41566845703125,24.2156982421875,36.4501953125,28.28826904296875
1663860789952657400,9.435657470703125,24.493408203125,35.2325439453125,27.978515625
1663860789972646400,9.455646484375,21.331787109375,37.0452880859375,27.52685546875
1663860789992635400,9.475635498046875,20.01190185546875,39.45465087890625,25.250244140625
1663860790012624400,9.495624267578124,16.83349609375,40.50140380859375,24.0325927734375
1663860790032613600,9.515613525390625,17.15850830078125,41.4093017578125,23.4283447265625
1663860790052602600,9.5356025390625,13.7939453125,40.95611572265625,24.64141845703125
1663860790072591600,9.555591552734375,11.383056640625,42.17529296875,25.55999755859375
1663860790092580600,9.57558056640625,12.46795654296875,42.93670654296875,25.5645751953125
1663860790112569600,9.595569580078125,9.4207763671875,43.0755615234375,24.64752197265625
1663860790132558600,9.61555859375,8.3282470703125,42.00592041015625,24.33624267578125
1663860790152517000,9.63551708984375,8.53118896484375,44.2779541015625,23.43292236328125
1663860790172536600,9.65553662109375,7.12890625,42.919921875,24.7955322265625
1663860790192525600,9.675525634765625,6.3751220703125,43.2342529296875,26.3214111328125
1663860790212514600,9.6955146484375,4.425048828125,44.6014404296875,26.7822265625
1663860790232870000,9.715869873046875,4.10308837890625,43.841552734375,26.7791748046875
1663860790252614700,9.73561474609375,2.7496337890625,44.74334716796875,25.86669921875
1663860790272481800,9.755481689453125,3.84368896484375,45.8251953125,27.70233154296875
1663860790292501200,9.775501220703125,4.547119140625,43.2373046875,27.081298828125
1663860790312459800,9.795459716796875,4.1351318359375,45.21942138671875,28.00445556640625
1663860790332479200,9.815479248046875,3.662109375,44.5953369140625,26.171875
1663860790352437800,9.835437744140625,6.39801025390625,44.28558349609375,24.8016357421875
1663860790372426800,9.8554267578125,6.26068115234375,44.89898681640625,25.4150390625
1663860790392446200,9.8754462890625,10.05706787109375,44.2901611328125,24.50103759765625
1663860790412435200,9.895435302734375,12.152099609375,42.48046875,25.5615234375
1663860790432393700,9.915393798828125,13.54217529296875,43.243408203125,25.567626953125
1663860790452382700,9.9353828125,18.08929443359375,42.0379638671875,25.71868896484375
1663860790472371700,9.955371826171875,24.2431640625,37.7899169921875,24.9420166015625
1663860790492422000,9.975421875,28.2745361328125,33.990478515625,24.0142822265625
1663860790512380400,9.99538037109375,27.22625732421875,34.76715087890625,26.3031005859375
1663860790532369400,10.015369384765625,28.6865234375,32.01446533203125,23.8525390625
1663860790552358400,10.0353583984375,30.21240234375,32.0220947265625,24.31182861328125
1663860790572347400,10.055347412109375,29.90875244140625,32.03887939453125,26.44500732421875
1663860790592306000,10.075305908203125,31.878662109375,31.44989013671875,28.12042236328125
1663860790612295000,10.095294921875,32.177734375,31.146240234375,28.118896484375
1663860790632284000,10.115283935546875,31.96258544921875,28.41339111328125,28.56292724609375
1663860790652273000,10.13527294921875,33.16497802734375,27.52227783203125,30.69305419921875
1663860790672262000,10.155261962890625,33.18634033203125,28.564453125,28.10821533203125
1663860790692251000,10.1752509765625,31.81304931640625,28.5614013671875,28.106689453125
1663860790712239900,10.195239990234375,31.1187744140625,31.463623046875,29.94842529296875
1663860790732228900,10.215228759765624,29.44793701171875,31.75506591796875,29.034423828125
1663860790752218000,10.235218017578125,26.1383056640625,33.72650146484375,29.19158935546875
1663860790772176400,10.25517626953125,25.250244140625,34.93804931640625,29.04510498046875
1663860790792196000,10.275196044921875,24.46441650390625,33.87908935546875,29.8004150390625
1663860790812185000,10.29518505859375,24.62158203125,34.04541015625,31.47735595703125
1663860790832174000,10.315174072265625,27.801513671875,32.99713134765625,32.5439453125
1663860790852163000,10.3351630859375,26.9989013671875,31.31256103515625,31.16302490234375
1663860790872121600,10.35512158203125,27.471923828125,31.93359375,32.537841796875
1663860790892141000,10.37514111328125,27.166748046875,31.92596435546875,31.77490234375
1663860790912130000,10.395130126953125,27.6275634765625,32.080078125,31.92901611328125
1663860790932119000,10.415119140625,28.6529541015625,30.2581787109375,31.92138671875
1663860790952108000,10.43510791015625,26.97601318359375,30.255126953125,31.91986083984375
1663860790972097000,10.455096923828124,25.49896240234375,32.379150390625,31.927490234375
1663860790992086300,10.475086181640625,25.52337646484375,33.4442138671875,31.93359375
1663860791012075300,10.4950751953125,24.94659423828125,35.07843017578125,27.67333984375
1663860791032064300,10.515064208984375,22.96295166015625,34.9365234375,29.34722900390625
1663860791052053200,10.53505322265625,20.88623046875,37.51220703125,29.052734375
1663860791072042200,10.555042236328125,20.59478759765625,38.24462890625,25.70343017578125
1663860791092031200,10.57503125,18.5028076171875,40.069580078125,26.470947265625
1663860791112355800,10.59535595703125,17.59796142578125,40.52886962890625,27.08282470703125
1663860791132284000,10.615283935546875,15.0146484375,40.838623046875,28.45306396484375
1663860791152028700,10.635028564453124,13.18511962890625,40.838623046875,28.90777587890625
1663860791171987200,10.6549873046875,11.49749755859375,40.374755859375,28.29437255859375
1663860791192007000,10.6750068359375,11.04736328125,40.81573486328125,26.61895751953125
1663860791211965400,10.69496533203125,9.38720703125,41.5679931640625,26.16424560546875
1663860791231985000,10.71498486328125,6.48345947265625,41.259765625,26.46331787109375
1663860791251943400,10.734943359375,7.24639892578125,41.26129150390625,26.46484375
1663860791271932400,10.754932373046875,7.2418212890625,40.972900390625,28.29132080078125
1663860791291921400,10.77492138671875,6.1859130859375,41.56341552734375,26.46484375
1663860791311910400,10.794910400390625,4.02984619140625,40.6494140625,26.76239013671875
1663860791331899400,10.8148994140625,6.06536865234375,42.94586181640625,28.14788818359375
1663860791351888400,10.834888427734375,4.3365478515625,40.65704345703125,27.52532958984375
1663860791371877400,10.85487744140625,4.6478271484375,40.95916748046875,27.2216796875
1663860791391836000,10.8748359375,4.65545654296875,41.265869140625,27.52838134765625
1663860791411855400,10.89485546875,6.3446044921875,41.8609619140625,25.5523681640625
1663860791431844400,10.91484423828125,7.58514404296875,42.779541015625,26.16729736328125
1663860791451833600,10.93483349609375,7.78350830078125,44.76318359375,27.09197998046875
1663860791471822600,10.954822509765625,11.51580810546875,41.27349853515625,26.77459716796875
1663860791491811600,10.9748115234375,13.95263671875,41.12548828125,26.62353515625
1663860791511800600,10.994800537109375,16.180419921875,38.54827880859375,26.76544189453125
1663860791531820000,11.014820068359375,20.4071044921875,36.59210205078125,28.13262939453125
1663860791551778600,11.034778564453125,22.81036376953125,35.0555419921875,25.537109375
1663860791571767600,11.054767578125,25.67901611328125,33.71124267578125,27.667236328125
1663860791591756500,11.074756591796875,27.349853515625,33.4136962890625,27.972412109375
1663860791611745500,11.09474560546875,28.06243896484375,31.2774658203125,26.74407958984375
1663860791631734500,11.114734619140625,30.5023193359375,31.28662109375,27.203369140625
1663860791651723500,11.1347236328125,30.18951416015625,30.9783935546875,26.74407958984375
1663860791671712500,11.15471240234375,31.50482177734375,28.40728759765625,27.95257568359375
1663860791691701800,11.17470166015625,32.91473388671875,30.07965087890625,27.6580810546875
1663860791711690800,11.194690673828125,30.58929443359375,28.27606201171875,30.694580078125
1663860791731679700,11.2146796875,31.95953369140625,28.13568115234375,31.610107421875
1663860791751668700,11.234668701171875,32.13958740234375,29.35028076171875,31.463623046875
1663860791771657700,11.25465771484375,31.20269775390625,28.42254638671875,29.7821044921875
1663860791791646700,11.274646728515625,29.1168212890625,30.55267333984375,30.5511474609375
1663860791811635700,11.2946357421875,27.24609375,35.55145263671875,29.2022705078125
1663860791831624700,11.314624755859375,25.70343017578125,34.77630615234375,27.67333984375
1663860791851613700,11.33461376953125,22.4853515625,34.02557373046875,29.64630126953125
1663860791871602700,11.354602783203125,24.932861328125,34.33685302734375,29.9560546875
1663860791891591700,11.374591796875,26.28631591796875,33.44573974609375,31.93359375
1663860791911550200,11.39455029296875,27.1728515625,32.2235107421875,31.0150146484375
1663860791931570000,11.41456982421875,26.422119140625,32.6904296875,32.5408935546875
1663860791951559000,11.434558837890625,25.3448486328125,32.232666015625,32.53631591796875
1663860791971548000,11.4545478515625,27.6031494140625,31.01654052734375,31.9244384765625
1663860791991537000,11.474536865234375,26.72576904296875,32.684326171875,31.7779541015625
1663860792011770000,11.49477001953125,26.27716064453125,33.123779296875,29.79888916015625
1663860792031667500,11.51466748046875,26.59149169921875,33.44573974609375,31.93511962890625
1663860792051503900,11.53450390625,25.8270263671875,33.428955078125,30.10406494140625
1663860792071523300,11.5545234375,23.58551025390625,35.5316162109375,27.67486572265625
1663860792091512300,11.57451220703125,21.32415771484375,36.73248291015625,26.458740234375
1663860792111470800,11.594470947265625,19.21844482421875,37.95318603515625,27.68096923828125
1663860792131459800,11.6144599609375,16.6412353515625,38.56353759765625,28.594970703125
1663860792151418400,11.63441845703125,15.7440185546875,39.45159912109375,25.85601806640625
1663860792171438000,11.65443798828125,13.32550048828125,40.362548828125,26.46636962890625
1663860792191427000,11.674427001953125,12.7227783203125,40.67230224609375,27.22930908203125
1663860792211416000,11.694416015625,11.346435546875,40.5120849609375,26.617431640625
1663860792231405000,11.714405029296875,8.331298828125,42.02728271484375,26.77459716796875
1663860792251394000,11.73439404296875,8.32977294921875,42.01507568359375,25.40283203125
1663860792271383000,11.754383056640625,6.52923583984375,43.36700439453125,23.883056640625
1663860792291372000,11.7743720703125,6.67266845703125,42.91839599609375,24.7955322265625
1663860792311361000,11.794361083984375,5.11016845703125,41.25518798828125,26.1566162109375
1663860792331350000,11.81435009765625,4.388427734375,43.07098388671875,25.40283203125
1663860792351339000,11.834339111328125,1.75628662109375,41.2506103515625,26.458740234375
1663860792371328000,11.854327880859374,1.78070068359375,42.31109619140625,26.15814208984375
1663860792391317000,11.87431689453125,2.69927978515625,42.47589111328125,27.38037109375
1663860792411275500,11.894275634765625,2.880859375,43.829345703125,25.7110595703125
1663860792431295200,11.914295166015625,1.35498046875,43.6859130859375,27.07977294921875
1663860792451284200,11.9342841796875,3.30810546875,42.33245849609375,28.29437255859375
1663860792471273200,11.954273193359375,3.790283203125,43.66302490234375,23.72894287109375
1663860792491262200,11.97426220703125,5.2886962890625,42.45758056640625,24.4873046875
1663860792511220700,11.994220703125,7.77130126953125,44.28863525390625,24.80316162109375
1663860792531240200,12.014240234375,8.45947265625,41.08734130859375,23.41766357421875
1663860792551229200,12.034229248046875,12.72735595703125,40.95611572265625,24.945068359375
1663860792571218200,12.05421826171875,15.94390869140625,41.5771484375,25.714111328125
1663860792591207200,12.074207275390625,18.597412109375,37.61749267578125,24.0203857421875
1663860792611196200,12.094196044921874,22.09930419921875,37.33673095703125,25.85296630859375
1663860792631185400,12.114185302734375,22.35565185546875,35.2081298828125,25.689697265625
1663860792651174400,12.13417431640625,25.7080078125,35.0677490234375,26.3031005859375
1663860792671160800,12.154160888671875,28.44085693359375,34.6099853515625,25.38909912109375
1663860792691149800,12.17414990234375,30.25970458984375,34.149169921875,24.322509765625
1663860792711138800,12.194138916015625,29.90264892578125,31.7352294921875,26.4434814453125
1663860792731127800,12.2141279296875,30.45501708984375,29.16107177734375,27.49786376953125
1663860792751116800,12.23411669921875,30.902099609375,28.70635986328125,27.496337890625
1663860792771105800,12.254105712890626,32.13043212890625,29.03289794921875,29.937744140625
1663860792791094800,12.2740947265625,33.343505859375,28.7261962890625,29.32891845703125
1663860792811084000,12.294083984375,32.41729736328125,28.2684326171875,29.1717529296875
1663860792831073000,12.314072998046875,31.20269775390625,28.42864990234375,30.54351806640625
1663860792851062000,12.33406201171875,29.11834716796875,30.560302734375,31.61773681640625
1663860792871051000,12.354051025390625,28.6865234375,31.768798828125,30.8624267578125
1663860792891040000,12.3740400390625,26.4434814453125,33.73260498046875,29.95452880859375
1663860792911303700,12.3943037109375,24.35760498046875,35.85662841796875,29.962158203125
1663860792931079000,12.414078857421876,24.29962158203125,33.2794189453125,30.71136474609375
1663860792951007000,12.434007080078125,26.2786865234375,33.1390380859375,31.62841796875
1663860792970996000,12.453995849609376,28.55682373046875,32.68890380859375,31.781005859375
1663860792990985000,12.47398486328125,27.18505859375,32.69195556640625,32.5408935546875
1663860793011004700,12.494004638671875,28.38897705078125,32.07855224609375,31.6253662109375
1663860793030963000,12.513962890625,29.498291015625,33.9080810546875,31.939697265625
1663860793050952200,12.5339521484375,27.66876220703125,33.89739990234375,31.17523193359375
1663860793070941200,12.553941162109375,25.82855224609375,33.441162109375,31.62841796875
1663860793090930200,12.57393017578125,24.73602294921875,32.366943359375,30.55572509765625
1663860793110919200,12.593919189453125,25.8819580078125,35.99090576171875,27.52685546875
1663860793130908200,12.613908203125,22.06573486328125,35.81695556640625,25.8453369140625
1663860793150897200,12.633897216796875,18.9056396484375,37.6495361328125,27.679443359375
1663860793170886100,12.65388623046875,18.8079833984375,40.07720947265625,27.23388671875
1663860793190875100,12.673875244140625,15.89202880859375,39.30206298828125,26.15966796875
1663860793210864000,12.693864013671876,13.336181640625,40.95611572265625,24.64141845703125
1663860793230853000,12.71385302734375,11.38153076171875,42.1661376953125,24.49188232421875
1663860793250842000,12.733842041015626,11.81640625,41.11785888671875,26.31683349609375
1663860793270800600,12.753800537109376,9.08203125,41.56341552734375,25.70648193359375
1663860793290820400,12.7738203125,8.21533203125,43.6859130859375,25.25787353515625
1663860793310809300,12.793809326171875,5.5694580078125,41.39404296875,24.48272705078125
1663860793330798300,12.81379833984375,7.3028564453125,43.83697509765625,25.41046142578125
1663860793350787300,12.833787353515625,6.0455322265625,42.16156005859375,25.24871826171875
1663860793370776300,12.8537763671875,4.35333251953125,41.546630859375,24.93896484375
1663860793390765300,12.873765380859375,3.6102294921875,42.3187255859375,26.46636962890625
1663860793410723800,12.893723876953125,3.5919189453125,41.54510498046875,24.93743896484375
1663860793430743300,12.913743408203125,3.16619873046875,42.9168701171875,25.55389404296875
1663860793450732300,12.933732177734376,4.24957275390625,43.6737060546875,24.79705810546875
1663860793470721300,12.95372119140625,3.3203125,43.06182861328125,24.639892578125
1663860793490710300,12.973710205078126,4.08172607421875,43.0572509765625,23.87847900390625
1663860793510699300,12.99369921875,4.8828125,44.7296142578125,23.73504638671875
1663860793530688500,13.0136884765625,4.67529296875,42.29583740234375,23.57177734375
1663860793550646800,13.033646728515626,6.43310546875,45.8099365234375,25.26702880859375
1663860793570666500,13.05366650390625,12.1612548828125,42.92144775390625,23.73504638671875
1663860793590655500,13.073655517578125,13.19427490234375,41.4031982421875,23.72894287109375
1663860793610644500,13.09364453125,14.99786376953125,40.2099609375,25.85906982421875
1663860793630633500,13.113633544921875,19.5892333984375,40.97137451171875,24.95269775390625
1663860793650592000,13.133592041015625,21.9329833984375,36.72637939453125,25.69732666015625
1663860793670611500,13.153611572265625,23.43902587890625,35.9619140625,24.627685546875
1663860793690600400,13.173600341796876,25.35858154296875,33.21533203125,22.9400634765625
1663860793710559000,13.19355908203125,28.21502685546875,31.41021728515625,24.45831298828125
1663860793730578400,13.213578369140626,27.48260498046875,32.63397216796875,25.531005859375
1663860793750598100,13.23359814453125,30.95703125,31.268310546875,24.9176025390625
1663860793770556700,13.253556640625,31.08978271484375,30.3619384765625,25.52337646484375
1663860793790789600,13.27378955078125,32.01904296875,30.97686767578125,26.13677978515625
1663860793810717700,13.2937177734375,33.54339599609375,30.85174560546875,28.8818359375
1663860793830523600,13.313523681640625,31.3934326171875,30.096435546875,29.94232177734375
1663860793850543000,13.333543212890625,32.74993896484375,29.47845458984375,28.56903076171875
1663860793870501600,13.353501708984375,31.5399169921875,29.92706298828125,27.960205078125
1663860793890490600,13.37349072265625,30.1666259765625,29.92095947265625,27.50091552734375
1663860793910449200,13.39344921875,29.1656494140625,32.8155517578125,28.58123779296875
1663860793930468600,13.413468505859376,26.11083984375,32.64617919921875,27.35748291015625
1663860793950457600,13.43345751953125,26.275634765625,33.1085205078125,27.9693603515625
1663860793970446600,13.453446533203126,25.250244140625,34.93804931640625,29.04510498046875
1663860793990435800,13.473435791015625,25.5340576171875,33.89739990234375,31.6314697265625
1663860794010424800,13.4934248046875,27.42767333984375,30.0872802734375,29.937744140625
1663860794030413800,13.513413818359375,28.0364990234375,29.95147705078125,31.61468505859375
1663860794050433300,13.533433349609375,26.52435302734375,30.5511474609375,31.158447265625
1663860794070391800,13.553391845703125,28.35540771484375,30.55572509765625,31.15997314453125
1663860794090380800,13.573380859375,27.6031494140625,31.01959228515625,32.38067626953125
1663860794110369800,13.593369873046875,28.961181640625,30.401611328125,30.7037353515625
1663860794130358800,13.61335888671875,26.6845703125,30.85784912109375,31.46514892578125
1663860794150347800,13.63334765625,26.23138427734375,31.02264404296875,32.989501953125
1663860794170336800,13.653336669921876,24.3072509765625,33.721923828125,29.1900634765625
1663860794190295300,13.67329541015625,22.8118896484375,35.0738525390625,27.6702880859375
1663860794210314800,13.693314697265626,21.917724609375,35.98175048828125,27.52227783203125
1663860794230304000,13.713303955078125,17.987060546875,37.4847412109375,26.458740234375
1663860794250293000,13.73329296875,16.802978515625,39.14337158203125,25.24566650390625
1663860794270282000,13.753281982421875,14.2425537109375,40.509033203125,25.55389404296875
1663860794290271000,13.77327099609375,14.20135498046875,38.6871337890625,25.84991455078125
1663860794310260000,13.793260009765625,10.2783203125,40.50750732421875,26.312255859375
1663860794330249000,13.8132490234375,10.4339599609375,40.6585693359375,26.16119384765625
1663860794350238000,13.833238037109375,10.60028076171875,41.38946533203125,22.6593017578125
1663860794370196500,13.853196533203125,8.18634033203125,42.4652099609375,24.7955322265625
1663860794390216000,13.8732158203125,6.96258544921875,42.303466796875,23.87847900390625
1663860794410205000,13.893204833984376,7.27996826171875,42.7734375,25.4058837890625
1663860794430194000,13.91319384765625,6.34307861328125,41.85333251953125,24.7894287109375
1663860794450183000,13.933182861328126,4.083251953125,43.0633544921875,24.64141845703125
1663860794470172200,13.953172119140625,3.76739501953125,42.4774169921875,27.38037109375
1663860794490161200,13.9731611328125,2.8106689453125,40.64483642578125,26.45721435546875
1663860794510150100,13.993150146484375,3.43017578125,41.10107421875,26.30767822265625
1663860794530139100,14.01313916015625,4.8187255859375,41.85638427734375,25.55084228515625
1663860794550128000,14.033128173828125,4.22210693359375,42.46063232421875,25.2471923828125
1663860794570117000,14.0531171875,4.833984375,42.4713134765625,26.3153076171875
1663860794590106000,14.073106201171875,6.4666748046875,40.6341552734375,24.32708740234375
1663860794610095000,14.09309521484375,10.0189208984375,42.48199462890625,26.3214111328125
1663860794630084000,14.113083984375,11.04583740234375,40.80047607421875,24.79095458984375
1663860794650073000,14.133072998046876,14.996337890625,40.19317626953125,24.029541015625
1663860794670062000,14.15306201171875,17.57965087890625,39.75372314453125,25.250244140625
1663860794690356500,14.1733564453125,20.11871337890625,37.47100830078125,24.32708740234375
1663860794710131700,14.193131591796876,22.528076171875,36.11602783203125,25.238037109375
1663860794730029300,14.213029296875,24.65057373046875,35.516357421875,25.54168701171875
1663860794750018300,14.233018310546875,25.2227783203125,33.843994140625,25.3814697265625
1663860794770037800,14.253037841796875,28.55682373046875,32.9498291015625,26.60064697265625
1663860794789996300,14.272996337890625,29.931640625,33.0963134765625,25.68817138671875
1663860794809985300,14.2929853515625,30.51910400390625,32.0465087890625,27.20794677734375
1663860794829974300,14.312974365234375,31.4056396484375,30.82122802734375,25.83160400390625
1663860794849963300,14.33296337890625,32.72705078125,28.4210205078125,29.32586669921875
1663860794869952300,14.3529521484375,32.2601318359375,28.1005859375,27.49481201171875
1663860794889941200,14.372941162109376,32.45086669921875,29.644775390625,30.2459716796875
1663860794909930200,14.39293017578125,31.98089599609375,29.17938232421875,29.32891845703125
1663860794929919200,14.412919189453126,29.3914794921875,29.1900634765625,31.1553955078125
1663860794949908500,14.432908447265625,30.0384521484375,30.85479736328125,30.2490234375
1663860794969928000,14.452927978515625,28.106689453125,33.1298828125,30.1055908203125
1663860794989886500,14.472886474609375,25.5126953125,33.111572265625,28.57818603515625
1663860795009875500,14.49287548828125,24.93133544921875,34.33074951171875,29.193115234375
1663860795029864400,14.512864501953125,24.603271484375,33.27484130859375,30.255126953125
1663860795049853400,14.532853515625,24.46441650390625,33.87603759765625,29.34417724609375
1663860795069842400,14.552842529296875,26.08795166015625,31.46820068359375,31.7718505859375
1663860795089801000,14.572801025390625,24.5513916015625,30.87005615234375,33.2916259765625
1663860795109820400,14.5928203125,27.65350341796875,33.1573486328125,33.45794677734375
1663860795129809400,14.612809326171876,27.14385986328125,30.877685546875,33.59832763671875
1663860795149798400,14.63279833984375,27.31475830078125,31.768798828125,31.16455078125
1663860795169787400,14.652787353515626,27.32696533203125,32.36541748046875,29.79583740234375
1663860795189776600,14.672776611328125,25.64849853515625,32.2296142578125,32.080078125
1663860795209765600,14.692765625,24.78485107421875,34.625244140625,27.9754638671875
1663860795229754600,14.712754638671875,24.163818359375,34.161376953125,27.21099853515625
1663860795249743600,14.73274365234375,23.394775390625,33.85772705078125,27.51312255859375
1663860795269732600,14.752732666015625,20.74127197265625,37.945556640625,26.31072998046875
1663860795289721600,14.7727216796875,19.07958984375,38.55743408203125,27.22625732421875
1663860795309710600,14.792710693359375,16.81060791015625,39.44854736328125,25.2471923828125
1663860795329699600,14.812699462890626,13.897705078125,38.702392578125,27.679443359375
1663860795349688600,14.8326884765625,13.78326416015625,40.36712646484375,26.7730712890625
1663860795369677600,14.852677490234376,11.20452880859375,40.966796875,26.4678955078125
1663860795389666600,14.87266650390625,8.2977294921875,40.63873291015625,24.32861328125
1663860795409655800,14.89265576171875,8.49456787109375,42.48504638671875,27.081298828125
1663860795429644800,14.912644775390625,6.65283203125,42.14324951171875,22.96295166015625
1663860795449633800,14.9326337890625,5.73577880859375,42.00286865234375,24.63836669921875
1663860795469592300,14.95259228515625,5.13458251953125,42.315673828125,25.7049560546875
1663860795489611800,14.97261181640625,3.3050537109375,42.31109619140625,25.70343017578125
1663860795509600800,14.992600830078125,2.38800048828125,42.169189453125,27.07366943359375
1663860795529589800,15.01258984375,1.7913818359375,42.7734375,26.77001953125
1663860795549578800,15.032578857421875,2.38189697265625,41.8701171875,27.68096923828125
1663860795569842400,15.052842529296875,3.1585693359375,42.4835205078125,28.14178466796875
1663860795589770500,15.0727705078125,3.13262939453125,41.41082763671875,27.07061767578125
1663860795609545700,15.092545654296876,3.63616943359375,43.39141845703125,27.53753662109375
1663860795629534700,15.11253466796875,5.74493408203125,42.3248291015625,26.7730712890625
1663860795649524000,15.13252392578125,6.6375732421875,41.39862060546875,24.78790283203125
1663860795669543400,15.15254345703125,8.9630126953125,42.9443359375,27.3895263671875
1663860795689502000,15.172501953125,11.49444580078125,40.3594970703125,26.46484375
1663860795709460500,15.19246044921875,14.1082763671875,41.27349853515625,26.16729736328125
1663860795729480000,15.21247998046875,17.6971435546875,38.2293701171875,24.63226318359375
1663860795749469000,15.232468994140625,21.3897705078125,39.62249755859375,26.77764892578125
1663860795769458000,15.2524580078125,24.50103759765625,35.6689453125,25.69427490234375
1663860795789447000,15.272447021484375,24.34539794921875,35.52093505859375,26.3031005859375
1663860795809436000,15.292435791015626,25.5340576171875,34.1552734375,26.14593505859375
1663860795829425000,15.3124248046875,25.7904052734375,32.02056884765625,25.37384033203125
1663860795849414000,15.332413818359376,29.27703857421875,31.11724853515625,25.52490234375
1663860795869403000,15.35240283203125,29.60052490234375,31.884765625,26.2908935546875
1663860795889392000,15.37239208984375,31.83746337890625,29.61578369140625,27.044677734375
1663860795909381000,15.392381103515625,32.11212158203125,28.25469970703125,27.64739990234375
1663860795929370000,15.4123701171875,32.293701171875,29.4891357421875,29.7882080078125
1663860795949359000,15.432359130859375,31.06231689453125,29.022216796875,28.86962890625
1663860795969317600,15.452317626953125,31.81610107421875,28.57666015625,29.9346923828125
1663860795989337000,15.472337158203125,30.43975830078125,28.4210205078125,29.78057861328125
1663860796009326000,15.492326171875,30.035400390625,30.83953857421875,28.4210205078125
1663860796029315000,15.512315185546875,29.0191650390625,32.9803466796875,30.2581787109375
1663860796049304000,15.532303955078126,24.3072509765625,33.7158203125,28.42864990234375
1663860796069293000,15.55229296875,24.45220947265625,33.4136962890625,28.5797119140625
1663860796089282000,15.572281982421876,23.89373779296875,35.56060791015625,31.0272216796875
1663860796109271000,15.59227099609375,26.27105712890625,32.8277587890625,30.86395263671875
1663860796129260300,15.61226025390625,26.07421875,30.85784912109375,31.463623046875
1663860796149249300,15.632249267578125,26.104736328125,32.21893310546875,30.70831298828125
1663860796169238300,15.65223828125,27.0111083984375,31.77490234375,31.927490234375
1663860796189227300,15.672227294921875,27.6092529296875,31.31103515625,30.85784912109375
1663860796209216300,15.69221630859375,27.00958251953125,31.768798828125,31.16455078125
1663860796229205200,15.712205322265625,25.81329345703125,32.8277587890625,30.86395263671875
1663860796249194200,15.7321943359375,24.4537353515625,33.4259033203125,30.1025390625
1663860796269183200,15.752183349609375,22.92938232421875,33.4228515625,30.10101318359375
1663860796289141800,15.772141845703125,22.8118896484375,35.064697265625,26.60369873046875
1663860796309161200,15.7921611328125,21.9268798828125,36.42730712890625,26.15203857421875
1663860796329150200,15.812150146484376,19.92950439453125,35.8123779296875,25.84228515625
1663860796349108700,15.832108642578126,16.790771484375,38.6749267578125,23.71978759765625
1663860796369128400,15.85212841796875,16.35284423828125,39.4439697265625,24.7894287109375
1663860796389117400,15.872117431640625,14.7003173828125,40.5120849609375,25.85906982421875
1663860796409106400,15.8921064453125,13.775634765625,40.06195068359375,26.77154541015625
1663860796429095400,15.912095458984375,10.888671875,40.6402587890625,23.87542724609375
1663860796449084400,15.93208447265625,9.55047607421875,42.14935302734375,22.96600341796875
1663860796469409000,15.952408935546876,8.14056396484375,40.4815673828125,23.71826171875
1663860796489154000,15.972154052734375,6.31866455078125,40.78369140625,24.0234375
1663860796509051400,15.992051513671875,7.40814208984375,41.84112548828125,22.96295166015625
1663860796529070800,16.01207080078125,4.07867431640625,42.77496337890625,26.4678955078125
1663860796549029400,16.032029296875,5.267333984375,41.41082763671875,26.61590576171875
1663860796569018400,16.052018310546874,3.2867431640625,41.54205322265625,24.63226318359375
1663860796589007600,16.072007568359375,3.2989501953125,42.0166015625,26.76849365234375
1663860796608996600,16.09199658203125,3.43475341796875,41.39251708984375,24.78485107421875
1663860796628985600,16.111985595703125,2.36358642578125,41.107177734375,27.37274169921875
1663860796648974600,16.131974609375,3.45458984375,42.16461181640625,26.312255859375
1663860796668963600,16.151963623046875,4.10919189453125,44.1436767578125,26.47552490234375
1663860796688952600,16.17195263671875,4.09088134765625,43.37615966796875,25.70953369140625
1663860796708941600,16.191941650390625,6.08673095703125,43.98040771484375,24.80010986328125
1663860796728930600,16.2119306640625,7.550048828125,41.253662109375,25.39825439453125
1663860796748919600,16.23191943359375,14.81475830078125,38.8458251953125,26.4617919921875
1663860796768908500,16.251908447265624,16.644287109375,38.84124755859375,25.396728515625
1663860796788897500,16.2718974609375,17.68035888671875,37.4786376953125,25.69580078125
1663860796808886500,16.291886474609374,21.77581787109375,36.55853271484375,23.7152099609375
1663860796828875800,16.311875732421875,23.2666015625,35.05096435546875,24.77569580078125
1663860796848864800,16.33186474609375,24.48577880859375,34.918212890625,26.7578125
1663860796868853800,16.351853759765625,24.7406005859375,32.77435302734375,24.91912841796875
1663860796888842800,16.3718427734375,27.76947021484375,31.87408447265625,25.5279541015625
1663860796908831700,16.391831787109375,30.633544921875,30.3680419921875,26.2847900390625
1663860796928820700,16.41182080078125,29.87518310546875,30.52520751953125,27.19879150390625
1663860796948809700,16.431809814453125,31.2164306640625,29.16259765625,27.4993896484375
1663860796968798700,16.451798828125,32.8826904296875,28.57666015625,29.63104248046875
1663860796988787700,16.47178759765625,33.8104248046875,29.1778564453125,28.56903076171875
1663860797008746200,16.491746337890625,32.10296630859375,27.81524658203125,29.62646484375
1663860797028765700,16.511765625,30.181884765625,30.53436279296875,28.26690673828125
1663860797048754700,16.531754638671874,29.89501953125,31.30340576171875,29.3365478515625
1663860797068713200,16.551713134765624,30.04913330078125,31.44073486328125,27.6611328125
1663860797088733000,16.57173291015625,26.49078369140625,35.85205078125,28.89862060546875
1663860797108722000,16.591721923828125,25.250244140625,34.93499755859375,28.58734130859375
1663860797128711000,16.6117109375,23.69232177734375,33.42132568359375,29.79736328125
1663860797148700000,16.631699951171875,24.90081787109375,32.96966552734375,29.94842529296875
1663860797168689000,16.65168896484375,27.3040771484375,31.304931640625,30.096435546875
1663860797188678000,16.671677978515625,26.42822265625,32.98797607421875,31.77947998046875
1663860797208667000,16.6916669921875,25.6591796875,32.68280029296875,31.7779541015625
1663860797228655900,16.71165576171875,26.25885009765625,32.35931396484375,29.33807373046875
1663860797248614400,16.731614501953125,27.044677734375,33.4136962890625,27.972412109375
1663860797268633900,16.7516337890625,27.349853515625,33.4228515625,29.03900146484375
1663860797288622800,16.771622802734374,25.83465576171875,33.86993408203125,28.277587890625
1663860797308612000,16.791612060546875,23.42071533203125,34.94415283203125,30.11016845703125
1663860797328601000,16.81160107421875,23.9044189453125,36.14654541015625,28.4393310546875
1663860797348864800,16.83186474609375,21.9268798828125,36.431884765625,26.76239013671875
1663860797368823000,16.851822998046874,20.74127197265625,37.94097900390625,25.8544921875
1663860797388568000,16.871568115234375,18.18389892578125,39.4561767578125,25.85906982421875
1663860797408557000,16.89155712890625,15.13519287109375,39.59197998046875,24.6368408203125
1663860797428546000,16.911546142578125,14.093017578125,40.655517578125,24.945068359375
1663860797448535000,16.93153515625,12.1246337890625,41.39404296875,22.96600341796875
1663860797468524000,16.95152392578125,10.1776123046875,42.78106689453125,25.714111328125
1663860797488513000,16.971512939453124,9.37957763671875,41.253662109375,24.94354248046875
1663860797508502000,16.991501953125,7.4005126953125,41.400146484375,24.7894287109375
1663860797528491000,17.011490966796874,5.60455322265625,42.913818359375,24.4903564453125
1663860797548480300,17.031480224609375,5.42144775390625,41.5496826171875,24.94049072265625
1663860797568469200,17.05146923828125,5.45654296875,43.0694580078125,24.9481201171875
1663860797588458200,17.071458251953125,3.3233642578125,43.07708740234375,26.46942138671875
1663860797608447200,17.091447265625,3.460693359375,42.462158203125,25.5523681640625
1663860797628436200,17.111436279296875,3.619384765625,42.76580810546875,25.40130615234375
1663860797648394800,17.131394775390625,2.70843505859375,42.913818359375,25.24871826171875
1663860797668414200,17.151414306640625,4.20989990234375,41.86553955078125,26.61590576171875
1663860797688403200,17.1714033203125,1.7730712890625,42.0074462890625,26.1566162109375
1663860797708392200,17.19139208984375,2.24609375,42.7581787109375,24.9420166015625
1663860797728381200,17.211381103515624,2.66571044921875,41.08428955078125,24.47662353515625
1663860797748370200,17.2313701171875,3.60870361328125,42.303466796875,24.6368408203125
1663860797768359400,17.251359375,5.46112060546875,43.36395263671875,23.88153076171875
1663860797788348400,17.271348388671875,9.26971435546875,43.212890625,22.9705810546875
1663860797808337400,17.29133740234375,12.8875732421875,41.39404296875,22.662353515625
1663860797828326400,17.311326416015625,12.7197265625,40.6524658203125,24.94354248046875
1663860797848315400,17.3313154296875,15.93475341796875,41.25823974609375,23.883056640625
1663860797868304400,17.351304443359375,19.08416748046875,38.848876953125,25.70343017578125
1663860797888293400,17.37129345703125,21.91619873046875,35.96649169921875,25.6927490234375
1663860797908282400,17.391282470703125,23.565673828125,34.75341796875,25.537109375
1663860797928271400,17.411271240234374,27.056884765625,34.13848876953125,23.8616943359375
1663860797948260400,17.43126025390625,28.41339111328125,33.39080810546875,24.92523193359375
1663860797968249300,17.451249267578124,29.01153564453125,32.92388916015625,23.40087890625
1663860797988238300,17.47123828125,29.45709228515625,32.3333740234375,25.37841796875
1663860798008227600,17.4912275390625,31.09283447265625,30.38330078125,28.11431884765625
1663860798028216600,17.511216552734375,32.01141357421875,30.5389404296875,28.2684326171875
1663860798048205600,17.53120556640625,33.09478759765625,31.28814697265625,26.75018310546875
1663860798068194600,17.551194580078125,31.82373046875,29.01763916015625,28.10821533203125
1663860798088183600,17.57118359375,30.2093505859375,31.756591796875,29.034423828125
1663860798108172500,17.591172607421875,27.3193359375,32.05108642578125,28.57513427734375
1663860798128161500,17.61116162109375,27.53448486328125,34.7900390625,28.89404296875
1663860798148150500,17.631150634765625,25.88348388671875,35.99700927734375,28.28826904296875
1663860798168139500,17.651139404296874,24.48577880859375,34.9212646484375,27.215576171875
1663860798188128500,17.67112841796875,25.3997802734375,34.79766845703125,30.26275634765625
1663860798208117500,17.691117431640624,26.14593505859375,34.04541015625,31.02264404296875
1663860798228106500,17.7111064453125,27.34527587890625,33.13751220703125,31.17218017578125
1663860798248431400,17.731431396484375,26.08795166015625,31.46820068359375,31.7718505859375
1663860798268206600,17.75120654296875,26.409912109375,32.22503662109375,31.47125244140625
1663860798288104200,17.771104248046875,26.28326416015625,33.42742919921875,29.8004150390625
1663860798308062700,17.791062744140625,27.18353271484375,32.67974853515625,31.01654052734375
1663860798328051700,17.8110517578125,26.5899658203125,33.43658447265625,30.86700439453125
1663860798348040700,17.831040771484375,27.01568603515625,32.06939697265625,30.86090087890625
1663860798368029700,17.85102978515625,26.49688720703125,36.151123046875,28.4423828125
1663860798388018700,17.871018798828125,25.9063720703125,37.0513916015625,27.227783203125
1663860798408007700,17.891007568359374,21.47216796875,36.57989501953125,26.30462646484375
1663860798427996700,17.91099658203125,17.49725341796875,36.1053466796875,25.23193359375
1663860798447985700,17.930985595703124,18.975830078125,40.8172607421875,24.798583984375
1663860798467974700,17.950974609375,15.78521728515625,41.40167236328125,22.96905517578125
1663860798487964000,17.9709638671875,13.13934326171875,39.1082763671875,21.88873291015625
1663860798507983400,17.9909833984375,10.13336181640625,40.9454345703125,24.33319091796875
1663860798527942000,18.01094189453125,10.614013671875,41.876220703125,26.318359375
1663860798547931000,18.030930908203125,9.07440185546875,41.2506103515625,24.63836669921875
1663860798567919900,18.050919921875,9.07440185546875,41.253662109375,24.9420166015625
1663860798587908900,18.070908935546875,6.38275146484375,43.66302490234375,22.9705810546875
1663860798607897900,18.09089794921875,5.621337890625,43.6676025390625,23.73199462890625
1663860798627886800,18.110886962890625,5.462646484375,43.37005615234375,24.64447021484375
1663860798647845400,18.130845458984375,5.46112060546875,43.36395263671875,23.88153076171875
1663860798667864800,18.15086474609375,2.28729248046875,44.5770263671875,24.34234619140625
1663860798687853800,18.170853759765624,2.22015380859375,41.5557861328125,26.46026611328125
1663860798707842800,18.1908427734375,2.57568359375,43.8201904296875,24.6429443359375
1663860798727832000,18.21083203125,1.81884765625,44.12078857421875,24.33929443359375
1663860798747821000,18.230821044921875,4.23126220703125,42.9107666015625,24.48883056640625
1663860798767810000,18.25081005859375,2.8564453125,42.75665283203125,24.63836669921875
1663860798787799000,18.270799072265625,3.790283203125,43.66302490234375,23.72894287109375
1663860798807788000,18.2907880859375,5.20782470703125,45.63446044921875,22.82562255859375
1663860798827777000,18.310777099609375,7.79571533203125,45.4864501953125,22.67608642578125
1663860798847766000,18.33076611328125,10.162353515625,42.2943115234375,22.05352783203125
1663860798867755000,18.350755126953125,14.12811279296875,42.3126220703125,23.12469482421875
1663860798887744000,18.370743896484374,14.0899658203125,40.63720703125,22.8118896484375
1663860798907733000,18.39073291015625,17.877197265625,39.4500732421875,25.24871826171875
1663860798927722000,18.410721923828124,21.685791015625,39.29901123046875,24.3377685546875
1663860798947711000,18.4307109375,23.75640869140625,36.42425537109375,25.39215087890625
1663860798967700200,18.4507001953125,23.876953125,35.05859375,25.53863525390625
1663860798987689200,18.470689208984375,27.0751953125,34.90753173828125,24.93133544921875
1663860799007678200,18.49067822265625,29.0313720703125,33.7005615234375,25.537109375
1663860799027667200,18.510667236328125,31.8878173828125,31.88934326171875,26.2939453125
1663860799047656200,18.53065625,32.4554443359375,30.0628662109375,25.82855224609375
1663860799067645200,18.550645263671875,31.50482177734375,28.40118408203125,27.191162109375
1663860799087634200,18.57063427734375,32.275390625,28.71856689453125,28.564453125
1663860799107623200,18.590623046875,31.988525390625,29.48455810546875,29.3304443359375
1663860799127948000,18.610947998046875,31.94732666015625,27.65960693359375,29.3212890625
1663860799147845400,18.630845458984375,32.30438232421875,29.9407958984375,29.33349609375
1663860799167620900,18.650620849609375,30.00335693359375,29.33502197265625,30.24139404296875
1663860799187579400,18.670579345703125,29.2633056640625,30.3863525390625,28.87420654296875
1663860799207568400,18.690568359375,27.6336669921875,32.37457275390625,30.86395263671875
1663860799227557400,18.710557373046875,26.44195556640625,33.71734619140625,28.125
1663860799247546400,18.73054638671875,24.18365478515625,34.94873046875,30.56793212890625
1663860799267535400,18.750535400390625,27.02484130859375,32.38983154296875,32.69195556640625
1663860799287524400,18.7705244140625,28.7017822265625,32.38067626953125,31.16912841796875
1663860799307513300,18.790513427734375,27.04010009765625,33.13140869140625,30.56182861328125
1663860799327502300,18.81050244140625,26.73797607421875,33.27484130859375,29.6478271484375
1663860799347491300,18.8304912109375,26.2725830078125,32.84149169921875,32.3883056640625
1663860799367480300,18.850480224609374,27.4871826171875,32.67822265625,30.712890625
1663860799387469300,18.87046923828125,27.5238037109375,34.33990478515625,29.6539306640625
1663860799407458300,18.890458251953124,25.68817138671875,34.04083251953125,30.71746826171875
1663860799427447600,18.910447509765625,23.88153076171875,35.0921630859375,29.6539306640625
1663860799447436500,18.9304365234375,23.4954833984375,38.26904296875,27.99224853515625
1663860799467425500,18.950425537109375,21.502685546875,37.94097900390625,25.54931640625
1663860799487414500,18.97041455078125,19.11773681640625,40.3656005859375,25.40740966796875
1663860799507403500,18.990403564453125,17.2882080078125,40.3564453125,24.6429443359375
1663860799527392500,19.010392578125,16.265869140625,42.33245849609375,24.95574951171875
1663860799547381500,19.030381591796875,15.76690673828125,40.509033203125,25.25177001953125
1663860799567370500,19.05037060546875,12.7410888671875,41.56494140625,24.9481201171875
1663860799587359500,19.070359375,11.4990234375,40.64178466796875,23.87542724609375
1663860799607348500,19.090348388671874,10.15625,41.99981689453125,23.11859130859375
1663860799627337500,19.11033740234375,9.0789794921875,41.53594970703125,22.50518798828125
1663860799647326500,19.130326416015624,7.5836181640625,42.7642822265625,24.33929443359375
1663860799667315700,19.150315673828125,6.96258544921875,42.3095703125,24.639892578125
1663860799687304700,19.1703046875,6.48193359375,41.25213623046875,25.396728515625
1663860799707263200,19.19026318359375,3.78265380859375,43.22052001953125,25.25177001953125
1663860799727282700,19.21028271484375,3.60870361328125,42.303466796875,24.6368408203125
1663860799747271700,19.230271728515625,3.32794189453125,43.36395263671875,24.33624267578125
1663860799767260700,19.2502607421875,1.8035888671875,43.3685302734375,25.40130615234375
1663860799787249700,19.270249755859375,1.95159912109375,43.206787109375,24.029541015625
1663860799807238700,19.29023876953125,4.71649169921875,44.12689208984375,24.34234619140625
1663860799827227600,19.3102275390625,4.5440673828125,43.2220458984375,25.25177001953125
1663860799847216600,19.330216552734374,4.7271728515625,44.57550048828125,23.58245849609375
1663860799867205600,19.35020556640625,6.060791015625,42.9107666015625,24.0325927734375
1663860799887194600,19.370194580078124,7.147216796875,43.6767578125,24.49493408203125
1663860799907183900,19.390183837890625,9.87548828125,43.0572509765625,22.51434326171875
1663860799927172900,19.4101728515625,10.479736328125,42.767333984375,23.88458251953125
1663860799947161900,19.430161865234375,13.50860595703125,41.85333251953125,22.96905517578125
1663860799967150800,19.45015087890625,19.2413330078125,39.129638671875,22.96295166015625
1663860799987170300,19.47017041015625,21.38214111328125,39.306640625,25.40435791015625
1663860800007128800,19.49012890625,23.59619140625,36.12060546875,25.543212890625
1663860800027362000,19.510362060546875,24.7894287109375,34.906005859375,25.38604736328125
1663860800047229000,19.53022900390625,27.36358642578125,34.1461181640625,24.62310791015625
1663860800067095800,19.550095703125,29.16107177734375,32.7789306640625,24.3133544921875
1663860800087115500,19.570115478515625,29.44488525390625,31.73065185546875,26.1383056640625
1663860800107073800,19.59007373046875,32.00836181640625,30.517578125,25.677490234375
1663860800127062800,19.610062744140624,32.9315185546875,30.83648681640625,27.35748291015625
1663860800147082500,19.63008251953125,33.06427001953125,29.92706298828125,27.5054931640625
1663860800167041000,19.650041015625,34.8846435546875,29.48150634765625,28.26690673828125
1663860800187030000,19.670030029296875,33.3770751953125,30.23529052734375,27.9632568359375
1663860800207019000,19.69001904296875,31.82525634765625,29.02984619140625,29.632568359375
1663860800227008000,19.710008056640625,32.31048583984375,30.2490234375,29.791259765625
1663860800246997000,19.7299970703125,28.5430908203125,32.2174072265625,29.949951171875
1663860800266986000,19.749986083984375,27.630615234375,32.35626220703125,28.57818603515625
1663860800286944500,19.769944580078125,26.1505126953125,34.33074951171875,28.8909912109375
1663860800306964000,19.7899638671875,25.4241943359375,35.8551025390625,29.65850830078125
1663860800326953000,19.809952880859374,24.94964599609375,35.09521484375,29.65545654296875
1663860800346911500,19.829911376953124,26.28021240234375,33.14971923828125,33.00018310546875
1663860800366931200,19.84993115234375,28.07769775390625,31.77642822265625,31.927490234375
1663860800386920200,19.869920166015625,26.72576904296875,32.684326171875,31.7779541015625
1663860800406909200,19.8899091796875,25.3448486328125,32.23876953125,33.29925537109375
1663860800426898200,19.909898193359375,25.81329345703125,32.8277587890625,30.86395263671875
1663860800446887200,19.92988720703125,27.01873779296875,32.0831298828125,32.38525390625
1663860800466876200,19.949876220703125,26.43280029296875,33.2763671875,29.9530029296875
1663860800486865200,19.969865234375,25.68206787109375,33.7432861328125,31.47735595703125
1663860800506854100,19.989854248046875,25.54779052734375,34.63134765625,28.5858154296875
1663860800526843100,20.009843017578124,21.6217041015625,36.431884765625,26.76239013671875
1663860800546801700,20.0298017578125,20.9075927734375,38.54827880859375,25.7049560546875
1663860800566821000,20.049821044921874,19.26727294921875,40.216064453125,25.5584716796875
1663860800586810000,20.06981005859375,17.15240478515625,41.12091064453125,25.25634765625
1663860800606799400,20.08979931640625,15.3289794921875,41.41693115234375,24.798583984375
1663860800626788400,20.109788330078125,13.34991455078125,41.55731201171875,23.88153076171875
1663860800646777300,20.12977734375,12.01324462890625,43.08929443359375,25.7171630859375
1663860800666766300,20.149766357421875,10.36224365234375,44.28253173828125,23.4344482421875
1663860800686724900,20.169724853515625,9.9151611328125,44.87152099609375,21.3043212890625
1663860800706744300,20.189744384765625,8.26568603515625,46.08917236328125,21.917724609375
1663860800726733300,20.2097333984375,7.7545166015625,43.66455078125,22.97210693359375
1663860800746722300,20.229722412109375,7.17010498046875,44.73419189453125,23.73809814453125
1663860800766711300,20.249711181640624,7.135009765625,43.20831298828125,22.96905517578125
1663860800786700300,20.2697001953125,4.0740966796875,42.74444580078125,22.81036376953125
1663860800806689300,20.289689208984374,4.4036865234375,43.80950927734375,22.81646728515625
1663860800826678300,20.30967822265625,2.59857177734375,44.87152099609375,23.12469482421875
1663860800846667500,20.32966748046875,2.862548828125,43.05419921875,23.876953125
1663860800866656500,20.349656494140625,1.2237548828125,44.8577880859375,21.75140380859375
1663860800886645500,20.3696455078125,4.39453125,43.3624267578125,23.88153076171875
1663860800906939600,20.389939697265625,3.790283203125,43.6614990234375,23.42376708984375
1663860800926898200,20.409898193359375,6.08978271484375,44.25811767578125,21.60186767578125
1663860800946643000,20.429642822265624,6.52618408203125,43.33953857421875,20.68328857421875
1663860800966601500,20.4496015625,9.27886962890625,43.65997314453125,21.90704345703125
1663860800986621000,20.469620849609374,12.00408935546875,42.76123046875,22.81951904296875
1663860801006610000,20.48960986328125,13.81988525390625,42.28515625,19.92340087890625
1663860801026568400,20.509568359375,17.78717041015625,42.31109619140625,22.06268310546875
1663860801046557400,20.529557373046874,21.10137939453125,40.4998779296875,22.66693115234375
1663860801066546400,20.54954638671875,24.69635009765625,37.6220703125,22.96142578125
1663860801086535700,20.56953564453125,26.52740478515625,37.640380859375,24.79248046875
1663860801106524700,20.589524658203125,29.0435791015625,34.30023193359375,24.47357177734375
1663860801126513700,20.609513671875,31.005859375,33.39385986328125,24.6246337890625
1663860801146472200,20.62947216796875,31.4697265625,33.69293212890625,24.01580810546875
1663860801166491600,20.64949169921875,32.17315673828125,31.11572265625,24.46136474609375
1663860801186480600,20.669480712890625,33.062744140625,29.92095947265625,26.7425537109375
1663860801206469600,20.6894697265625,35.94970703125,29.4677734375,26.43890380859375
1663860801226458600,20.709458740234375,34.72137451171875,29.01763916015625,27.349853515625
1663860801246447600,20.729447509765624,33.79974365234375,28.72161865234375,28.56597900390625
1663860801266436600,20.7494365234375,34.72747802734375,29.3243408203125,27.65655517578125
1663860801286425600,20.769425537109374,32.74993896484375,29.4769287109375,28.26385498046875
1663860801306414600,20.78941455078125,32.47528076171875,30.84259033203125,28.118896484375
1663860801326403800,20.80940380859375,31.15692138671875,33.25653076171875,26.300048828125
1663860801346392800,20.829392822265625,30.2642822265625,34.1827392578125,28.28521728515625
1663860801366381800,20.8493818359375,27.2430419921875,35.52093505859375,25.54473876953125
1663860801386370800,20.869370849609375,29.97589111328125,34.93499755859375,27.52532958984375
1663860801406359800,20.88935986328125,28.41644287109375,33.41217041015625,27.51617431640625
1663860801426348800,20.909348876953125,30.98602294921875,32.366943359375,29.03900146484375
1663860801446337800,20.929337890625,29.9041748046875,31.7535400390625,28.57666015625
1663860801466326800,20.949326904296875,29.034423828125,33.7249755859375,28.4332275390625
1663860801486315800,20.969315673828124,28.73382568359375,33.88519287109375,29.3487548828125
1663860801506304800,20.9893046875,31.4178466796875,31.1614990234375,30.2520751953125
1663860801526293800,21.009293701171874,29.9041748046875,31.75048828125,28.27301025390625
1663860801546283000,21.029282958984375,30.07659912109375,32.6568603515625,27.667236328125
1663860801566272000,21.04927197265625,27.6641845703125,33.86993408203125,27.9754638671875
1663860801586261000,21.069260986328125,26.63726806640625,35.67657470703125,26.153564453125
1663860801606250000,21.08925,25.58441162109375,36.41510009765625,23.870849609375
1663860801626239000,21.109239013671875,23.291015625,36.114501953125,24.78179931640625
1663860801646228000,21.12922802734375,22.9156494140625,39.75830078125,24.493408203125
1663860801666217000,21.149217041015625,20.0103759765625,39.43939208984375,23.4222412109375
1663860801686206000,21.1692060546875,19.122314453125,40.65093994140625,23.12164306640625
1663860801706195000,21.18919482421875,17.75665283203125,40.95001220703125,22.8179931640625
1663860801726153500,21.209153564453125,14.8834228515625,42.0074462890625,22.81951904296875
1663860801746173000,21.2291728515625,14.32342529296875,44.2718505859375,21.15325927734375
1663860801766162000,21.249161865234374,11.30523681640625,45.6298828125,20.7000732421875
1663860801786151200,21.269151123046875,9.014892578125,45.47576904296875,21.15325927734375
1663860801806414600,21.28941455078125,9.58404541015625,43.65997314453125,21.90704345703125
1663860801826281700,21.30928173828125,7.62786865234375,44.8638916015625,20.99609375
1663860801846148600,21.329148681640625,6.536865234375,43.804931640625,21.75140380859375
1663860801866107100,21.349107177734375,5.79071044921875,44.5587158203125,21.2982177734375
1663860801886096100,21.36909619140625,5.8319091796875,46.37451171875,20.2392578125
1663860801906085000,21.389085205078125,4.59442138671875,45.4803466796875,22.67303466796875
1663860801926104600,21.4091044921875,3.66973876953125,45.159912109375,20.9930419921875
1663860801946063000,21.42906298828125,4.88128662109375,44.71588134765625,22.21221923828125
1663860801966052000,21.449052001953124,4.44183349609375,45.6146240234375,20.69091796875
1663860801986041000,21.469041015625,6.26373291015625,45.172119140625,21.759033203125
1663860802006030000,21.489030029296874,8.23974609375,45.0103759765625,20.0836181640625
1663860802026019300,21.509019287109375,9.8907470703125,43.798828125,20.23162841796875
1663860802046008300,21.52900830078125,13.12255859375,45.16754150390625,19.4793701171875
1663860802065997300,21.548997314453125,14.90478515625,43.04962158203125,20.233154296875
1663860802085986300,21.568986328125,18.08929443359375,42.29278564453125,19.927978515625
1663860802105975300,21.588975341796875,18.51654052734375,40.9332275390625,20.684814453125
1663860802125964300,21.60896435546875,24.57733154296875,39.263916015625,19.464111328125
1663860802145953300,21.628953369140625,26.67236328125,37.4603271484375,21.2860107421875
1663860802165942300,21.6489423828125,27.532958984375,35.028076171875,21.12274169921875
1663860802185931300,21.66893115234375,30.5450439453125,33.3740234375,22.48992919921875
1663860802205920300,21.688920166015624,30.35888671875,31.85577392578125,22.6348876953125
1663860802225909200,21.7089091796875,32.9498291015625,31.854248046875,21.875
1663860802245898200,21.728898193359374,33.53729248046875,30.79833984375,22.63336181640625
1663860802265856800,21.748856689453124,36.11297607421875,30.0506591796875,23.394775390625
1663860802285876500,21.76887646484375,35.6353759765625,29.1473388671875,24.60784912109375
1663860802305865500,21.788865478515625,35.626220703125,28.70025634765625,25.67291259765625
1663860802325854500,21.8088544921875,36.0565185546875,27.4871826171875,25.81939697265625
1663860802345843500,21.828843505859375,34.70001220703125,28.2257080078125,23.687744140625
1663860802365832400,21.84883251953125,34.28497314453125,30.06134033203125,25.22125244140625
1663860802385821400,21.868821533203125,33.22296142578125,30.35736083984375,24.4598388671875
1663860802405810400,21.888810546875,29.61883544921875,32.6507568359375,27.056884765625
1663860802425799400,21.90879931640625,29.35943603515625,34.7625732421875,25.238037109375
1663860802445788400,21.928788330078124,28.62701416015625,36.1236572265625,24.48272705078125
1663860802465777400,21.94877734375,27.38189697265625,34.9212646484375,26.4556884765625
1663860802485766400,21.968766357421874,29.95758056640625,34.16595458984375,26.4556884765625
1663860802505755600,21.988755615234375,31.62689208984375,33.86383056640625,26.1505126953125
1663860802525744600,22.00874462890625,31.2896728515625,32.354736328125,27.5146484375
1663860802545733600,22.028733642578125,30.23223876953125,32.80181884765625,26.75323486328125
1663860802565722600,22.04872265625,29.95758056640625,34.16900634765625,26.7608642578125
1663860802585711600,22.068711669921875,29.17633056640625,33.3953857421875,25.384521484375
1663860802605700600,22.08870068359375,30.53741455078125,32.8155517578125,28.277587890625
1663860802625689600,22.108689697265625,29.64935302734375,34.01947021484375,27.06451416015625
1663860802645678600,22.1286787109375,27.6702880859375,34.16900634765625,27.215576171875
1663860802665667600,22.14866748046875,28.1097412109375,33.40301513671875,26.4495849609375
1663860802685979600,22.168979736328126,26.50299072265625,36.57073974609375,24.02496337890625
1663860802705907700,22.18890771484375,24.2340087890625,37.45880126953125,21.74072265625
1663860802725683000,22.208682861328125,21.8536376953125,40.17486572265625,20.074462890625
1663860802745641500,22.228641357421875,19.29931640625,41.83807373046875,19.775390625
1663860802765600000,22.24860009765625,17.7764892578125,41.9830322265625,19.1650390625
1663860802785589000,22.268589111328126,17.779541015625,41.998291015625,20.9930419921875
1663860802805578000,22.288577880859375,15.2099609375,43.048095703125,19.92950439453125
1663860802825567000,22.30856689453125,13.99383544921875,43.20068359375,20.3857421875
1663860802845556000,22.328555908203125,12.8173828125,45.1568603515625,18.41278076171875
1663860802865545200,22.348545166015626,11.077880859375,42.4224853515625,19.00634765625
1663860802885503500,22.36850341796875,10.68878173828125,45.4559326171875,18.26019287109375
1663860802905523200,22.388523193359376,9.47265625,45.61309814453125,19.17266845703125
1663860802925512200,22.40851220703125,9.17510986328125,45.91827392578125,19.4793701171875
1663860802945470700,22.428470703125,6.12335205078125,45.76568603515625,20.08514404296875
1663860802965490200,22.448490234375,7.489013671875,45.47119140625,20.8465576171875
1663860802985479200,22.468479248046876,6.75048828125,46.52862548828125,20.39337158203125
1663860803005468200,22.48846826171875,6.4208984375,45.465087890625,20.3887939453125
1663860803025457200,22.50845703125,7.47833251953125,45.0164794921875,21.148681640625
1663860803045446100,22.528446044921875,6.42852783203125,45.76873779296875,20.39031982421875
1663860803065435100,22.54843505859375,9.6038818359375,44.696044921875,18.55926513671875
1663860803085424000,22.568424072265625,10.0372314453125,43.63250732421875,18.5546875
1663860803105413400,22.588413330078126,13.11492919921875,44.85321044921875,18.4112548828125
1663860803125402400,22.60840234375,16.71600341796875,42.28363037109375,19.1650390625
1663860803145391400,22.628391357421876,18.8446044921875,41.98150634765625,18.86138916015625
1663860803165380400,22.64838037109375,21.435546875,41.9769287109375,17.645263671875
1663860803185369300,22.668369384765626,23.97613525390625,39.70489501953125,17.9412841796875
1663860803205358300,22.6883583984375,25.7659912109375,37.890625,18.54400634765625
1663860803225347300,22.708347412109376,27.87628173828125,36.8316650390625,18.54095458984375
1663860803245336300,22.72833642578125,30.25360107421875,34.0972900390625,18.07403564453125
1663860803265417000,22.7484169921875,31.47125244140625,33.96148681640625,19.7509765625
1663860803285344800,22.7683447265625,34.04541015625,33.2000732421875,18.988037109375
1663860803305303300,22.78830322265625,35.68115234375,31.2469482421875,21.26617431640625
1663860803325292300,22.808292236328125,35.8123779296875,30.33447265625,21.1090087890625
1663860803345312000,22.82831201171875,36.09619140625,29.290771484375,23.39019775390625
1663860803365270500,22.8482705078125,34.4635009765625,31.26373291015625,23.5504150390625
1663860803385259500,22.868259521484376,35.77423095703125,28.53546142578125,23.9959716796875
1663860803405248500,22.88824853515625,35.01129150390625,28.5308837890625,23.6907958984375
1663860803425237500,22.908237548828126,36.85760498046875,29.29229736328125,23.3917236328125
1663860803445257000,22.928257080078126,34.92279052734375,31.27593994140625,24.92218017578125
1663860803465276400,22.9482763671875,33.587646484375,32.94219970703125,24.4720458984375
1663860803485235000,22.96823486328125,29.18701171875,33.84857177734375,24.92828369140625
1663860803505224000,22.988223876953125,29.6539306640625,34.307861328125,25.23651123046875
1663860803525213200,23.008213134765626,27.38037109375,34.912109375,25.38909912109375
1663860803545202200,23.0282021484375,29.93316650390625,33.10089111328125,26.14593505859375
1663860803565191200,23.048191162109376,29.14886474609375,32.0526123046875,28.27301025390625
1663860803585454800,23.068454833984376,30.5206298828125,32.0556640625,28.2745361328125
1663860803605321700,23.08832177734375,29.59136962890625,31.43768310546875,27.35595703125
1663860803625127700,23.108127685546876,29.01611328125,32.95440673828125,27.05841064453125
1663860803645116700,23.12811669921875,29.90264892578125,31.7352294921875,26.4434814453125
1663860803665075200,23.1480751953125,31.90460205078125,32.64617919921875,25.84075927734375
1663860803685094700,23.1680947265625,30.67474365234375,32.1868896484375,25.836181640625
1663860803705083600,23.188083740234376,29.48150634765625,33.40301513671875,26.14593505859375
1663860803725072600,23.20807275390625,29.0130615234375,32.940673828125,25.5340576171875
1663860803745061600,23.2280615234375,27.52838134765625,34.7442626953125,23.406982421875
1663860803765050600,23.248050537109375,27.26287841796875,36.5509033203125,21.58660888671875
1663860803785039600,23.26803955078125,24.71160888671875,38.36669921875,21.136474609375
1663860803805028600,23.288028564453125,22.59368896484375,39.12506103515625,21.59423828125
1663860803825017900,23.308017822265626,21.11358642578125,41.094970703125,21.1456298828125
1663860803845006800,23.3280068359375,17.9107666015625,41.08734130859375,21.14105224609375
1663860803864965400,23.34796533203125,17.01812744140625,42.00286865234375,21.75445556640625
1663860803884984800,23.36798486328125,15.78216552734375,41.38031005859375,20.37811279296875
1663860803904973800,23.387973876953126,15.95458984375,42.291259765625,20.23162841796875
1663860803924962800,23.407962890625,13.9678955078125,42.12799072265625,19.31304931640625
1663860803944951800,23.427951904296876,11.4105224609375,43.63555908203125,18.55621337890625
1663860803964910300,23.447910400390626,10.52398681640625,44.86083984375,19.93255615234375
1663860803984929800,23.4679296875,10.49041748046875,43.34716796875,20.6878662109375
1663860804004918800,23.487918701171875,8.7127685546875,45.623779296875,20.697021484375
1663860804024907800,23.50790771484375,7.4371337890625,43.18389892578125,20.07293701171875
1663860804044896800,23.527896728515625,6.55517578125,44.5709228515625,22.51739501953125
1663860804064886000,23.547885986328126,4.736328125,45.14923095703125,19.47021484375
1663860804084875000,23.567875,5.792236328125,44.56329345703125,21.75445556640625
1663860804104864000,23.587864013671876,4.91180419921875,46.08001708984375,21.6094970703125
1663860804124853000,23.60785302734375,6.11572265625,45.45440673828125,19.3206787109375
1663860804144842000,23.627842041015626,6.2469482421875,44.54498291015625,19.46868896484375
1663860804164831000,23.6478310546875,6.7169189453125,45.01495361328125,21.148681640625
1663860804184820000,23.667820068359376,7.19451904296875,46.05560302734375,18.2586669921875
1663860804204809000,23.68780908203125,10.6597900390625,44.23065185546875,17.18597412109375
1663860804224798000,23.7077978515625,13.09661865234375,44.091796875,18.10302734375
1663860804244787000,23.727786865234375,13.9739990234375,42.4224853515625,18.24798583984375
1663860804264776000,23.74777587890625,21.8719482421875,41.07208251953125,18.25103759765625
1663860804284765200,23.76776513671875,23.92120361328125,37.27874755859375,18.5394287109375
1663860804304723500,23.787723388671875,26.51519775390625,37.30010986328125,20.3704833984375
1663860804324743200,23.8077431640625,28.6224365234375,36.07635498046875,18.99566650390625
1663860804344732200,23.827732177734376,31.92138671875,33.6578369140625,19.74945068359375
1663860804364721200,23.84772119140625,31.60247802734375,33.0474853515625,19.44122314453125
1663860804384710100,23.867710205078126,35.07232666015625,31.3812255859375,19.2840576171875
1663860804404699100,23.88769921875,34.91668701171875,31.23016357421875,19.4366455078125
1663860804424688000,23.907688232421876,36.1175537109375,30.33294677734375,20.80535888671875
1663860804444677000,23.927677001953125,35.9375,29.11529541015625,20.64666748046875
1663860804464666000,23.947666015625,36.2335205078125,28.6712646484375,22.015380859375
1663860804484960300,23.967960205078125,37.15362548828125,28.96270751953125,20.34149169921875
1663860804504705300,23.987705322265626,36.10992431640625,30.02166748046875,20.0408935546875
1663860804524663800,24.007663818359376,35.0250244140625,29.2694091796875,21.1029052734375
1663860804544622300,24.027622314453126,35.67962646484375,31.23626708984375,19.8944091796875
1663860804564611300,24.047611328125,32.5164794921875,32.90863037109375,20.81298828125
1663860804584600300,24.067600341796876,30.41229248046875,34.2742919921875,21.12274169921875
1663860804604589300,24.08758935546875,29.0496826171875,34.7259521484375,20.81756591796875
1663860804624608800,24.10760888671875,29.6600341796875,34.722900390625,20.361328125
1663860804644567300,24.1275673828125,31.011962890625,33.81805419921875,20.9686279296875
1663860804664556300,24.147556396484376,33.27484130859375,32.62786865234375,23.4039306640625
1663860804684545300,24.167545166015625,32.13958740234375,29.60357666015625,25.52032470703125
1663860804704534300,24.1875341796875,32.93609619140625,31.12335205078125,25.22430419921875
1663860804724523300,24.207523193359375,33.3709716796875,30.1910400390625,22.7813720703125
1663860804744512300,24.22751220703125,33.221435546875,30.3375244140625,22.17254638671875
1663860804764501500,24.24750146484375,34.1796875,32.3028564453125,20.660400390625
1663860804784490500,24.267490478515626,32.95135498046875,31.86187744140625,22.637939453125
1663860804804479500,24.2874794921875,30.68695068359375,32.9132080078125,21.8780517578125
1663860804824468500,24.307468505859376,30.13153076171875,35.467529296875,18.53790283203125
1663860804844457500,24.32745751953125,29.51507568359375,35.1654052734375,18.84002685546875
1663860804864446500,24.347446533203126,27.83355712890625,34.99603271484375,17.1600341796875
1663860804884435500,24.367435546875,24.40185546875,38.33160400390625,17.17376708984375
1663860804904424400,24.387424560546876,23.35662841796875,39.3829345703125,15.9576416015625
1663860804924444000,24.40744384765625,20.9442138671875,40.58685302734375,15.04669189453125
1663860804944402400,24.42740234375,17.90008544921875,40.7470703125,16.7205810546875
1663860804964391400,24.447391357421875,18.5516357421875,42.706298828125,14.7491455078125
1663860804984380400,24.46738037109375,13.5284423828125,43.1427001953125,13.52691650390625
1663860805004369700,24.48736962890625,13.8458251953125,43.73321533203125,11.39678955078125
1663860805024358700,24.507358642578126,12.518310546875,45.70770263671875,11.7095947265625
1663860805044347600,24.52734765625,11.44866943359375,45.69244384765625,10.1837158203125
1663860805064336600,24.547336669921876,10.11199951171875,47.21832275390625,11.25640869140625
1663860805084325600,24.56732568359375,9.60540771484375,44.96002197265625,13.836669921875
1663860805104314600,24.587314697265626,9.0057373046875,45.40557861328125,12.7716064453125
1663860805124303600,24.6073037109375,7.04345703125,46.31500244140625,12.92572021484375
1663860805144292600,24.627292724609376,7.61871337890625,44.78759765625,11.85150146484375
1663860805164251100,24.647251220703126,4.30145263671875,46.4508056640625,11.7034912109375
1663860805184270600,24.6672705078125,7.02667236328125,45.55511474609375,12.921142578125
1663860805204259600,24.687259521484375,7.16552734375,44.94781494140625,13.0706787109375
1663860805224248600,24.70724853515625,7.1807861328125,45.697021484375,11.7034912109375
1663860805244237800,24.72723779296875,7.78961181640625,45.69244384765625,10.94207763671875
1663860805264196000,24.747196044921875,8.69140625,45.08514404296875,10.7879638671875
1663860805284215800,24.7672158203125,12.481689453125,44.17724609375,10.4827880859375
1663860805304204800,24.787204833984376,14.16778564453125,44.49920654296875,12.16278076171875
1663860805324193800,24.80719384765625,18.6553955078125,40.7012939453125,11.23504638671875
1663860805344182800,24.827182861328126,22.16949462890625,41.0125732421875,11.2396240234375
1663860805364446500,24.847446533203126,24.3621826171875,36.77825927734375,13.05084228515625
1663860805384343800,24.86734375,28.13568115234375,35.1043701171875,11.82708740234375
1663860805404180200,24.88718017578125,30.57098388671875,34.82666015625,14.4195556640625
1663860805424169500,24.90716943359375,32.501220703125,32.53936767578125,13.03863525390625
1663860805444127700,24.927127685546875,32.177734375,31.77032470703125,11.96746826171875
1663860805464117000,24.947116943359376,33.80889892578125,29.79583740234375,11.8072509765625
1663860805484106000,24.96710595703125,36.06109619140625,28.143310546875,13.47808837890625
1663860805504095000,24.987094970703126,39.2059326171875,25.58135986328125,15.2984619140625
1663860805524053500,25.007053466796876,38.61541748046875,26.348876953125,16.36810302734375
1663860805544073000,25.027072998046876,37.70294189453125,26.49993896484375,16.52069091796875
1663860805564062000,25.04706201171875,39.501953125,25.13427734375,16.2109375
1663860805584051000,25.067051025390626,39.07012939453125,26.2054443359375,17.2821044921875
1663860805604040000,25.0870400390625,37.85247802734375,26.35345458984375,17.1295166015625
1663860805624029000,25.10702880859375,35.14556884765625,28.0181884765625,16.8304443359375
1663860805644018000,25.127017822265625,35.028076171875,29.53643798828125,16.6839599609375
1663860805664007000,25.1470068359375,32.48748779296875,31.81610107421875,17.45452880859375
1663860805683996000,25.166995849609375,32.96356201171875,32.58209228515625,17.9168701171875
1663860805703985200,25.186985107421876,34.26971435546875,29.5654296875,20.34149169921875
1663860805723974100,25.20697412109375,34.69390869140625,28.18603515625,18.963623046875
1663860805743963100,25.226963134765626,35.59112548828125,27.29644775390625,21.246337890625
1663860805763952000,25.2469521484375,34.942626953125,25.6195068359375,20.78094482421875
1663860805783941000,25.266941162109376,33.4747314453125,28.18450927734375,18.96209716796875
1663860805803930000,25.28693017578125,35.272216796875,26.68304443359375,20.7855224609375
1663860805823919000,25.306919189453126,35.5743408203125,26.79443359375,15.75775146484375
1663860805843908000,25.326908203125,33.01849365234375,28.3172607421875,16.82891845703125
1663860805863897000,25.34689697265625,33.48236083984375,28.4912109375,19.268798828125
1663860805883886000,25.366885986328125,31.9671630859375,29.06951904296875,16.22161865234375
1663860805903875000,25.386875,30.95550537109375,31.6314697265625,13.946533203125
1663860805923864000,25.406864013671875,29.18243408203125,34.063720703125,14.41497802734375
1663860805943853300,25.426853271484376,26.77154541015625,35.4156494140625,13.0462646484375
1663860805963842300,25.44684228515625,27.0965576171875,36.31744384765625,11.8316650390625
1663860805983831300,25.466831298828126,23.59771728515625,36.75384521484375,10.4583740234375
1663860806003820300,25.4868203125,22.39837646484375,37.66937255859375,11.07177734375
1663860806023809300,25.506809326171876,20.751953125,39.0228271484375,9.857177734375
1663860806043767800,25.526767822265626,19.57550048828125,40.86761474609375,12.60833740234375
1663860806063787300,25.546787353515626,17.01202392578125,42.21038818359375,10.32562255859375
1663860806083776300,25.5667763671875,13.4979248046875,42.0257568359375,7.2723388671875
1663860806103765200,25.58676513671875,13.0462646484375,42.19512939453125,9.55963134765625
1663860806123754200,25.606754150390625,10.64453125,43.86444091796875,9.869384765625
1663860806143743200,25.6267431640625,11.3739013671875,42.352294921875,10.47210693359375
1663860806163732200,25.646732177734375,9.88006591796875,43.71490478515625,10.32562255859375
1663860806183721500,25.666721435546876,9.1461181640625,45.06378173828125,8.197021484375
1663860806203710500,25.68671044921875,4.54559326171875,43.85528564453125,10.16693115234375
1663860806223699500,25.706699462890626,6.50634765625,42.93975830078125,9.25140380859375
1663860806243688400,25.7266884765625,6.195068359375,42.64068603515625,10.01129150390625
1663860806263982600,25.746982666015626,6.0699462890625,43.85833740234375,10.16845703125
1663860806283727400,25.766727294921875,5.76934814453125,44.01702880859375,11.083984375
1663860806303655400,25.786655517578126,7.26776123046875,42.92755126953125,7.72705078125
1663860806323644400,25.80664453125,5.58624267578125,42.77496337890625,8.0291748046875
1663860806343633400,25.82663330078125,6.37054443359375,43.82476806640625,6.207275390625
1663860806363622400,25.846622314453125,9.442138671875,44.744873046875,6.36749267578125
1663860806383642000,25.86664208984375,12.298583984375,42.93365478515625,7.12432861328125
1663860806403600400,25.886600341796875,13.34075927734375,41.86553955078125,6.3568115234375
1663860806423589600,25.906589599609376,17.75360107421875,41.424560546875,7.122802734375
1663860806443578600,25.92657861328125,20.76263427734375,39.6148681640625,8.03070068359375
1663860806463567600,25.946567626953126,24.5086669921875,36.5966796875,9.54437255859375
1663860806483556600,25.966556640625,27.0751953125,35.53619384765625,9.2376708984375
1663860806503545600,25.986545654296876,31.0150146484375,34.47113037109375,8.1695556640625
1663860806523534600,26.00653466796875,31.00433349609375,34.0057373046875,7.1014404296875
1663860806543523600,26.026523681640626,32.8033447265625,32.6446533203125,7.4005126953125
1663860806563512600,26.0465126953125,33.21685791015625,30.67474365234375,8.001708984375
1663860806583501600,26.06650146484375,34.1156005859375,30.06134033203125,7.08465576171875
1663860806603490600,26.086490478515625,35.14862060546875,28.5400390625,6.62078857421875
1663860806623479600,26.1064794921875,35.80780029296875,30.67626953125,7.5469970703125
1663860806643468800,26.12646875,37.8936767578125,28.4210205078125,9.82513427734375
1663860806663457800,26.146457763671876,37.1124267578125,27.6458740234375,8.29620361328125
1663860806683446800,26.16644677734375,35.955810546875,30.3863525390625,9.222412109375
1663860806703435800,26.186435791015626,35.333251953125,29.91943359375,8.00018310546875
1663860806723424800,26.2064248046875,35.07080078125,31.74285888671875,8.00933837890625
1663860806743413800,26.226413818359376,33.10699462890625,32.64312744140625,7.09686279296875
1663860806763402800,26.24640283203125,29.9468994140625,34.46044921875,7.1014404296875
1663860806783391700,26.266391845703126,32.525634765625,33.8592529296875,7.2540283203125
1663860806803380700,26.286380615234375,35.394287109375,32.52105712890625,10.1470947265625
1663860806823369700,26.30636962890625,35.0555419921875,31.0028076171875,10.443115234375
1663860806843358700,26.326358642578125,36.993408203125,29.03594970703125,11.04583740234375
1663860806863347700,26.34634765625,35.1898193359375,30.11016845703125,12.5732421875
1663860806883337000,26.3663369140625,35.02044677734375,29.48150634765625,10.1318359375
1663860806903326000,26.386325927734376,36.859130859375,29.92706298828125,8.612060546875
1663860806923315000,26.40631494140625,36.70196533203125,29.75921630859375,6.62994384765625
1663860806943304000,26.426303955078126,34.8968505859375,30.8349609375,8.46099853515625
1663860806963293000,26.44629296875,35.1776123046875,29.77142333984375,8.4564208984375
1663860806983282000,26.466281982421876,31.5643310546875,31.8695068359375,5.87158203125
1663860807003271000,26.48627099609375,29.6234130859375,33.81805419921875,3.13568115234375
1663860807023260000,26.506260009765626,28.76434326171875,36.25335693359375,3.7567138671875
1663860807043249000,26.526248779296875,27.7374267578125,38.06610107421875,2.69775390625
1663860807063238000,26.54623779296875,21.9390869140625,38.02490234375,-0.6622314453125
1663860807083227000,26.566226806640625,20.89691162109375,39.0899658203125,-0.35400390625
1663860807103215900,26.5862158203125,17.12188720703125,40.88287353515625,-3.0914306640625
1663860807123205000,26.606205078125,16.4093017578125,43.0145263671875,-2.32086181640625
1663860807143438000,26.62643798828125,12.90130615234375,43.00689697265625,-2.32391357421875
1663860807163366100,26.6463662109375,11.24267578125,43.90106201171875,-3.997802734375
1663860807183172000,26.666172119140626,8.056640625,44.63653564453125,-6.13250732421875
1663860807203161000,26.6861611328125,6.53076171875,44.63043212890625,-6.59027099609375
1663860807223180500,26.7061806640625,4.6966552734375,44.34814453125,-3.546142578125
1663860807243139000,26.72613916015625,3.19976806640625,45.5596923828125,-3.69415283203125
1663860807263128000,26.746128173828126,2.90069580078125,45.72906494140625,-1.40838623046875
1663860807283117000,26.766116943359375,0.31890869140625,46.30584716796875,-4.45556640625
1663860807303106000,26.78610595703125,-1.68304443359375,45.39794921875,-3.54766845703125
1663860807323095000,26.806094970703125,-3.33099365234375,46.6278076171875,-1.5625
1663860807343084000,26.826083984375,-1.983642578125,45.5535888671875,-3.08990478515625
1663860807363073300,26.8460732421875,0.323486328125,46.337890625,-0.79803466796875
1663860807383062300,26.866062255859376,-2.4566650390625,44.93408203125,-4.31365966796875
1663860807403051300,26.88605126953125,-2.87933349609375,46.46148681640625,-3.23944091796875
1663860807423040300,26.906040283203126,-0.63323974609375,44.64263916015625,-3.24554443359375
1663860807443029200,26.926029296875,1.96380615234375,44.80133056640625,-3.08990478515625
1663860807462987800,26.94598779296875,4.87518310546875,45.55206298828125,-4.91180419921875
1663860807483007200,26.96600732421875,7.70721435546875,42.66510009765625,-5.5328369140625
1663860807502996200,26.985996337890626,11.2274169921875,43.1488037109375,-3.23944091796875
1663860807522985200,27.005985107421875,14.2669677734375,42.7032470703125,-2.62908935546875
1663860807542974200,27.02597412109375,18.05877685546875,41.802978515625,-2.17132568359375
1663860807562932700,27.0459326171875,18.62640380859375,39.97344970703125,-3.094482421875
1663860807582952200,27.0659521484375,21.844482421875,40.59906005859375,-1.86920166015625
1663860807602941400,27.08594140625,23.91204833984375,37.7044677734375,-3.1005859375
1663860807622930400,27.105930419921876,27.55584716796875,37.08648681640625,-5.23223876953125
1663860807642919400,27.12591943359375,28.4393310546875,35.72235107421875,-5.08575439453125
1663860807662908400,27.145908447265626,32.35931396484375,33.6212158203125,-2.80609130859375
1663860807682897400,27.1658974609375,33.39080810546875,32.09991455078125,-3.2684326171875
1663860807702886400,27.185886474609376,34.429931640625,30.74951171875,-1.44500732421875
1663860807722875400,27.20587548828125,34.7381591796875,30.90057373046875,-1.59759521484375
1663860807742864400,27.225864501953126,37.1856689453125,31.2164306640625,-0.830078125
1663860807762853400,27.245853271484375,37.6708984375,32.43560791015625,-0.518798828125
1663860807782842400,27.26584228515625,37.030029296875,31.07452392578125,0.3875732421875
