time,seconds_elapsed,z,y,x
1663860780717732400,0.200732421875,-87.98828125,-35.65521240234375,46.9696044921875
1663860780737691000,0.22069091796875,-87.03765869140625,-34.00421142578125,44.2352294921875
1663860780757710300,0.24071044921875,-85.92987060546875,-32.1868896484375,43.1793212890625
1663860780777699300,0.26069921875,-86.9842529296875,-31.58111572265625,43.18084716796875
1663860780797688300,0.280688232421875,-86.2884521484375,-34.47723388671875,41.94793701171875
1663860780817677300,0.30067724609375,-87.29248046875,-31.610107421875,39.82696533203125
1663860780837666300,0.320666259765625,-86.2884521484375,-34.48333740234375,41.339111328125
1663860780857655600,0.340655517578125,-83.984375,-33.58917236328125,38.6016845703125
1663860780877644500,0.36064453125,-85.20050048828125,-33.44268798828125,38.2965087890625
1663860780897633500,0.380633544921875,-86.00311279296875,-35.2569580078125,39.50653076171875
1663860780917622500,0.40062255859375,-86.126708984375,-33.9111328125,37.07427978515625
1663860780937611500,0.420611572265625,-83.84246826171875,-34.04998779296875,37.9913330078125
1663860780957600500,0.4406005859375,-84.15985107421875,-34.521484375,36.15875244140625
1663860780977559000,0.46055908203125,-85.09979248046875,-35.72540283203125,37.82806396484375
1663860780997578500,0.48057861328125,-84.161376953125,-34.53521728515625,34.6343994140625
1663860781017567500,0.5005673828125,-83.55255126953125,-34.6710205078125,36.31134033203125
1663860781037556500,0.520556396484375,-83.3984375,-34.52606201171875,35.3973388671875
1663860781057545500,0.54054541015625,-82.58514404296875,-32.2509765625,34.64813232421875
1663860781077534500,0.560534423828125,-82.60345458984375,-33.0230712890625,33.2733154296875
1663860781097523700,0.580523681640625,-83.209228515625,-32.86285400390625,34.49249267578125
1663860781117512700,0.6005126953125,-81.93817138671875,-30.5877685546875,33.5906982421875
1663860781137501700,0.620501708984375,-81.48345947265625,-30.61065673828125,30.694580078125
1663860781157490700,0.64049072265625,-80.18341064453125,-27.1087646484375,31.170654296875
1663860781177479700,0.660479736328125,-80.00030517578125,-25.7415771484375,31.02569580078125
1663860781197468700,0.68046875,-79.04205322265625,-23.77166748046875,30.12237548828125
1663860781217457700,0.700457763671875,-79.50439453125,-23.9349365234375,28.90167236328125
1663860781237446700,0.72044677734375,-77.94189453125,-22.39837646484375,30.58624267578125
1663860781257435600,0.740435546875,-76.3946533203125,-21.3409423828125,29.37469482421875
1663860781277424600,0.760424560546875,-75.14495849609375,-19.98291015625,27.85797119140625
1663860781297413600,0.78041357421875,-75.146484375,-19.99359130859375,26.6387939453125
1663860781317677300,0.80067724609375,-74.53460693359375,-19.8486328125,25.726318359375
1663860781337757700,0.8207578125,-74.8443603515625,-20.0103759765625,24.505615234375
1663860781357380400,0.84038037109375,-73.5809326171875,-18.16864013671875,26.3458251953125
1663860781377400000,0.860400146484375,-73.101806640625,-17.2515869140625,26.96075439453125
1663860781397389000,0.88038916015625,-72.9217529296875,-16.0308837890625,27.423095703125
1663860781417347600,0.90034765625,-71.07391357421875,-15.26336669921875,27.886962890625
1663860781437305900,0.920305908203125,-72.11761474609375,-14.2059326171875,27.43377685546875
1663860781457325600,0.94032568359375,-69.81658935546875,-13.59100341796875,27.5909423828125
1663860781477314600,0.960314453125,-71.02508544921875,-13.13323974609375,28.2012939453125
1663860781497303600,0.980303466796875,-70.5596923828125,-12.6922607421875,26.3763427734375
1663860781517292500,1.00029248046875,-68.8140869140625,-9.77783203125,28.9825439453125
1663860781537281500,1.020281494140625,-68.43109130859375,-6.427001953125,29.91485595703125
1663860781557270500,1.0402705078125,-66.42608642578125,-5.4931640625,31.90155029296875
1663860781577259500,1.060259521484375,-66.42608642578125,-5.4931640625,31.90155029296875
1663860781597248500,1.08024853515625,-63.4674072265625,-2.88238525390625,34.50927734375
1663860781617237500,1.100237548828125,-61.33270263671875,-2.8778076171875,34.5123291015625
1663860781637226800,1.120226806640625,-58.45794677734375,-3.91998291015625,36.33880615234375
1663860781657215700,1.1402158203125,-55.16357421875,0.05645751953125,38.494873046875
1663860781677204700,1.160204833984375,-51.51214599609375,-0.24871826171875,37.43133544921875
1663860781697193700,1.18019384765625,-52.57110595703125,0.06561279296875,38.9556884765625
1663860781717182700,1.2001826171875,-52.62451171875,-2.35443115234375,40.31524658203125
1663860781737171700,1.220171630859375,-51.8218994140625,-0.54779052734375,38.19122314453125
1663860781757160700,1.24016064453125,-52.13470458984375,-0.85906982421875,37.27569580078125
1663860781777149700,1.260149658203125,-50.81024169921875,-2.84576416015625,35.59112548828125
1663860781797138700,1.280138671875,-51.4068603515625,-2.25067138671875,34.37347412109375
1663860781817127700,1.300127685546875,-50.3753662109375,-3.77197265625,33.90960693359375
1663860781837116700,1.32011669921875,-51.63726806640625,-5.4779052734375,30.09033203125
1663860781857105700,1.340105712890625,-49.07684326171875,-6.84661865234375,29.3243408203125
1663860781877095000,1.360094970703125,-49.04632568359375,-5.48858642578125,28.26385498046875
1663860781897084000,1.380083984375,-47.674560546875,-5.49163818359375,27.50396728515625
1663860781917073000,1.400072998046875,-45.849609375,-5.77850341796875,29.0283203125
1663860781937031400,1.420031494140625,-44.16961669921875,-5.6243896484375,28.8787841796875
1663860781957051000,1.44005078125,-41.436767578125,-6.0821533203125,27.96478271484375
1663860781977040000,1.460039794921875,-40.6280517578125,-4.10308837890625,28.1280517578125
1663860781997028900,1.48002880859375,-43.2647705078125,-6.07452392578125,29.33502197265625
1663860782017017900,1.500017822265625,-39.31121826171875,-6.5338134765625,27.96478271484375
1663860782037006800,1.5200068359375,-42.059326171875,-6.69097900390625,28.11431884765625
1663860782056995800,1.539995849609375,-40.37933349609375,-6.5399169921875,27.50701904296875
1663860782076984800,1.55998486328125,-40.83709716796875,-6.54144287109375,27.50701904296875
1663860782096973800,1.579973876953125,-41.1651611328125,-7.598876953125,28.2623291015625
1663860782116963000,1.599963134765625,-39.31121826171875,-6.5338134765625,27.96478271484375
1663860782136952000,1.6199521484375,-39.05029296875,-8.37249755859375,26.12762451171875
1663860782156941000,1.639941162109375,-39.21356201171875,-8.83636474609375,25.2105712890625
1663860782176930000,1.659929931640625,-39.398193359375,-10.21575927734375,23.83270263671875
1663860782196919000,1.6799189453125,-37.89520263671875,-11.1236572265625,23.98223876953125
1663860782217243600,1.70024365234375,-37.835693359375,-8.54034423828125,23.99444580078125
1663860782237019100,1.72001904296875,-36.5020751953125,-10.21270751953125,23.53057861328125
1663860782256886000,1.739885986328125,-36.63330078125,-9.30023193359375,23.687744140625
1663860782276875000,1.759875,-38.47808837890625,-9.91363525390625,23.37799072265625
1663860782296864000,1.779864013671875,-37.2711181640625,-10.5224609375,23.0712890625
1663860782316853000,1.79985302734375,-39.31732177734375,-6.57501220703125,23.08807373046875
1663860782336842000,1.819842041015625,-41.18804931640625,-8.39691162109375,23.83880615234375
1663860782356831200,1.839831298828125,-43.9361572265625,-8.55560302734375,23.68316650390625
1663860782376820200,1.8598203125,-43.1243896484375,-6.41937255859375,24.456787109375
1663860782396809200,1.879809326171875,-46.002197265625,-5.65338134765625,25.82855224609375
1663860782416798200,1.899798095703125,-48.60992431640625,-6.39801025390625,28.41339111328125
1663860782436787200,1.919787109375,-49.9298095703125,-4.11376953125,29.1839599609375
1663860782456776200,1.939776123046875,-50.97198486328125,-3.04412841796875,30.255126953125
1663860782476765200,1.95976513671875,-49.90234375,-3.03192138671875,31.3232421875
1663860782496754200,1.979754150390625,-49.5880126953125,-2.70843505859375,33.612060546875
1663860782516743200,1.9997431640625,-49.35150146484375,0.95672607421875,35.6109619140625
1663860782536732200,2.019732177734375,-46.76055908203125,0.69427490234375,40.03143310546875
1663860782556721200,2.03972119140625,-49.9359130859375,1.776123046875,42.9290771484375
1663860782576710400,2.05971044921875,-49.88250732421875,4.071044921875,44.769287109375
1663860782596699400,2.079699462890625,-50.7904052734375,4.2449951171875,47.5128173828125
1663860782616688400,2.0996884765625,-52.01873779296875,3.80706787109375,50.1007080078125
1663860782636677400,2.119677490234375,-53.34930419921875,5.62286376953125,49.34539794921875
1663860782656666400,2.139666259765625,-54.4708251953125,3.2012939453125,50.85601806640625
1663860782676656400,2.159656494140625,-53.6529541015625,5.6365966796875,51.17340087890625
1663860782696645400,2.179645263671875,-52.7557373046875,4.754638671875,54.37164306640625
1663860782716634600,2.199634521484375,-50.775146484375,4.60968017578125,54.82940673828125
1663860782736623600,2.21962353515625,-52.62298583984375,3.84674072265625,54.82330322265625
1663860782756612600,2.239612548828125,-51.67388916015625,5.23681640625,57.27081298828125
1663860782776601600,2.2596015625,-50.43182373046875,6.16302490234375,58.64715576171875
1663860782796590600,2.279590576171875,-49.5330810546875,5.28411865234375,62.4542236328125
1663860782816610000,2.299610107421875,-47.70050048828125,5.31005859375,65.0482177734375
1663860782836568600,2.319568603515625,-47.723388671875,4.25567626953125,66.10870361328125
1663860782856557600,2.3395576171875,-44.53277587890625,3.5552978515625,72.357177734375
1663860782876546600,2.359546630859375,-42.59033203125,1.617431640625,76.46484375
1663860782896535600,2.37953564453125,-43.06488037109375,0.73394775390625,79.9652099609375
1663860782916524500,2.399524658203125,-39.84222412109375,-5.42144775390625,88.1683349609375
1663860782936513500,2.419513427734375,-38.05694580078125,-7.5164794921875,91.5130615234375
1663860782956502800,2.439502685546875,-38.3392333984375,-6.4605712890625,90.7562255859375
1663860782976491800,2.45949169921875,-35.60943603515625,-7.06939697265625,89.84222412109375
1663860782996480800,2.479480712890625,-33.93707275390625,-7.354736328125,91.6717529296875
1663860783016469800,2.4994697265625,-34.09271240234375,-7.50579833984375,91.82281494140625
1663860783036458800,2.519458740234375,-33.197021484375,-8.4014892578125,93.49517822265625
1663860783056447700,2.53944775390625,-34.8663330078125,-7.9681396484375,91.20941162109375
1663860783076436700,2.559436767578125,-34.06219482421875,-6.146240234375,90.7623291015625
1663860783096731000,2.57973095703125,-35.4522705078125,-6.9061279296875,91.2139892578125
1663860783116689400,2.599689453125,-36.46240234375,-4.33502197265625,90.00701904296875
1663860783136434400,2.619434326171875,-38.1591796875,-5.24749755859375,90.3045654296875
1663860783156392700,2.639392822265625,-39.07318115234375,-5.11474609375,88.17138671875
1663860783176381700,2.659381591796875,-40.87066650390625,-3.6102294921875,86.80419921875
1663860783196371000,2.679370849609375,-43.57452392578125,-1.9287109375,88.7908935546875
1663860783216390400,2.699390380859375,-43.84918212890625,-0.56915283203125,87.73040771484375
1663860783236349000,2.719348876953125,-45.39337158203125,-1.3397216796875,86.962890625
1663860783256338000,2.739337890625,-44.94171142578125,-1.641845703125,86.962890625
1663860783276327000,2.759326904296875,-44.91729736328125,-0.57220458984375,87.7288818359375
1663860783296316000,2.77931591796875,-39.76287841796875,-1.79443359375,85.748291015625
1663860783316305000,2.799304931640625,-43.10760498046875,-1.3519287109375,84.832763671875
1663860783336294000,2.8192939453125,-42.80242919921875,-1.3519287109375,84.832763671875
1663860783356283000,2.839282958984375,-41.70684814453125,-0.1251220703125,85.906982421875
1663860783376272000,2.85927197265625,-40.625,0.4913330078125,86.6729736328125
1663860783396260900,2.8792607421875,-44.61669921875,-0.59967041015625,84.37652587890625
1663860783416280600,2.899280517578125,-43.08013916015625,-0.140380859375,84.381103515625
1663860783436239000,2.919239013671875,-42.669677734375,-2.25067138671875,86.3525390625
1663860783456228000,2.93922802734375,-44.01092529296875,-0.76751708984375,82.39593505859375
1663860783476217000,2.959217041015625,-46.93145751953125,-1.81884765625,84.521484375
1663860783496206000,2.9792060546875,-49.822998046875,-1.53350830078125,83.14666748046875
1663860783516225500,2.9992255859375,-52.0751953125,-0.018310546875,83.15277099609375
1663860783536184000,3.01918408203125,-54.4189453125,-2.45513916015625,82.98492431640625
1663860783556173000,3.039173095703125,-54.27398681640625,-2.89154052734375,85.2691650390625
1663860783576162000,3.059162109375,-56.41021728515625,-2.9083251953125,83.89434814453125
1663860783596151000,3.079151123046875,-55.657958984375,-3.363037109375,83.89434814453125
1663860783616140000,3.09914013671875,-57.91015625,-1.84173583984375,84.50775146484375
1663860783636129000,3.11912890625,-57.60955810546875,-1.99737548828125,84.04998779296875
1663860783656392700,3.139392822265625,-57.70111083984375,-6.08978271484375,85.40191650390625
1663860783676107300,3.159107177734375,-59.4970703125,-4.58221435546875,84.33990478515625
1663860783696126700,3.179126708984375,-58.123779296875,-4.56695556640625,85.86578369140625
1663860783716115700,3.19911572265625,-59.5123291015625,-5.32684326171875,86.1663818359375
1663860783736074200,3.21907421875,-61.25640869140625,-8.349609375,88.58795166015625
1663860783756063200,3.239063232421875,-59.27276611328125,-8.20770263671875,86.9140625
1663860783776082700,3.259082763671875,-60.6353759765625,-7.891845703125,88.7420654296875
1663860783796071700,3.27907177734375,-58.80584716796875,-7.88726806640625,88.7451171875
1663860783816030200,3.2990302734375,-61.0687255859375,-6.82525634765625,89.05181884765625
1663860783836019200,3.319019287109375,-59.7137451171875,-7.58056640625,89.35546875
1663860783856039000,3.339038818359375,-58.03375244140625,-7.56072998046875,91.18499755859375
1663860783876028000,3.35902783203125,-59.2529296875,-7.42950439453125,89.05181884765625
1663860783896017000,3.379016845703125,-58.0047607421875,-6.21337890625,88.9068603515625
1663860783915975400,3.398975341796875,-55.0933837890625,-5.46875,86.322021484375
1663860783935964400,3.41896435546875,-54.6051025390625,-4.10003662109375,86.32965087890625
1663860783956014300,3.439014404296875,-53.2379150390625,-4.3853759765625,88.1591796875
1663860783975942400,3.4589423828125,-49.39727783203125,-3.1585693359375,88.4735107421875
1663860783996175600,3.479175537109375,-47.76458740234375,-5.1300048828125,88.61846923828125
1663860784016073000,3.499072998046875,-44.537353515625,-4.052734375,89.3890380859375
1663860784035909400,3.518909423828125,-42.08526611328125,-3.45306396484375,87.71820068359375
1663860784055898400,3.5388984375,-38.26141357421875,-2.85186767578125,86.04888916015625
1663860784075887400,3.558887451171875,-39.92919921875,-2.40478515625,85.4400634765625
1663860784095876400,3.57887646484375,-39.57366943359375,-0.13275146484375,84.38568115234375
1663860784115865300,3.598865234375,-35.94818115234375,-1.64794921875,84.07745361328125
1663860784135854600,3.6188544921875,-36.8896484375,-2.85186767578125,85.74676513671875
1663860784155843600,3.638843505859375,-35.3240966796875,-1.03759765625,84.23309326171875
1663860784175832600,3.65883251953125,-35.1806640625,-1.348876953125,83.31756591796875
1663860784195821600,3.678821533203125,-37.1307373046875,0.01983642578125,83.93096923828125
1663860784215810600,3.698810546875,-36.1907958984375,1.09405517578125,84.85260009765625
1663860784235799600,3.718799560546875,-36.663818359375,0.47149658203125,83.32366943359375
1663860784255788500,3.73878857421875,-39.703369140625,0.92315673828125,83.47625732421875
1663860784275777500,3.758777587890625,-40.777587890625,0.6103515625,82.71026611328125
1663860784295766500,3.7787666015625,-42.4591064453125,0.45318603515625,82.55615234375
1663860784315755500,3.798755615234375,-45.0469970703125,0.6011962890625,82.7056884765625
1663860784335744500,3.81874462890625,-44.13604736328125,0.45623779296875,83.3160400390625
1663860784355733500,3.8387333984375,-40.91339111328125,1.37176513671875,83.01849365234375
1663860784375722800,3.85872265625,-40.1580810546875,1.0589599609375,81.79931640625
1663860784395711700,3.878711669921875,-40.92254638671875,1.0467529296875,80.42755126953125
1663860784415700700,3.89870068359375,-42.4224853515625,2.11181640625,81.0394287109375
1663860784435689700,3.918689697265625,-40.76995849609375,0.9185791015625,83.1695556640625
1663860784455678700,3.9386787109375,-37.85552978515625,1.68609619140625,83.4808349609375
1663860784475667700,3.958667724609375,-38.9434814453125,0.9002685546875,80.58013916015625
1663860784495656700,3.97865673828125,-41.0552978515625,1.9561767578125,80.126953125
1663860784515645700,3.998645751953125,-44.12384033203125,1.04522705078125,81.0333251953125
1663860784535634700,4.018634765625,-43.79425048828125,2.11334228515625,81.49566650390625
1663860784555623700,4.038623779296875,-45.75653076171875,3.01361083984375,80.58319091796875
1663860784575612700,4.05861279296875,-49.75433349609375,1.63116455078125,79.8095703125
1663860784595601700,4.0786015625,-52.2064208984375,1.0223388671875,80.413818359375
1663860784615591000,4.0985908203125,-51.15203857421875,0.42572021484375,81.4788818359375
1663860784635580000,4.118579833984375,-54.51812744140625,-0.048828125,80.10101318359375
1663860784655569000,4.13856884765625,-58.04595947265625,-0.96588134765625,80.39703369140625
1663860784675558000,4.158557861328125,-58.203125,-1.1199951171875,80.09185791015625
1663860784695547000,4.178546875,-60.50262451171875,-1.7181396484375,81.7626953125
1663860784715536000,4.198535888671875,-60.98480224609375,-2.789306640625,80.99517822265625
1663860784735524900,4.21852490234375,-62.554931640625,-4.77294921875,80.5267333984375
1663860784755513900,4.238513916015625,-61.02447509765625,-4.60052490234375,82.5103759765625
1663860784775502800,4.2585029296875,-63.116455078125,-2.777099609375,82.9742431640625
1663860784795491800,4.278491943359375,-63.0584716796875,-7.0068359375,86.0015869140625
1663860784815480800,4.298480712890625,-64.4195556640625,-6.55517578125,86.0015869140625
1663860784835469800,4.3184697265625,-65.52276611328125,-8.07952880859375,85.68878173828125
1663860784855459000,4.338458984375,-64.43939208984375,-7.3272705078125,84.47418212890625
1663860784875783700,4.35878369140625,-62.60223388671875,-7.0159912109375,84.93499755859375
1663860784895711700,4.378711669921875,-63.52081298828125,-7.17010498046875,84.7808837890625
1663860784915487000,4.398487060546875,-65.95611572265625,-7.0159912109375,85.693359375
1663860784935445500,4.418445556640625,-62.88299560546875,-6.085205078125,87.225341796875
1663860784955404000,4.438404052734375,-63.519287109375,-7.1685791015625,85.0860595703125
1663860784975423500,4.458423583984375,-59.64508056640625,-4.42352294921875,85.25543212890625
1663860784995382000,4.478382080078125,-59.6221923828125,-3.37066650390625,83.8897705078125
1663860785015371000,4.49837109375,-57.29827880859375,-1.70135498046875,82.98492431640625
1663860785035360000,4.518360107421875,-54.6966552734375,-1.37481689453125,85.12420654296875
1663860785055349000,4.538348876953125,-51.78375244140625,-0.62408447265625,83.30230712890625
1663860785075338200,4.558338134765625,-49.50714111328125,-1.080322265625,82.69195556640625
1663860785095327200,4.5783271484375,-45.8465576171875,-1.0589599609375,84.22088623046875
1663860785115316200,4.598316162109375,-43.7042236328125,-0.750732421875,84.2254638671875
1663860785135305200,4.61830517578125,-40.65399169921875,-0.60882568359375,82.2479248046875
1663860785155294200,4.638294189453125,-40.576171875,2.86712646484375,79.97894287109375
1663860785175283200,4.658283203125,-38.00201416015625,2.11334228515625,79.9774169921875
1663860785195272200,4.678272216796875,-36.93389892578125,2.11181640625,79.67529296875
1663860785215261200,4.69826123046875,-36.80877685546875,0.9002685546875,80.12542724609375
1663860785235250200,4.718250244140625,-35.27984619140625,1.19171142578125,78.30047607421875
1663860785255239200,4.7382392578125,-33.92486572265625,0.299072265625,80.126953125
1663860785275228200,4.758228271484375,-34.81597900390625,1.36566162109375,80.7403564453125
1663860785295217200,4.778217041015625,-37.54119873046875,2.2613525390625,79.522705078125
1663860785315206400,4.798206298828125,-35.72540283203125,1.6510009765625,78.759765625
1663860785335195400,4.8181953125,-38.134765625,3.01055908203125,78.30657958984375
1663860785355184400,4.838184326171875,-40.4388427734375,2.252197265625,79.0618896484375
1663860785375173400,4.85817333984375,-41.9525146484375,2.83966064453125,77.081298828125
1663860785395162400,4.878162353515625,-45.587158203125,3.89556884765625,77.08282470703125
1663860785415151400,4.8981513671875,-47.2198486328125,5.86700439453125,76.9378662109375
1663860785435140400,4.918140380859375,-43.00079345703125,3.6041259765625,77.84576416015625
1663860785455159800,4.938159912109375,-40.75469970703125,1.9195556640625,75.85906982421875
1663860785475118300,4.958118408203125,-40.86761474609375,3.59954833984375,76.7822265625
1663860785495107300,4.978107421875,-41.93572998046875,3.5980224609375,76.78070068359375
1663860785515096300,4.998096435546875,-40.39764404296875,4.07562255859375,79.071044921875
1663860785535085300,5.018085205078125,-39.17999267578125,4.05426025390625,76.17645263671875
1663860785555074600,5.038074462890625,-41.91131591796875,4.656982421875,76.32904052734375
1663860785575063600,5.0580634765625,-43.43109130859375,4.94842529296875,75.26092529296875
1663860785595052500,5.078052490234375,-45.86944580078125,4.9530029296875,76.32598876953125
1663860785615041500,5.09804150390625,-47.44415283203125,2.81524658203125,75.55084228515625
1663860785635030500,5.118030517578125,-49.4384765625,2.21099853515625,76.46026611328125
1663860785655019500,5.13801953125,-51.2603759765625,2.6519775390625,75.0885009765625
1663860785675008500,5.158008544921875,-53.22113037109375,3.558349609375,74.93896484375
1663860785694997500,5.17799755859375,-54.65240478515625,0.9674072265625,74.46746826171875
1663860785715017000,5.198016845703125,-58.49761962890625,-0.5401611328125,76.89361572265625
1663860785734975500,5.2179755859375,-58.49609375,-0.531005859375,77.960205078125
1663860785754964500,5.237964599609375,-62.14447021484375,-0.0762939453125,78.72161865234375
1663860785775228200,5.258228271484375,-61.8927001953125,-2.3681640625,77.18658447265625
1663860785795125800,5.278125732421875,-63.89312744140625,-3.26080322265625,79.9224853515625
1663860785814962200,5.297962158203125,-63.73291015625,-2.95562744140625,80.07659912109375
1663860785834920700,5.317920654296875,-63.46893310546875,-4.64019775390625,78.54461669921875
1663860785854940200,5.337940185546875,-64.2120361328125,-3.86505126953125,80.37567138671875
1663860785874898700,5.357898681640625,-64.24102783203125,-5.09185791015625,79.150390625
1663860785894887700,5.3778876953125,-66.082763671875,-5.6976318359375,79.90875244140625
1663860785914876700,5.397876708984375,-66.05072021484375,-4.31976318359375,80.9814453125
1663860785934865700,5.41786572265625,-66.8548583984375,-6.14013671875,81.73370361328125
1663860785954854700,5.437854736328125,-67.3309326171875,-7.0465087890625,82.33795166015625
1663860785974843600,5.45784375,-68.988037109375,-6.1370849609375,82.49359130859375
1663860785994832600,5.47783251953125,-67.034912109375,-7.35626220703125,81.57501220703125
1663860786014821600,5.497821533203125,-67.34619140625,-7.66143798828125,81.573486328125
1663860786034811000,5.517810791015625,-66.09954833984375,-6.451416015625,80.66558837890625
1663860786054800000,5.5377998046875,-64.37530517578125,-4.45709228515625,82.354736328125
1663860786074788900,5.557788818359375,-61.48223876953125,-4.48150634765625,78.70025634765625
1663860786094777900,5.57777783203125,-59.3048095703125,-2.64739990234375,79.473876953125
1663860786114766800,5.597766845703125,-56.573486328125,-3.23944091796875,80.69305419921875
1663860786134755800,5.617755859375,-53.35235595703125,-2.47039794921875,81.00433349609375
1663860786154744800,5.637744873046875,-48.44970703125,-1.52740478515625,83.453369140625
1663860786174733800,5.65773388671875,-45.40252685546875,-1.66168212890625,84.82818603515625
1663860786194722800,5.677722900390625,-42.81158447265625,-1.67083740234375,83.001708984375
1663860786214711800,5.6977119140625,-40.23590087890625,-2.4261474609375,83.001708984375
1663860786234700800,5.71770068359375,-38.66729736328125,-0.4486083984375,82.708740234375
1663860786254690000,5.73768994140625,-37.31689453125,-1.37481689453125,80.72357177734375
1663860786274679000,5.757678955078125,-35.34698486328125,-1.8341064453125,79.8095703125
1663860786294637300,5.77763720703125,-33.990478515625,-2.58941650390625,80.1116943359375
1663860786314657000,5.797656982421875,-32.3272705078125,-3.18756103515625,80.72052001953125
1663860786334646000,5.81764599609375,-33.20465087890625,-1.5228271484375,80.1177978515625
1663860786354635000,5.837635009765625,-33.3770751953125,-2.43072509765625,80.72357177734375
1663860786374624000,5.8576240234375,-34.1064453125,-0.9246826171875,79.205322265625
1663860786394613000,5.877613037109375,-35.198974609375,-1.995849609375,78.5888671875
1663860786414602000,5.89760205078125,-36.08551025390625,-0.78125,78.74755859375
1663860786434591000,5.917591064453125,-37.89215087890625,0.27313232421875,77.9876708984375
1663860786454580000,5.937580078125,-41.23077392578125,1.02386474609375,77.8350830078125
1663860786474569000,5.95756884765625,-41.53900146484375,0.86669921875,77.2247314453125
1663860786494558200,5.97755810546875,-41.88232421875,-0.8056640625,77.215576171875
1663860786514547200,5.997547119140625,-40.6646728515625,-0.95062255859375,77.825927734375
1663860786534536200,6.0175361328125,-39.73236083984375,-0.05645751953125,75.3936767578125
1663860786554525200,6.037525146484375,-38.05694580078125,-0.19378662109375,76.7669677734375
1663860786574514200,6.05751416015625,-38.09051513671875,-1.70440673828125,77.825927734375
1663860786594503200,6.077503173828125,-37.61444091796875,-0.8056640625,76.153564453125
1663860786614492200,6.0974921875,-36.4349365234375,-2.630615234375,75.84228515625
1663860786634481200,6.117481201171875,-37.13836669921875,-0.03662109375,77.2247314453125
1663860786654470100,6.13747021484375,-38.4063720703125,-2.03704833984375,74.47052001953125
1663860786674764300,6.157764404296875,-40.0787353515625,-1.88140869140625,75.384521484375
1663860786694539800,6.177539794921875,-40.972900390625,-0.97503662109375,74.9298095703125
1663860786714437000,6.19743701171875,-43.71490478515625,-0.82550048828125,75.384521484375
1663860786734426400,6.21742626953125,-46.3134765625,-1.13525390625,75.3814697265625
1663860786754415400,6.237415283203125,-46.46453857421875,-0.99945068359375,73.39935302734375
1663860786774404400,6.257404296875,-49.3621826171875,-1.00555419921875,73.39630126953125
1663860786794393300,6.277393310546875,-49.51629638671875,-1.1474609375,74.615478515625
1663860786814382300,6.29738232421875,-51.34735107421875,-1.1627197265625,73.24066162109375
1663860786834371300,6.317371337890625,-51.84326171875,-2.838134765625,73.0804443359375
1663860786854329900,6.337329833984375,-52.71759033203125,-1.14898681640625,75.37384033203125
1663860786874349300,6.357349365234375,-53.82843017578125,-2.98309326171875,74.29656982421875
1663860786894338300,6.37733837890625,-54.58984375,-2.98309326171875,74.6002197265625
1663860786914327300,6.397327392578125,-53.38287353515625,-3.5736083984375,76.275634765625
1663860786934316300,6.41731640625,-55.69000244140625,-4.4891357421875,76.42059326171875
1663860786954305300,6.43730517578125,-55.523681640625,-3.875732421875,77.03399658203125
1663860786974294500,6.45729443359375,-55.8441162109375,-4.62799072265625,78.09600830078125
1663860786994283500,6.477283447265625,-55.43212890625,-6.6009521484375,78.23944091796875
1663860787014272500,6.4972724609375,-55.389404296875,-4.77294921875,78.704833984375
1663860787034292000,6.5172919921875,-54.1473388671875,-3.851318359375,79.62646484375
1663860787054250500,6.53725048828125,-53.6895751953125,-3.84368896484375,80.38787841796875
1663860787074239500,6.557239501953125,-53.37066650390625,-3.23486328125,80.39093017578125
1663860787094228500,6.577228515625,-52.789306640625,-4.4525146484375,80.0811767578125
1663860787114217500,6.597217529296875,-53.3782958984375,-3.5430908203125,79.93316650390625
1663860787134206500,6.61720654296875,-50.006103515625,-2.77862548828125,79.6356201171875
1663860787154195500,6.637195556640625,-46.4691162109375,-1.41143798828125,78.5797119140625
1663860787174154000,6.657154052734375,-45.42388916015625,-2.45361328125,81.01348876953125
1663860787194173400,6.67717333984375,-41.864013671875,-0.0335693359375,78.7445068359375
1663860787214162700,6.69716259765625,-37.9547119140625,-2.593994140625,80.56488037109375
1663860787234151700,6.717151611328125,-35.986328125,-3.1890869140625,81.4788818359375
1663860787254140700,6.737140625,-33.11767578125,-4.53643798828125,83.3038330078125
1663860787274129700,6.757129638671875,-30.98602294921875,-4.55322265625,80.7159423828125
1663860787294118700,6.77711865234375,-27.33612060546875,-4.998779296875,81.02264404296875
1663860787314107600,6.797107666015625,-25.34637451171875,-4.69207763671875,80.87310791015625
1663860787334096600,6.8170966796875,-24.9542236328125,-7.574462890625,81.317138671875
1663860787354085600,6.837085693359375,-21.8902587890625,-6.8267822265625,79.1900634765625
1663860787374074600,6.85707470703125,-21.612548828125,-8.16802978515625,82.232666015625
1663860787394063600,6.877063720703125,-20.6695556640625,-6.9488525390625,82.391357421875
1663860787414052600,6.897052490234375,-20.55206298828125,-8.46710205078125,82.53631591796875
1663860787434041900,6.917041748046875,-20.72296142578125,-9.3719482421875,83.44573974609375
1663860787454030800,6.93703076171875,-20.7183837890625,-9.0789794921875,82.0770263671875
1663860787474019800,6.957019775390625,-21.74835205078125,-7.5408935546875,84.521484375
1663860787494008800,6.9770087890625,-23.7152099609375,-6.8023681640625,82.5408935546875
1663860787513997800,6.996997802734375,-24.3194580078125,-6.500244140625,82.38983154296875
1663860787533986800,7.01698681640625,-26.41143798828125,-4.67529296875,83.15887451171875
1663860787554250500,7.03725048828125,-27.1514892578125,-3.619384765625,82.4005126953125
1663860787574178600,7.057178466796875,-31.072998046875,-1.800537109375,82.71026611328125
1663860787593953800,7.076953857421875,-28.21197509765625,-3.3233642578125,81.63909912109375
1663860787613942800,7.09694287109375,-26.39923095703125,-4.0740966796875,82.39898681640625
1663860787633931800,7.116931884765625,-23.54736328125,-6.1767578125,84.52606201171875
1663860787653951500,7.136951416015625,-24.609375,-5.89141845703125,82.696533203125
1663860787673910000,7.156909912109375,-27.65045166015625,-5.5755615234375,84.82818603515625
1663860787693868300,7.176868408203125,-24.32861328125,-6.94732666015625,83.45489501953125
1663860787713949000,7.196948974609375,-23.22540283203125,-5.42144775390625,83.9202880859375
1663860787733877000,7.216876953125,-26.71661376953125,-4.67376708984375,83.4625244140625
1663860787753866000,7.236865966796875,-25.75836181640625,-2.7099609375,81.79779052734375
1663860787773855000,7.25685498046875,-26.24053955078125,-3.7750244140625,81.79168701171875
1663860787793844000,7.276843994140625,-29.5928955078125,-3.63922119140625,80.5694580078125
1663860787813833000,7.2968330078125,-29.229736328125,-1.0589599609375,80.12542724609375
1663860787833822000,7.316822021484375,-31.35833740234375,-0.76904296875,79.05731201171875
1663860787853811000,7.33681103515625,-33.20465087890625,-1.5289306640625,79.50897216796875
1663860787873769500,7.35676953125,-35.80780029296875,-1.86309814453125,76.4556884765625
1663860787893789000,7.376788818359375,-34.698486328125,-0.0335693359375,76.922607421875
1663860787913778200,7.396778076171875,-36.81793212890625,0.57830810546875,77.99072265625
1663860787933767200,7.41676708984375,-38.95416259765625,0.5615234375,76.46484375
1663860787953756200,7.436756103515625,-40.78369140625,0.5645751953125,77.2247314453125
1663860787973745200,7.4567451171875,-43.04351806640625,1.77154541015625,76.77001953125
1663860787993734100,7.476734130859375,-43.51043701171875,1.32293701171875,77.8350830078125
1663860788013723100,7.49672314453125,-44.14215087890625,0.41046142578125,77.8289794921875
1663860788033712000,7.516712158203125,-43.9910888671875,0.2685546875,79.04815673828125
1663860788053670700,7.536670654296875,-45.65887451171875,0.72021484375,78.89556884765625
1663860788073690000,7.556690185546875,-44.4427490234375,0.5645751953125,78.2867431640625
1663860788093679000,7.57667919921875,-47.63031005859375,1.17340087890625,79.04815673828125
1663860788113668000,7.596668212890625,-46.26312255859375,0.87890625,79.8095703125
1663860788133657000,7.616656982421875,-46.2554931640625,1.19171142578125,80.87921142578125
1663860788153615600,7.63661572265625,-44.5831298828125,1.03302001953125,79.6600341796875
1663860788173635300,7.65663525390625,-43.341064453125,1.96075439453125,81.34307861328125
1663860788193624300,7.676624267578125,-43.341064453125,1.95465087890625,80.5816650390625
1663860788213613300,7.69661328125,-42.4560546875,0.7232666015625,78.594970703125
1663860788233602300,7.716602294921875,-39.990234375,1.9378662109375,77.6885986328125
1663860788253591300,7.73659130859375,-37.85400390625,1.953125,79.06341552734375
1663860788273580300,7.756580322265625,-36.810302734375,0.885009765625,78.29742431640625
1663860788293569300,7.7765693359375,-33.7646484375,0.7354736328125,77.84271240234375
1663860788313558300,7.796558349609375,-28.91845703125,-0.7598876953125,79.5166015625
1663860788333547300,7.81654736328125,-26.66473388671875,-2.26898193359375,80.12237548828125
1663860788353536300,7.836536376953125,-25.62255859375,-3.34320068359375,78.74603271484375
1663860788373525200,7.856525146484375,-22.45025634765625,-4.69207763671875,80.11474609375
1663860788393514500,7.876514404296875,-19.720458984375,-5.30548095703125,78.89556884765625
1663860788413503500,7.89650341796875,-19.61212158203125,-7.275390625,79.4952392578125
1663860788433492500,7.916492431640625,-17.05474853515625,-8.79364013671875,79.034423828125
1663860788453817000,7.936817138671875,-15.37017822265625,-8.477783203125,79.95147705078125
1663860788473592600,7.956592529296875,-15.84320068359375,-9.23309326171875,80.7098388671875
1663860788493459500,7.97645947265625,-15.11383056640625,-10.73760986328125,82.2265625
1663860788513448400,7.996448486328125,-13.74053955078125,-10.7330322265625,82.53326416015625
1663860788533437400,8.0164375,-13.87939453125,-10.125732421875,82.38372802734375
1663860788553396000,8.03639599609375,-14.7979736328125,-10.2752685546875,82.99102783203125
1663860788573415400,8.05641552734375,-15.997314453125,-9.36431884765625,83.14666748046875
1663860788593404400,8.076404296875,-16.1285400390625,-8.44879150390625,83.6090087890625
1663860788613393400,8.096393310546874,-19.43511962890625,-6.33392333984375,83.00628662109375
1663860788633382700,8.116382568359375,-21.1151123046875,-6.3568115234375,80.71746826171875
1663860788653341000,8.1363408203125,-22.9248046875,-5.572509765625,84.0728759765625
1663860788673360600,8.156360595703125,-23.5565185546875,-6.50177001953125,82.086181640625
1663860788693349600,8.176349609375,-19.56787109375,-5.42755126953125,82.4005126953125
1663860788713338600,8.196338623046875,-21.4447021484375,-7.550048828125,83.45489501953125
1663860788733327600,8.21632763671875,-22.039794921875,-6.9305419921875,84.98077392578125
1663860788753316600,8.236316650390625,-20.35064697265625,-6.46820068359375,85.29052734375
1663860788773305600,8.2563056640625,-20.49560546875,-6.03179931640625,83.00628662109375
1663860788793294600,8.276294677734375,-20.9564208984375,-6.18743896484375,82.6995849609375
1663860788813283600,8.29628369140625,-21.08306884765625,-4.97894287109375,81.79168701171875
1663860788833242000,8.3162421875,-20.94879150390625,-5.87005615234375,84.2254638671875
1663860788853261800,8.33626171875,-21.54693603515625,-5.28717041015625,81.4849853515625
1663860788873250800,8.356250732421875,-23.211669921875,-4.6875,80.87615966796875
1663860788893239800,8.37623974609375,-21.66595458984375,-3.64532470703125,77.9876708984375
1663860788913228800,8.396228759765625,-26.3427734375,-1.51214599609375,79.82177734375
1663860788933217800,8.4162177734375,-28.192138671875,-2.288818359375,78.29132080078125
1663860788953206800,8.436206787109375,-28.91845703125,-0.7659912109375,78.75518798828125
1663860788973195800,8.45619580078125,-31.4971923828125,-0.164794921875,78.60260009765625
1663860788993184800,8.476184814453125,-34.39483642578125,-0.1678466796875,78.90472412109375
1663860789013173800,8.496173828125,-35.44921875,0.43487548828125,78.60107421875
1663860789033162800,8.516162841796875,-35.4278564453125,1.3519287109375,79.21600341796875
1663860789053151700,8.53615185546875,-38.35906982421875,-0.1800537109375,78.594970703125
1663860789073140700,8.556140625,-37.872314453125,1.177978515625,77.2308349609375
1663860789093130000,8.5761298828125,-39.5355224609375,1.78985595703125,78.1463623046875
1663860789113119000,8.596118896484375,-39.9871826171875,1.953125,79.51812744140625
1663860789133108000,8.61610791015625,-41.22161865234375,1.3397216796875,79.2083740234375
1663860789153097000,8.636096923828125,-39.55230712890625,1.03607177734375,78.90472412109375
1663860789173086000,8.6560859375,-43.98193359375,0.58746337890625,80.877685546875
1663860789193075000,8.676074951171875,-43.52264404296875,0.73394775390625,79.9652099609375
1663860789213064000,8.69606396484375,-42.61016845703125,0.58135986328125,79.8126220703125
1663860789233053000,8.716052978515625,-42.11578369140625,2.252197265625,79.5166015625
1663860789253042000,8.7360419921875,-42.12799072265625,1.65252685546875,80.58013916015625
1663860789273031000,8.756031005859375,-41.9677734375,2.09503173828125,78.90625
1663860789293020000,8.77602001953125,-37.24212646484375,2.0965576171875,77.84576416015625
1663860789313009000,8.7960087890625,-35.87646484375,1.79595947265625,77.84576416015625
1663860789333303300,8.81630322265625,-33.9263916015625,0.286865234375,78.75518798828125
1663860789353231000,8.836231201171875,-31.48345947265625,0.4425048828125,78.60565185546875
1663860789373006600,8.856006591796875,-27.227783203125,-0.1556396484375,78.607177734375
1663860789392965000,8.875965087890625,-25.45623779296875,-2.73590087890625,78.59649658203125
1663860789412954000,8.8959541015625,-21.97265625,-3.6590576171875,76.46331787109375
1663860789432943000,8.915943115234375,-21.54388427734375,-5.0018310546875,79.19921875
1663860789452932000,8.93593212890625,-17.1875,-7.8826904296875,78.88641357421875
1663860789472921000,8.955921142578125,-15.1824951171875,-6.96258544921875,79.50286865234375
1663860789492910000,8.97591015625,-16.30859375,-9.42230224609375,76.4404296875
1663860789512899000,8.995899169921875,-12.9669189453125,-10.01129150390625,77.813720703125
1663860789532888000,9.01588818359375,-12.80059814453125,-9.4085693359375,77.2064208984375
1663860789552877000,9.035876953125,-11.7431640625,-9.85260009765625,78.27301025390625
1663860789572835600,9.055835693359375,-10.3790283203125,-10.29205322265625,79.94842529296875
1663860789592855300,9.075855224609375,-12.5640869140625,-12.56256103515625,81.45904541015625
1663860789612844300,9.09584423828125,-12.06207275390625,-10.58807373046875,81.317138671875
1663860789632833300,9.115833251953125,-12.1917724609375,-9.66796875,82.2357177734375
1663860789652822300,9.135822265625,-15.386962890625,-9.234619140625,80.4046630859375
1663860789672811300,9.155811279296875,-16.70684814453125,-6.95648193359375,80.56793212890625
1663860789692800300,9.17580029296875,-19.12994384765625,-6.201171875,80.56793212890625
1663860789712789200,9.195789306640625,-19.88983154296875,-6.18438720703125,82.70111083984375
1663860789732778200,9.2157783203125,-19.091796875,-4.656982421875,83.4716796875
1663860789752767200,9.235767333984375,-17.73681640625,-5.413818359375,83.4686279296875
1663860789772756200,9.255756103515624,-17.0074462890625,-6.92596435546875,84.22393798828125
1663860789792745200,9.2757451171875,-17.0623779296875,-9.35211181640625,84.97467041015625
1663860789812734500,9.295734375,-19.451904296875,-7.09075927734375,83.306884765625
1663860789832723500,9.315723388671875,-20.09124755859375,-8.447265625,84.8236083984375
1663860789852712400,9.33571240234375,-18.817138671875,-5.88836669921875,81.6375732421875
1663860789872701400,9.355701416015625,-17.9107666015625,-6.33392333984375,82.550048828125
1663860789892690400,9.3756904296875,-19.5770263671875,-5.87615966796875,83.160400390625
1663860789912679400,9.395679443359375,-20.7916259765625,-5.58929443359375,81.48345947265625
1663860789932668400,9.41566845703125,-21.05712890625,-3.77197265625,80.72967529296875
1663860789952657400,9.435657470703125,-20.7794189453125,-4.9896240234375,80.419921875
1663860789972646400,9.455646484375,-23.9410400390625,-3.1768798828125,79.96826171875
1663860789992635400,9.475635498046875,-25.26092529296875,-0.76751708984375,77.691650390625
1663860790012624400,9.495624267578124,-28.4393310546875,0.27923583984375,76.4739990234375
1663860790032613600,9.515613525390625,-28.11431884765625,1.1871337890625,75.8697509765625
1663860790052602600,9.5356025390625,-31.4788818359375,0.73394775390625,77.08282470703125
1663860790072591600,9.555591552734375,-33.8897705078125,1.953125,78.00140380859375
1663860790092580600,9.57558056640625,-32.80487060546875,2.71453857421875,78.0059814453125
1663860790112569600,9.595569580078125,-35.85205078125,2.8533935546875,77.08892822265625
1663860790132558600,9.61555859375,-36.944580078125,1.78375244140625,76.77764892578125
1663860790152517000,9.63551708984375,-36.74163818359375,4.0557861328125,75.87432861328125
1663860790172536600,9.65553662109375,-38.1439208984375,2.69775390625,77.2369384765625
1663860790192525600,9.675525634765625,-38.897705078125,3.0120849609375,78.7628173828125
1663860790212514600,9.6955146484375,-40.8477783203125,4.3792724609375,79.2236328125
1663860790232870000,9.715869873046875,-41.16973876953125,3.619384765625,79.2205810546875
1663860790252614700,9.73561474609375,-42.523193359375,4.52117919921875,78.30810546875
1663860790272481800,9.755481689453125,-41.42913818359375,5.60302734375,80.14373779296875
1663860790292501200,9.775501220703125,-40.7257080078125,3.01513671875,79.522705078125
1663860790312459800,9.795459716796875,-41.1376953125,4.99725341796875,80.44586181640625
1663860790332479200,9.815479248046875,-41.6107177734375,4.3731689453125,78.61328125
1663860790352437800,9.835437744140625,-38.87481689453125,4.06341552734375,77.2430419921875
1663860790372426800,9.8554267578125,-39.01214599609375,4.67681884765625,77.8564453125
1663860790392446200,9.8754462890625,-35.21575927734375,4.0679931640625,76.94244384765625
1663860790412435200,9.895435302734375,-33.1207275390625,2.25830078125,78.0029296875
1663860790432393700,9.915393798828125,-31.73065185546875,3.021240234375,78.009033203125
1663860790452382700,9.9353828125,-27.18353271484375,1.8157958984375,78.16009521484375
1663860790472371700,9.955371826171875,-21.0296630859375,-2.4322509765625,77.3834228515625
1663860790492422000,9.975421875,-16.998291015625,-6.231689453125,76.4556884765625
1663860790512380400,9.99538037109375,-18.04656982421875,-5.45501708984375,78.7445068359375
1663860790532369400,10.015369384765625,-16.5863037109375,-8.20770263671875,76.2939453125
1663860790552358400,10.0353583984375,-15.0604248046875,-8.2000732421875,76.75323486328125
1663860790572347400,10.055347412109375,-15.36407470703125,-8.18328857421875,78.88641357421875
1663860790592306000,10.075305908203125,-13.3941650390625,-8.77227783203125,80.56182861328125
1663860790612295000,10.095294921875,-13.0950927734375,-9.075927734375,80.560302734375
1663860790632284000,10.115283935546875,-13.31024169921875,-11.80877685546875,81.00433349609375
1663860790652273000,10.13527294921875,-12.10784912109375,-12.69989013671875,83.13446044921875
1663860790672262000,10.155261962890625,-12.08648681640625,-11.65771484375,80.54962158203125
1663860790692251000,10.1752509765625,-13.45977783203125,-11.6607666015625,80.548095703125
1663860790712239900,10.195239990234375,-14.154052734375,-8.758544921875,82.38983154296875
1663860790732228900,10.215228759765624,-15.82489013671875,-8.46710205078125,81.475830078125
1663860790752218000,10.235218017578125,-19.134521484375,-6.49566650390625,81.63299560546875
1663860790772176400,10.25517626953125,-20.0225830078125,-5.28411865234375,81.48651123046875
1663860790792196000,10.275196044921875,-20.80841064453125,-6.34307861328125,82.2418212890625
1663860790812185000,10.29518505859375,-20.6512451171875,-6.1767578125,83.91876220703125
1663860790832174000,10.315174072265625,-17.4713134765625,-7.22503662109375,84.9853515625
1663860790852163000,10.3351630859375,-18.27392578125,-8.90960693359375,83.60443115234375
1663860790872121600,10.35512158203125,-17.8009033203125,-8.28857421875,84.979248046875
1663860790892141000,10.37514111328125,-18.1060791015625,-8.29620361328125,84.21630859375
1663860790912130000,10.395130126953125,-17.645263671875,-8.14208984375,84.37042236328125
1663860790932119000,10.415119140625,-16.619873046875,-9.9639892578125,84.36279296875
1663860790952108000,10.43510791015625,-18.29681396484375,-9.967041015625,84.36126708984375
1663860790972097000,10.455096923828124,-19.77386474609375,-7.843017578125,84.368896484375
1663860790992086300,10.475086181640625,-19.74945068359375,-6.7779541015625,84.375
1663860791012075300,10.4950751953125,-20.32623291015625,-5.14373779296875,80.11474609375
1663860791032064300,10.515064208984375,-22.30987548828125,-5.28564453125,81.78863525390625
1663860791052053200,10.53505322265625,-24.3865966796875,-2.7099609375,81.494140625
1663860791072042200,10.555042236328125,-24.67803955078125,-1.9775390625,78.14483642578125
1663860791092031200,10.57503125,-26.77001953125,-0.152587890625,78.912353515625
1663860791112355800,10.59535595703125,-27.67486572265625,0.30670166015625,79.52423095703125
1663860791132284000,10.615283935546875,-30.2581787109375,0.616455078125,80.89447021484375
1663860791152028700,10.635028564453124,-32.08770751953125,0.616455078125,81.34918212890625
1663860791171987200,10.6549873046875,-33.77532958984375,0.152587890625,80.73577880859375
1663860791192007000,10.6750068359375,-34.2254638671875,0.59356689453125,79.06036376953125
1663860791211965400,10.69496533203125,-35.8856201171875,1.3458251953125,78.60565185546875
1663860791231985000,10.71498486328125,-38.78936767578125,1.03759765625,78.90472412109375
1663860791251943400,10.734943359375,-38.02642822265625,1.03912353515625,78.90625
1663860791271932400,10.754932373046875,-38.031005859375,0.750732421875,80.73272705078125
1663860791291921400,10.77492138671875,-39.0869140625,1.34124755859375,78.90625
1663860791311910400,10.794910400390625,-41.24298095703125,0.42724609375,79.20379638671875
1663860791331899400,10.8148994140625,-39.20745849609375,2.72369384765625,80.58929443359375
1663860791351888400,10.834888427734375,-40.936279296875,0.43487548828125,79.96673583984375
1663860791371877400,10.85487744140625,-40.625,0.73699951171875,79.6630859375
1663860791391836000,10.8748359375,-40.61737060546875,1.043701171875,79.96978759765625
1663860791411855400,10.89485546875,-38.92822265625,1.6387939453125,77.9937744140625
1663860791431844400,10.91484423828125,-37.68768310546875,2.557373046875,78.60870361328125
1663860791451833600,10.93483349609375,-37.48931884765625,4.541015625,79.53338623046875
1663860791471822600,10.954822509765625,-33.75701904296875,1.05133056640625,79.21600341796875
1663860791491811600,10.9748115234375,-31.3201904296875,0.9033203125,79.06494140625
1663860791511800600,10.994800537109375,-29.0924072265625,-1.67388916015625,79.20684814453125
1663860791531820000,11.014820068359375,-24.86572265625,-3.63006591796875,80.57403564453125
1663860791551778600,11.034778564453125,-22.46246337890625,-5.1666259765625,77.978515625
1663860791571767600,11.054767578125,-19.59381103515625,-6.51092529296875,80.108642578125
1663860791591756500,11.074756591796875,-17.9229736328125,-6.8084716796875,80.413818359375
1663860791611745500,11.09474560546875,-17.21038818359375,-8.9447021484375,79.18548583984375
1663860791631734500,11.114734619140625,-14.7705078125,-8.935546875,79.644775390625
1663860791651723500,11.1347236328125,-15.08331298828125,-9.2437744140625,79.18548583984375
1663860791671712500,11.15471240234375,-13.76800537109375,-11.81488037109375,80.39398193359375
1663860791691701800,11.17470166015625,-12.35809326171875,-10.14251708984375,80.0994873046875
1663860791711690800,11.194690673828125,-14.68353271484375,-11.94610595703125,83.135986328125
1663860791731679700,11.2146796875,-13.31329345703125,-12.08648681640625,84.051513671875
1663860791751668700,11.234668701171875,-13.13323974609375,-10.87188720703125,83.905029296875
1663860791771657700,11.25465771484375,-14.07012939453125,-11.79962158203125,82.2235107421875
1663860791791646700,11.274646728515625,-16.156005859375,-9.66949462890625,82.9925537109375
1663860791811635700,11.2946357421875,-18.0267333984375,-4.67071533203125,81.6436767578125
1663860791831624700,11.314624755859375,-19.56939697265625,-5.44586181640625,80.11474609375
1663860791851613700,11.33461376953125,-22.7874755859375,-6.19659423828125,82.08770751953125
1663860791871602700,11.354602783203125,-20.3399658203125,-5.88531494140625,82.3974609375
1663860791891591700,11.374591796875,-18.98651123046875,-6.77642822265625,84.375
1663860791911550200,11.39455029296875,-18.0999755859375,-7.9986572265625,83.4564208984375
1663860791931570000,11.41456982421875,-18.8507080078125,-7.53173828125,84.9822998046875
1663860791951559000,11.434558837890625,-19.927978515625,-7.989501953125,84.97772216796875
1663860791971548000,11.4545478515625,-17.669677734375,-9.20562744140625,84.3658447265625
1663860791991537000,11.474536865234375,-18.54705810546875,-7.537841796875,84.2193603515625
1663860792011770000,11.49477001953125,-18.99566650390625,-7.098388671875,82.24029541015625
1663860792031667500,11.51466748046875,-18.68133544921875,-6.77642822265625,84.37652587890625
1663860792051503900,11.53450390625,-19.44580078125,-6.793212890625,82.54547119140625
1663860792071523300,11.5545234375,-21.68731689453125,-4.6905517578125,80.11627197265625
1663860792091512300,11.57451220703125,-23.94866943359375,-3.48968505859375,78.900146484375
1663860792111470800,11.594470947265625,-26.05438232421875,-2.26898193359375,80.12237548828125
1663860792131459800,11.6144599609375,-28.631591796875,-1.65863037109375,81.036376953125
1663860792151418400,11.63441845703125,-29.52880859375,-0.77056884765625,78.29742431640625
1663860792171438000,11.65443798828125,-31.94732666015625,0.140380859375,78.90777587890625
1663860792191427000,11.674427001953125,-32.550048828125,0.45013427734375,79.67071533203125
1663860792211416000,11.694416015625,-33.9263916015625,0.2899169921875,79.058837890625
1663860792231405000,11.714405029296875,-36.9415283203125,1.80511474609375,79.21600341796875
1663860792251394000,11.73439404296875,-36.94305419921875,1.79290771484375,77.84423828125
1663860792271383000,11.754383056640625,-38.74359130859375,3.14483642578125,76.324462890625
1663860792291372000,11.7743720703125,-38.60015869140625,2.69622802734375,77.2369384765625
1663860792311361000,11.794361083984375,-40.16265869140625,1.03302001953125,78.5980224609375
1663860792331350000,11.81435009765625,-40.8843994140625,2.84881591796875,77.84423828125
1663860792351339000,11.834339111328125,-43.51654052734375,1.0284423828125,78.900146484375
1663860792371328000,11.854327880859374,-43.49212646484375,2.08892822265625,78.59954833984375
1663860792391317000,11.87431689453125,-42.57354736328125,2.25372314453125,79.82177734375
1663860792411275500,11.894275634765625,-42.3919677734375,3.607177734375,78.1524658203125
1663860792431295200,11.914295166015625,-43.9178466796875,3.4637451171875,79.52117919921875
1663860792451284200,11.9342841796875,-41.9647216796875,2.11029052734375,80.73577880859375
1663860792471273200,11.954273193359375,-41.4825439453125,3.44085693359375,76.17034912109375
1663860792491262200,11.97426220703125,-39.984130859375,2.23541259765625,76.9287109375
1663860792511220700,11.994220703125,-37.50152587890625,4.06646728515625,77.24456787109375
1663860792531240200,12.014240234375,-36.8133544921875,0.86517333984375,75.85906982421875
1663860792551229200,12.034229248046875,-32.54547119140625,0.73394775390625,77.386474609375
1663860792571218200,12.05421826171875,-29.32891845703125,1.35498046875,78.155517578125
1663860792591207200,12.074207275390625,-26.6754150390625,-2.60467529296875,76.4617919921875
1663860792611196200,12.094196044921874,-23.17352294921875,-2.88543701171875,78.29437255859375
1663860792631185400,12.114185302734375,-22.91717529296875,-5.0140380859375,78.131103515625
1663860792651174400,12.13417431640625,-19.5648193359375,-5.1544189453125,78.7445068359375
1663860792671160800,12.154160888671875,-16.83197021484375,-5.6121826171875,77.83050537109375
1663860792691149800,12.17414990234375,-15.01312255859375,-6.072998046875,76.763916015625
1663860792711138800,12.194138916015625,-15.37017822265625,-8.4869384765625,78.8848876953125
1663860792731127800,12.2141279296875,-14.81781005859375,-11.06109619140625,79.93927001953125
1663860792751116800,12.23411669921875,-14.3707275390625,-11.51580810546875,79.937744140625
1663860792771105800,12.254105712890626,-13.14239501953125,-11.18927001953125,82.379150390625
1663860792791094800,12.2740947265625,-11.9293212890625,-11.4959716796875,81.77032470703125
1663860792811084000,12.294083984375,-12.85552978515625,-11.9537353515625,81.6131591796875
1663860792831073000,12.314072998046875,-14.07012939453125,-11.79351806640625,82.98492431640625
1663860792851062000,12.33406201171875,-16.15447998046875,-9.661865234375,84.05914306640625
1663860792871051000,12.354051025390625,-16.5863037109375,-8.453369140625,83.3038330078125
1663860792891040000,12.3740400390625,-18.829345703125,-6.48956298828125,82.39593505859375
1663860792911303700,12.3943037109375,-20.91522216796875,-4.36553955078125,82.403564453125
1663860792931079000,12.414078857421876,-20.97320556640625,-6.9427490234375,83.15277099609375
1663860792951007000,12.434007080078125,-18.994140625,-7.0831298828125,84.06982421875
1663860792970996000,12.453995849609376,-16.71600341796875,-7.53326416015625,84.222412109375
1663860792990985000,12.47398486328125,-18.0877685546875,-7.53021240234375,84.9822998046875
1663860793011004700,12.494004638671875,-16.88385009765625,-8.14361572265625,84.0667724609375
1663860793030963000,12.513962890625,-15.7745361328125,-6.3140869140625,84.381103515625
1663860793050952200,12.5339521484375,-17.60406494140625,-6.32476806640625,83.61663818359375
1663860793070941200,12.553941162109375,-19.44427490234375,-6.781005859375,84.06982421875
1663860793090930200,12.57393017578125,-20.53680419921875,-7.855224609375,82.99713134765625
1663860793110919200,12.593919189453125,-19.390869140625,-4.23126220703125,79.96826171875
1663860793130908200,12.613908203125,-23.20709228515625,-4.40521240234375,78.2867431640625
1663860793150897200,12.633897216796875,-26.3671875,-2.5726318359375,80.120849609375
1663860793170886100,12.65388623046875,-26.46484375,-0.14495849609375,79.67529296875
1663860793190875100,12.673875244140625,-29.38079833984375,-0.92010498046875,78.60107421875
1663860793210864000,12.693864013671876,-31.9366455078125,0.73394775390625,77.08282470703125
1663860793230853000,12.71385302734375,-33.89129638671875,1.9439697265625,76.93328857421875
1663860793250842000,12.733842041015626,-33.4564208984375,0.89569091796875,78.75823974609375
1663860793270800600,12.753800537109376,-36.1907958984375,1.34124755859375,78.14788818359375
1663860793290820400,12.7738203125,-37.0574951171875,3.4637451171875,77.69927978515625
1663860793310809300,12.793809326171875,-39.703369140625,1.171875,76.92413330078125
1663860793330798300,12.81379833984375,-37.969970703125,3.61480712890625,77.85186767578125
1663860793350787300,12.833787353515625,-39.227294921875,1.93939208984375,77.69012451171875
1663860793370776300,12.8537763671875,-40.91949462890625,1.324462890625,77.38037109375
1663860793390765300,12.873765380859375,-41.66259765625,2.0965576171875,78.90777587890625
1663860793410723800,12.893723876953125,-41.680908203125,1.32293701171875,77.37884521484375
1663860793430743300,12.913743408203125,-42.10662841796875,2.6947021484375,77.99530029296875
1663860793450732300,12.933732177734376,-41.02325439453125,3.4515380859375,77.23846435546875
1663860793470721300,12.95372119140625,-41.9525146484375,2.83966064453125,77.081298828125
1663860793490710300,12.973710205078126,-41.19110107421875,2.8350830078125,76.31988525390625
1663860793510699300,12.99369921875,-40.3900146484375,4.5074462890625,76.17645263671875
1663860793530688500,13.0136884765625,-40.5975341796875,2.07366943359375,76.01318359375
1663860793550646800,13.033646728515626,-38.8397216796875,5.5877685546875,77.70843505859375
1663860793570666500,13.05366650390625,-33.111572265625,2.69927978515625,76.17645263671875
1663860793590655500,13.073655517578125,-32.07855224609375,1.1810302734375,76.17034912109375
1663860793610644500,13.09364453125,-30.27496337890625,-0.01220703125,78.30047607421875
1663860793630633500,13.113633544921875,-25.68359375,0.74920654296875,77.39410400390625
1663860793650592000,13.133592041015625,-23.33984375,-3.49578857421875,78.13873291015625
1663860793670611500,13.153611572265625,-21.83380126953125,-4.26025390625,77.069091796875
1663860793690600400,13.173600341796876,-19.91424560546875,-7.0068359375,75.3814697265625
1663860793710559000,13.19355908203125,-17.05780029296875,-8.81195068359375,76.89971923828125
1663860793730578400,13.213578369140626,-17.79022216796875,-7.58819580078125,77.972412109375
1663860793750598100,13.23359814453125,-14.3157958984375,-8.953857421875,77.3590087890625
1663860793770556700,13.253556640625,-14.18304443359375,-9.8602294921875,77.96478271484375
1663860793790789600,13.27378955078125,-13.2537841796875,-9.24530029296875,78.57818603515625
1663860793810717700,13.2937177734375,-11.72943115234375,-9.37042236328125,81.3232421875
1663860793830523600,13.313523681640625,-13.87939453125,-10.125732421875,82.38372802734375
1663860793850543000,13.333543212890625,-12.52288818359375,-10.74371337890625,81.01043701171875
1663860793870501600,13.353501708984375,-13.73291015625,-10.29510498046875,80.401611328125
1663860793890490600,13.37349072265625,-15.106201171875,-10.30120849609375,79.94232177734375
1663860793910449200,13.39344921875,-16.107177734375,-7.4066162109375,81.02264404296875
1663860793930468600,13.413468505859376,-19.1619873046875,-7.57598876953125,79.79888916015625
1663860793950457600,13.43345751953125,-18.9971923828125,-7.1136474609375,80.4107666015625
1663860793970446600,13.453446533203126,-20.0225830078125,-5.28411865234375,81.48651123046875
1663860793990435800,13.473435791015625,-19.73876953125,-6.32476806640625,84.0728759765625
1663860794010424800,13.4934248046875,-17.84515380859375,-10.1348876953125,82.379150390625
1663860794030413800,13.513413818359375,-17.236328125,-10.27069091796875,84.05609130859375
1663860794050433300,13.533433349609375,-18.74847412109375,-9.6710205078125,83.599853515625
1663860794070391800,13.553391845703125,-16.91741943359375,-9.66644287109375,83.60137939453125
1663860794090380800,13.573380859375,-17.669677734375,-9.20257568359375,84.82208251953125
1663860794110369800,13.593369873046875,-16.3116455078125,-9.820556640625,83.1451416015625
1663860794130358800,13.61335888671875,-18.5882568359375,-9.36431884765625,83.90655517578125
1663860794150347800,13.63334765625,-19.04144287109375,-9.19952392578125,85.430908203125
1663860794170336800,13.653336669921876,-20.965576171875,-6.500244140625,81.6314697265625
1663860794190295300,13.67329541015625,-22.4609375,-5.1483154296875,80.1116943359375
1663860794210314800,13.693314697265626,-23.3551025390625,-4.24041748046875,79.96368408203125
1663860794230304000,13.713303955078125,-27.2857666015625,-2.7374267578125,78.900146484375
1663860794250293000,13.73329296875,-28.4698486328125,-1.07879638671875,77.68707275390625
1663860794270282000,13.753281982421875,-31.0302734375,0.286865234375,77.99530029296875
1663860794290271000,13.77327099609375,-31.07147216796875,-1.5350341796875,78.29132080078125
1663860794310260000,13.793260009765625,-34.9945068359375,0.28533935546875,78.753662109375
1663860794330249000,13.8132490234375,-34.8388671875,0.4364013671875,78.60260009765625
1663860794350238000,13.833238037109375,-34.67254638671875,1.16729736328125,75.1007080078125
1663860794370196500,13.853196533203125,-37.08648681640625,2.2430419921875,77.2369384765625
1663860794390216000,13.8732158203125,-38.31024169921875,2.081298828125,76.31988525390625
1663860794410205000,13.893204833984376,-37.99285888671875,2.55126953125,77.8472900390625
1663860794430194000,13.91319384765625,-38.92974853515625,1.63116455078125,77.2308349609375
1663860794450183000,13.933182861328126,-41.1895751953125,2.8411865234375,77.08282470703125
1663860794470172200,13.953172119140625,-41.50543212890625,2.2552490234375,79.82177734375
1663860794490161200,13.9731611328125,-42.462158203125,0.42266845703125,78.89862060546875
1663860794510150100,13.993150146484375,-41.8426513671875,0.87890625,78.74908447265625
1663860794530139100,14.01313916015625,-40.4541015625,1.63421630859375,77.99224853515625
1663860794550128000,14.033128173828125,-41.05072021484375,2.23846435546875,77.6885986328125
1663860794570117000,14.0531171875,-40.4388427734375,2.2491455078125,78.7567138671875
1663860794590106000,14.073106201171875,-38.80615234375,0.4119873046875,76.76849365234375
1663860794610095000,14.09309521484375,-35.25390625,2.25982666015625,78.7628173828125
1663860794630084000,14.113083984375,-34.22698974609375,0.57830810546875,77.23236083984375
1663860794650073000,14.133072998046876,-30.2764892578125,-0.02899169921875,76.470947265625
1663860794670062000,14.15306201171875,-27.69317626953125,-0.46844482421875,77.691650390625
1663860794690356500,14.1733564453125,-25.15411376953125,-2.75115966796875,76.76849365234375
1663860794710131700,14.193131591796876,-22.7447509765625,-4.10614013671875,77.679443359375
1663860794730029300,14.213029296875,-20.62225341796875,-4.705810546875,77.98309326171875
1663860794750018300,14.233018310546875,-20.050048828125,-6.378173828125,77.8228759765625
1663860794770037800,14.253037841796875,-16.71600341796875,-7.2723388671875,79.04205322265625
1663860794789996300,14.272996337890625,-15.3411865234375,-7.1258544921875,78.12957763671875
1663860794809985300,14.2929853515625,-14.75372314453125,-8.1756591796875,79.64935302734375
1663860794829974300,14.312974365234375,-13.8671875,-9.40093994140625,78.27301025390625
1663860794849963300,14.33296337890625,-12.5457763671875,-11.8011474609375,81.76727294921875
1663860794869952300,14.3529521484375,-13.0126953125,-12.12158203125,79.93621826171875
1663860794889941200,14.372941162109376,-12.82196044921875,-10.577392578125,82.6873779296875
1663860794909930200,14.39293017578125,-13.29193115234375,-11.04278564453125,81.77032470703125
1663860794929919200,14.412919189453126,-15.88134765625,-11.0321044921875,83.5968017578125
1663860794949908500,14.432908447265625,-15.234375,-9.36737060546875,82.6904296875
1663860794969928000,14.452927978515625,-17.1661376953125,-7.09228515625,82.5469970703125
1663860794989886500,14.472886474609375,-19.7601318359375,-7.110595703125,81.01959228515625
1663860795009875500,14.49287548828125,-20.34149169921875,-5.89141845703125,81.634521484375
1663860795029864400,14.512864501953125,-20.6695556640625,-6.94732666015625,82.696533203125
1663860795049853400,14.532853515625,-20.80841064453125,-6.34613037109375,81.78558349609375
1663860795069842400,14.552842529296875,-19.18487548828125,-8.75396728515625,84.2132568359375
1663860795089801000,14.572801025390625,-20.721435546875,-9.35211181640625,85.7330322265625
1663860795109820400,14.5928203125,-17.61932373046875,-7.0648193359375,85.89935302734375
1663860795129809400,14.612809326171876,-18.12896728515625,-9.344482421875,86.03973388671875
1663860795149798400,14.63279833984375,-17.95806884765625,-8.453369140625,83.60595703125
1663860795169787400,14.652787353515626,-17.94586181640625,-7.85675048828125,82.23724365234375
1663860795189776600,14.672776611328125,-19.62432861328125,-7.9925537109375,84.521484375
1663860795209765600,14.692765625,-20.48797607421875,-5.596923828125,80.4168701171875
1663860795229754600,14.712754638671875,-21.1090087890625,-6.060791015625,79.65240478515625
1663860795249743600,14.73274365234375,-21.8780517578125,-6.36444091796875,79.95452880859375
1663860795269732600,14.752732666015625,-24.53155517578125,-2.276611328125,78.75213623046875
1663860795289721600,14.7727216796875,-26.1932373046875,-1.66473388671875,79.66766357421875
1663860795309710600,14.792710693359375,-28.46221923828125,-0.77362060546875,77.6885986328125
1663860795329699600,14.812699462890626,-31.3751220703125,-1.519775390625,80.120849609375
1663860795349688600,14.8326884765625,-31.48956298828125,0.14495849609375,79.2144775390625
1663860795369677600,14.852677490234376,-34.06829833984375,0.74462890625,78.9093017578125
1663860795389666600,14.87266650390625,-36.97509765625,0.41656494140625,76.77001953125
1663860795409655800,14.89265576171875,-36.77825927734375,2.26287841796875,79.522705078125
1663860795429644800,14.912644775390625,-38.6199951171875,1.92108154296875,75.40435791015625
1663860795449633800,14.9326337890625,-39.53704833984375,1.78070068359375,77.07977294921875
1663860795469592300,14.95259228515625,-40.13824462890625,2.093505859375,78.1463623046875
1663860795489611800,14.97261181640625,-41.9677734375,2.08892822265625,78.14483642578125
1663860795509600800,14.992600830078125,-42.88482666015625,1.947021484375,79.51507568359375
1663860795529589800,15.01258984375,-43.4814453125,2.55126953125,79.21142578125
1663860795549578800,15.032578857421875,-42.89093017578125,1.64794921875,80.12237548828125
1663860795569842400,15.052842529296875,-42.1142578125,2.2613525390625,80.58319091796875
1663860795589770500,15.0727705078125,-42.14019775390625,1.18865966796875,79.51202392578125
1663860795609545700,15.092545654296876,-41.63665771484375,3.16925048828125,79.97894287109375
1663860795629534700,15.11253466796875,-39.52789306640625,2.1026611328125,79.2144775390625
1663860795649524000,15.13252392578125,-38.63525390625,1.17645263671875,77.22930908203125
1663860795669543400,15.15254345703125,-36.309814453125,2.72216796875,79.8309326171875
1663860795689502000,15.172501953125,-33.77838134765625,0.1373291015625,78.90625
1663860795709460500,15.19246044921875,-31.16455078125,1.05133056640625,78.60870361328125
1663860795729480000,15.21247998046875,-27.57568359375,-1.9927978515625,77.07366943359375
1663860795749469000,15.232468994140625,-23.883056640625,-0.59967041015625,79.21905517578125
1663860795769458000,15.2524580078125,-20.77178955078125,-4.55322265625,78.13568115234375
1663860795789447000,15.272447021484375,-20.92742919921875,-4.70123291015625,78.7445068359375
1663860795809436000,15.292435791015626,-19.73876953125,-6.06689453125,78.58734130859375
1663860795829425000,15.3124248046875,-19.482421875,-8.20159912109375,77.81524658203125
1663860795849414000,15.332413818359376,-15.99578857421875,-9.10491943359375,77.96630859375
1663860795869403000,15.35240283203125,-15.67230224609375,-8.33740234375,78.7322998046875
1663860795889392000,15.37239208984375,-13.43536376953125,-10.60638427734375,79.486083984375
1663860795909381000,15.392381103515625,-13.16070556640625,-11.96746826171875,80.08880615234375
1663860795929370000,15.4123701171875,-12.9791259765625,-10.7330322265625,82.2296142578125
1663860795949359000,15.432359130859375,-14.21051025390625,-11.199951171875,81.31103515625
1663860795969317600,15.452317626953125,-13.45672607421875,-11.6455078125,82.3760986328125
1663860795989337000,15.472337158203125,-14.83306884765625,-11.8011474609375,82.22198486328125
1663860796009326000,15.492326171875,-15.2374267578125,-9.38262939453125,80.8624267578125
1663860796029315000,15.512315185546875,-16.253662109375,-7.2418212890625,82.6995849609375
1663860796049304000,15.532303955078126,-20.965576171875,-6.50634765625,80.87005615234375
1663860796069293000,15.55229296875,-20.82061767578125,-6.8084716796875,81.0211181640625
1663860796089282000,15.572281982421876,-21.37908935546875,-4.66156005859375,83.4686279296875
1663860796109271000,15.59227099609375,-19.00177001953125,-7.3944091796875,83.30535888671875
1663860796129260300,15.61226025390625,-19.1986083984375,-9.36431884765625,83.905029296875
1663860796149249300,15.632249267578125,-19.1680908203125,-8.00323486328125,83.14971923828125
1663860796169238300,15.65223828125,-18.26171875,-8.447265625,84.368896484375
1663860796189227300,15.672227294921875,-17.66357421875,-8.9111328125,83.29925537109375
1663860796209216300,15.69221630859375,-18.26324462890625,-8.453369140625,83.60595703125
1663860796229205200,15.712205322265625,-19.45953369140625,-7.3944091796875,83.30535888671875
1663860796249194200,15.7321943359375,-20.819091796875,-6.7962646484375,82.5439453125
1663860796269183200,15.752183349609375,-22.34344482421875,-6.79931640625,82.54241943359375
1663860796289141800,15.772141845703125,-22.4609375,-5.157470703125,79.04510498046875
1663860796309161200,15.7921611328125,-23.345947265625,-3.79486083984375,78.59344482421875
1663860796329150200,15.812150146484376,-25.34332275390625,-4.4097900390625,78.28369140625
1663860796349108700,15.832108642578126,-28.4820556640625,-1.5472412109375,76.16119384765625
1663860796369128400,15.85212841796875,-28.91998291015625,-0.7781982421875,77.2308349609375
1663860796389117400,15.872117431640625,-30.572509765625,0.2899169921875,78.30047607421875
1663860796409106400,15.8921064453125,-31.4971923828125,-0.16021728515625,79.21295166015625
1663860796429095400,15.912095458984375,-34.3841552734375,0.4180908203125,76.31683349609375
1663860796449084400,15.93208447265625,-35.72235107421875,1.92718505859375,75.40740966796875
1663860796469409000,15.952408935546876,-37.13226318359375,0.2593994140625,76.15966796875
1663860796489154000,15.972154052734375,-38.95416259765625,0.5615234375,76.46484375
1663860796509051400,15.992051513671875,-37.86468505859375,1.61895751953125,75.40435791015625
1663860796529070800,16.01207080078125,-41.19415283203125,2.55279541015625,78.9093017578125
1663860796549029400,16.032029296875,-40.0054931640625,1.18865966796875,79.05731201171875
1663860796569018400,16.052018310546874,-41.986083984375,1.31988525390625,77.07366943359375
1663860796589007600,16.072007568359375,-41.973876953125,1.79443359375,79.20989990234375
1663860796608996600,16.09199658203125,-41.83807373046875,1.17034912109375,77.22625732421875
1663860796628985600,16.111985595703125,-42.90924072265625,0.885009765625,79.81414794921875
1663860796648974600,16.131974609375,-41.8182373046875,1.94244384765625,78.753662109375
1663860796668963600,16.151963623046875,-41.16363525390625,3.9215087890625,78.91693115234375
1663860796688952600,16.17195263671875,-41.18194580078125,3.15399169921875,78.15093994140625
1663860796708941600,16.191941650390625,-39.18609619140625,3.75823974609375,77.24151611328125
1663860796728930600,16.2119306640625,-37.7227783203125,1.031494140625,77.83966064453125
1663860796748919600,16.23191943359375,-30.45806884765625,-1.3763427734375,78.9031982421875
1663860796768908500,16.251908447265624,-28.6285400390625,-1.38092041015625,77.838134765625
1663860796788897500,16.2718974609375,-27.59246826171875,-2.7435302734375,78.13720703125
1663860796808886500,16.291886474609374,-23.49700927734375,-3.66363525390625,76.1566162109375
1663860796828875800,16.311875732421875,-22.0062255859375,-5.17120361328125,77.21710205078125
1663860796848864800,16.33186474609375,-20.78704833984375,-5.303955078125,79.19921875
1663860796868853800,16.351853759765625,-20.5322265625,-7.44781494140625,77.36053466796875
1663860796888842800,16.3718427734375,-17.50335693359375,-8.34808349609375,77.9693603515625
1663860796908831700,16.391831787109375,-14.6392822265625,-9.8541259765625,78.7261962890625
1663860796928820700,16.41182080078125,-15.39764404296875,-9.69696044921875,79.64019775390625
1663860796948809700,16.431809814453125,-14.056396484375,-11.0595703125,79.9407958984375
1663860796968798700,16.451798828125,-12.39013671875,-11.6455078125,82.07244873046875
1663860796988787700,16.47178759765625,-11.46240234375,-11.0443115234375,81.01043701171875
1663860797008746200,16.491746337890625,-13.16986083984375,-12.40692138671875,82.06787109375
1663860797028765700,16.511765625,-15.0909423828125,-9.68780517578125,80.70831298828125
1663860797048754700,16.531754638671874,-15.3778076171875,-8.91876220703125,81.7779541015625
1663860797068713200,16.551713134765624,-15.22369384765625,-8.78143310546875,80.1025390625
1663860797088733000,16.57173291015625,-18.78204345703125,-4.3701171875,81.34002685546875
1663860797108722000,16.591721923828125,-20.0225830078125,-5.28717041015625,81.02874755859375
1663860797128711000,16.6117109375,-21.58050537109375,-6.80084228515625,82.23876953125
1663860797148700000,16.631699951171875,-20.37200927734375,-7.25250244140625,82.38983154296875
1663860797168689000,16.65168896484375,-17.96875,-8.917236328125,82.537841796875
1663860797188678000,16.671677978515625,-18.8446044921875,-7.23419189453125,84.22088623046875
1663860797208667000,16.6916669921875,-19.6136474609375,-7.53936767578125,84.2193603515625
1663860797228655900,16.71165576171875,-19.01397705078125,-7.86285400390625,81.77947998046875
1663860797248614400,16.731614501953125,-18.2281494140625,-6.8084716796875,80.413818359375
1663860797268633900,16.7516337890625,-17.9229736328125,-6.79931640625,81.48040771484375
1663860797288622800,16.771622802734374,-19.43817138671875,-6.35223388671875,80.718994140625
1663860797308612000,16.791612060546875,-21.85211181640625,-5.27801513671875,82.55157470703125
1663860797328601000,16.81160107421875,-21.368408203125,-4.07562255859375,80.8807373046875
1663860797348864800,16.83186474609375,-23.345947265625,-3.790283203125,79.20379638671875
1663860797368823000,16.851822998046874,-24.53155517578125,-2.28118896484375,78.2958984375
1663860797388568000,16.871568115234375,-27.08892822265625,-0.7659912109375,78.30047607421875
1663860797408557000,16.89155712890625,-30.13763427734375,-0.63018798828125,77.0782470703125
1663860797428546000,16.911546142578125,-31.1798095703125,0.433349609375,77.386474609375
1663860797448535000,16.93153515625,-33.148193359375,1.171875,75.40740966796875
1663860797468524000,16.95152392578125,-35.09521484375,2.55889892578125,78.155517578125
1663860797488513000,16.971512939453124,-35.89324951171875,1.031494140625,77.38494873046875
1663860797508502000,16.991501953125,-37.872314453125,1.177978515625,77.2308349609375
1663860797528491000,17.011490966796874,-39.66827392578125,2.691650390625,76.9317626953125
1663860797548480300,17.031480224609375,-39.85137939453125,1.3275146484375,77.38189697265625
1663860797568469200,17.05146923828125,-39.8162841796875,2.8472900390625,77.3895263671875
1663860797588458200,17.071458251953125,-41.949462890625,2.85491943359375,78.91082763671875
1663860797608447200,17.091447265625,-41.8121337890625,2.239990234375,77.9937744140625
1663860797628436200,17.111436279296875,-41.6534423828125,2.54364013671875,77.84271240234375
1663860797648394800,17.131394775390625,-42.56439208984375,2.691650390625,77.69012451171875
1663860797668414200,17.151414306640625,-41.06292724609375,1.64337158203125,79.05731201171875
1663860797688403200,17.1714033203125,-43.499755859375,1.7852783203125,78.5980224609375
1663860797708392200,17.19139208984375,-43.0267333984375,2.5360107421875,77.3834228515625
1663860797728381200,17.211381103515624,-42.60711669921875,0.86212158203125,76.91802978515625
1663860797748370200,17.2313701171875,-41.66412353515625,2.081298828125,77.0782470703125
1663860797768359400,17.251359375,-39.81170654296875,3.14178466796875,76.32293701171875
1663860797788348400,17.271348388671875,-36.00311279296875,2.99072265625,75.4119873046875
1663860797808337400,17.29133740234375,-32.38525390625,1.171875,75.103759765625
1663860797828326400,17.311326416015625,-32.5531005859375,0.4302978515625,77.38494873046875
1663860797848315400,17.3313154296875,-29.33807373046875,1.03607177734375,76.324462890625
1663860797868304400,17.351304443359375,-26.18865966796875,-1.373291015625,78.14483642578125
1663860797888293400,17.37129345703125,-23.35662841796875,-4.25567626953125,78.1341552734375
1663860797908282400,17.391282470703125,-21.7071533203125,-5.46875,77.978515625
1663860797928271400,17.411271240234374,-18.2159423828125,-6.08367919921875,76.3031005859375
1663860797948260400,17.43126025390625,-16.85943603515625,-6.83135986328125,77.36663818359375
1663860797968249300,17.451249267578124,-16.26129150390625,-7.29827880859375,75.84228515625
1663860797988238300,17.47123828125,-15.81573486328125,-7.8887939453125,77.81982421875
1663860798008227600,17.4912275390625,-14.17999267578125,-9.8388671875,80.55572509765625
1663860798028216600,17.511216552734375,-13.26141357421875,-9.6832275390625,80.7098388671875
1663860798048205600,17.53120556640625,-12.17803955078125,-8.93402099609375,79.19158935546875
1663860798068194600,17.551194580078125,-13.4490966796875,-11.20452880859375,80.54962158203125
1663860798088183600,17.57118359375,-15.0634765625,-8.465576171875,81.475830078125
1663860798108172500,17.591172607421875,-17.9534912109375,-8.17108154296875,81.01654052734375
1663860798128161500,17.61116162109375,-17.73834228515625,-5.43212890625,81.33544921875
1663860798148150500,17.631150634765625,-19.38934326171875,-4.22515869140625,80.72967529296875
1663860798168139500,17.651139404296874,-20.78704833984375,-5.3009033203125,79.656982421875
1663860798188128500,17.67112841796875,-19.873046875,-5.42449951171875,82.70416259765625
1663860798208117500,17.691117431640624,-19.12689208984375,-6.1767578125,83.46405029296875
1663860798228106500,17.7111064453125,-17.92755126953125,-7.08465576171875,83.61358642578125
1663860798248431400,17.731431396484375,-19.18487548828125,-8.75396728515625,84.2132568359375
1663860798268206600,17.75120654296875,-18.8629150390625,-7.99713134765625,83.91265869140625
1663860798288104200,17.771104248046875,-18.98956298828125,-6.79473876953125,82.2418212890625
1663860798308062700,17.791062744140625,-18.08929443359375,-7.54241943359375,83.45794677734375
1663860798328051700,17.8110517578125,-18.682861328125,-6.78558349609375,83.30841064453125
1663860798348040700,17.831040771484375,-18.25714111328125,-8.15277099609375,83.30230712890625
1663860798368029700,17.85102978515625,-18.77593994140625,-4.071044921875,80.8837890625
1663860798388018700,17.871018798828125,-19.366455078125,-3.1707763671875,79.669189453125
1663860798408007700,17.891007568359374,-23.8006591796875,-3.64227294921875,78.74603271484375
1663860798427996700,17.91099658203125,-27.77557373046875,-4.1168212890625,77.67333984375
1663860798447985700,17.930985595703124,-26.2969970703125,0.5950927734375,77.239990234375
1663860798467974700,17.950974609375,-29.48760986328125,1.17950439453125,75.41046142578125
1663860798487964000,17.9709638671875,-32.13348388671875,-1.1138916015625,74.33013916015625
1663860798507983400,17.9909833984375,-35.13946533203125,0.7232666015625,76.77459716796875
1663860798527942000,18.01094189453125,-34.6588134765625,1.654052734375,78.759765625
1663860798547931000,18.030930908203125,-36.19842529296875,1.0284423828125,77.07977294921875
1663860798567919900,18.050919921875,-36.19842529296875,1.031494140625,77.3834228515625
1663860798587908900,18.070908935546875,-38.89007568359375,3.44085693359375,75.4119873046875
1663860798607897900,18.09089794921875,-39.6514892578125,3.4454345703125,76.17340087890625
1663860798627886800,18.110886962890625,-39.8101806640625,3.14788818359375,77.08587646484375
1663860798647845400,18.130845458984375,-39.81170654296875,3.14178466796875,76.32293701171875
1663860798667864800,18.15086474609375,-42.98553466796875,4.3548583984375,76.78375244140625
1663860798687853800,18.170853759765624,-43.05267333984375,1.3336181640625,78.90167236328125
1663860798707842800,18.1908427734375,-42.6971435546875,3.5980224609375,77.0843505859375
1663860798727832000,18.21083203125,-43.4539794921875,3.89862060546875,76.78070068359375
1663860798747821000,18.230821044921875,-41.04156494140625,2.6885986328125,76.93023681640625
1663860798767810000,18.25081005859375,-42.4163818359375,2.53448486328125,77.07977294921875
1663860798787799000,18.270799072265625,-41.4825439453125,3.44085693359375,76.17034912109375
1663860798807788000,18.2907880859375,-40.06500244140625,5.41229248046875,75.26702880859375
1663860798827777000,18.310777099609375,-37.47711181640625,5.2642822265625,75.11749267578125
1663860798847766000,18.33076611328125,-35.1104736328125,2.0721435546875,74.49493408203125
1663860798867755000,18.350755126953125,-31.14471435546875,2.0904541015625,75.56610107421875
1663860798887744000,18.370743896484374,-31.182861328125,0.4150390625,75.2532958984375
1663860798907733000,18.39073291015625,-27.3956298828125,-0.7720947265625,77.69012451171875
1663860798927722000,18.410721923828124,-23.5870361328125,-0.92315673828125,76.7791748046875
1663860798947711000,18.4307109375,-21.51641845703125,-3.79791259765625,77.83355712890625
1663860798967700200,18.4507001953125,-21.3958740234375,-5.16357421875,77.98004150390625
1663860798987689200,18.470689208984375,-18.1976318359375,-5.31463623046875,77.37274169921875
1663860799007678200,18.49067822265625,-16.241455078125,-6.5216064453125,77.978515625
1663860799027667200,18.510667236328125,-13.385009765625,-8.33282470703125,78.7353515625
1663860799047656200,18.53065625,-12.8173828125,-10.1593017578125,78.26995849609375
1663860799067645200,18.550645263671875,-13.76800537109375,-11.82098388671875,79.632568359375
1663860799087634200,18.57063427734375,-12.9974365234375,-11.50360107421875,81.005859375
1663860799107623200,18.590623046875,-13.2843017578125,-10.73760986328125,81.7718505859375
1663860799127948000,18.610947998046875,-13.32550048828125,-12.56256103515625,81.7626953125
1663860799147845400,18.630845458984375,-12.96844482421875,-10.2813720703125,81.77490234375
1663860799167620900,18.650620849609375,-15.26947021484375,-10.88714599609375,82.68280029296875
1663860799187579400,18.670579345703125,-16.009521484375,-9.8358154296875,81.31561279296875
1663860799207568400,18.690568359375,-17.63916015625,-7.84759521484375,83.30535888671875
1663860799227557400,18.710557373046875,-18.83087158203125,-6.50482177734375,80.56640625
1663860799247546400,18.73054638671875,-21.08917236328125,-5.2734375,83.00933837890625
1663860799267535400,18.750535400390625,-18.24798583984375,-7.83233642578125,85.13336181640625
1663860799287524400,18.7705244140625,-16.571044921875,-7.84149169921875,83.61053466796875
1663860799307513300,18.790513427734375,-18.23272705078125,-7.09075927734375,83.00323486328125
1663860799327502300,18.81050244140625,-18.53485107421875,-6.94732666015625,82.0892333984375
1663860799347491300,18.8304912109375,-19.000244140625,-7.38067626953125,84.8297119140625
1663860799367480300,18.850480224609374,-17.78564453125,-7.5439453125,83.154296875
1663860799387469300,18.87046923828125,-17.7490234375,-5.88226318359375,82.0953369140625
1663860799407458300,18.890458251953124,-19.58465576171875,-6.18133544921875,83.15887451171875
1663860799427447600,18.910447509765625,-21.39129638671875,-5.1300048828125,82.0953369140625
1663860799447436500,18.9304365234375,-21.77734375,-1.953125,80.43365478515625
1663860799467425500,18.950425537109375,-23.7701416015625,-2.28118896484375,77.99072265625
1663860799487414500,18.97041455078125,-26.15509033203125,0.1434326171875,77.84881591796875
1663860799507403500,18.990403564453125,-27.984619140625,0.13427734375,77.0843505859375
1663860799527392500,19.010392578125,-29.0069580078125,2.11029052734375,77.39715576171875
1663860799547381500,19.030381591796875,-29.50592041015625,0.286865234375,77.69317626953125
1663860799567370500,19.05037060546875,-32.53173828125,1.3427734375,77.3895263671875
1663860799587359500,19.070359375,-33.7738037109375,0.41961669921875,76.31683349609375
1663860799607348500,19.090348388671874,-35.1165771484375,1.77764892578125,75.55999755859375
1663860799627337500,19.11033740234375,-36.19384765625,1.31378173828125,74.94659423828125
1663860799647326500,19.130326416015624,-37.689208984375,2.5421142578125,76.78070068359375
1663860799667315700,19.150315673828125,-38.31024169921875,2.08740234375,77.081298828125
1663860799687304700,19.1703046875,-38.7908935546875,1.02996826171875,77.838134765625
1663860799707263200,19.19026318359375,-41.49017333984375,2.99835205078125,77.69317626953125
1663860799727282700,19.21028271484375,-41.66412353515625,2.081298828125,77.0782470703125
1663860799747271700,19.230271728515625,-41.94488525390625,3.14178466796875,76.77764892578125
1663860799767260700,19.2502607421875,-43.46923828125,3.1463623046875,77.84271240234375
1663860799787249700,19.270249755859375,-43.32122802734375,2.984619140625,76.470947265625
1663860799807238700,19.29023876953125,-40.55633544921875,3.90472412109375,76.78375244140625
1663860799827227600,19.3102275390625,-40.728759765625,2.9998779296875,77.69317626953125
1663860799847216600,19.330216552734374,-40.545654296875,4.35333251953125,76.02386474609375
1663860799867205600,19.35020556640625,-39.2120361328125,2.6885986328125,76.4739990234375
1663860799887194600,19.370194580078124,-38.1256103515625,3.45458984375,76.93634033203125
1663860799907183900,19.390183837890625,-35.3973388671875,2.8350830078125,74.95574951171875
1663860799927172900,19.4101728515625,-34.7930908203125,2.545166015625,76.32598876953125
1663860799947161900,19.430161865234375,-31.76422119140625,1.63116455078125,75.41046142578125
1663860799967150800,19.45015087890625,-26.031494140625,-1.092529296875,75.40435791015625
1663860799987170300,19.47017041015625,-23.89068603515625,-0.91552734375,77.84576416015625
1663860800007128800,19.49012890625,-21.6766357421875,-4.1015625,77.984619140625
1663860800027362000,19.510362060546875,-20.4833984375,-5.316162109375,77.82745361328125
1663860800047229000,19.53022900390625,-17.90924072265625,-6.0760498046875,77.06451416015625
1663860800067095800,19.550095703125,-16.11175537109375,-7.4432373046875,76.7547607421875
1663860800087115500,19.570115478515625,-15.82794189453125,-8.49151611328125,78.5797119140625
1663860800107073800,19.59007373046875,-13.26446533203125,-9.70458984375,78.118896484375
1663860800127062800,19.610062744140624,-12.34130859375,-9.38568115234375,79.79888916015625
1663860800147082500,19.63008251953125,-12.20855712890625,-10.29510498046875,79.9468994140625
1663860800167041000,19.650041015625,-10.38818359375,-10.74066162109375,80.70831298828125
1663860800187030000,19.670030029296875,-11.895751953125,-9.98687744140625,80.4046630859375
1663860800207019000,19.69001904296875,-13.44757080078125,-11.19232177734375,82.073974609375
1663860800227008000,19.710008056640625,-12.96234130859375,-9.97314453125,82.232666015625
1663860800246997000,19.7299970703125,-16.729736328125,-8.0047607421875,82.391357421875
1663860800266986000,19.749986083984375,-17.6422119140625,-7.86590576171875,81.01959228515625
1663860800286944500,19.769944580078125,-19.122314453125,-5.89141845703125,81.3323974609375
1663860800306964000,19.7899638671875,-19.8486328125,-4.3670654296875,82.09991455078125
1663860800326953000,19.809952880859374,-20.32318115234375,-5.126953125,82.09686279296875
1663860800346911500,19.829911376953124,-18.99261474609375,-7.07244873046875,85.44158935546875
1663860800366931200,19.84993115234375,-17.19512939453125,-8.44573974609375,84.368896484375
1663860800386920200,19.869920166015625,-18.54705810546875,-7.537841796875,84.2193603515625
1663860800406909200,19.8899091796875,-19.927978515625,-7.9833984375,85.74066162109375
1663860800426898200,19.909898193359375,-19.45953369140625,-7.3944091796875,83.30535888671875
1663860800446887200,19.92988720703125,-18.25408935546875,-8.1390380859375,84.82666015625
1663860800466876200,19.949876220703125,-18.84002685546875,-6.94580078125,82.3944091796875
1663860800486865200,19.969865234375,-19.59075927734375,-6.4788818359375,83.91876220703125
1663860800506854100,19.989854248046875,-19.72503662109375,-5.5908203125,81.0272216796875
1663860800526843100,20.009843017578124,-23.651123046875,-3.790283203125,79.20379638671875
1663860800546801700,20.0298017578125,-24.365234375,-1.67388916015625,78.1463623046875
1663860800566821000,20.049821044921874,-26.00555419921875,-0.006103515625,77.9998779296875
1663860800586810000,20.06981005859375,-28.12042236328125,0.89874267578125,77.69775390625
1663860800606799400,20.08979931640625,-29.94384765625,1.19476318359375,77.239990234375
1663860800626788400,20.109788330078125,-31.92291259765625,1.33514404296875,76.32293701171875
1663860800646777300,20.12977734375,-33.25958251953125,2.86712646484375,78.1585693359375
1663860800666766300,20.149766357421875,-34.91058349609375,4.06036376953125,75.8758544921875
1663860800686724900,20.169724853515625,-35.357666015625,4.64935302734375,73.7457275390625
1663860800706744300,20.189744384765625,-37.00714111328125,5.86700439453125,74.359130859375
1663860800726733300,20.2097333984375,-37.518310546875,3.4423828125,75.41351318359375
1663860800746722300,20.229722412109375,-38.10272216796875,4.51202392578125,76.17950439453125
1663860800766711300,20.249711181640624,-38.1378173828125,2.98614501953125,75.41046142578125
1663860800786700300,20.2697001953125,-41.19873046875,2.52227783203125,75.25177001953125
1663860800806689300,20.289689208984374,-40.869140625,3.58734130859375,75.25787353515625
1663860800826678300,20.30967822265625,-42.67425537109375,4.64935302734375,75.56610107421875
1663860800846667500,20.32966748046875,-42.4102783203125,2.83203125,76.318359375
1663860800866656500,20.349656494140625,-44.049072265625,4.6356201171875,74.19281005859375
1663860800886645500,20.3696455078125,-40.8782958984375,3.1402587890625,76.32293701171875
1663860800906939600,20.389939697265625,-41.4825439453125,3.4393310546875,75.86517333984375
1663860800926898200,20.409898193359375,-39.18304443359375,4.03594970703125,74.04327392578125
1663860800946643000,20.429642822265624,-38.74664306640625,3.11737060546875,73.12469482421875
1663860800966601500,20.4496015625,-35.99395751953125,3.43780517578125,74.34844970703125
1663860800986621000,20.469620849609374,-33.26873779296875,2.5390625,75.26092529296875
1663860801006610000,20.48960986328125,-31.45294189453125,2.06298828125,72.36480712890625
1663860801026568400,20.509568359375,-27.48565673828125,2.08892822265625,74.50408935546875
1663860801046557400,20.529557373046874,-24.17144775390625,0.2777099609375,75.10833740234375
1663860801066546400,20.54954638671875,-20.57647705078125,-2.60009765625,75.40283203125
1663860801086535700,20.56953564453125,-18.74542236328125,-2.581787109375,77.23388671875
1663860801106524700,20.589524658203125,-16.229248046875,-5.92193603515625,76.91497802734375
1663860801126513700,20.609513671875,-14.2669677734375,-6.82830810546875,77.0660400390625
1663860801146472200,20.62947216796875,-13.8031005859375,-6.52923583984375,76.45721435546875
1663860801166491600,20.64949169921875,-13.09967041015625,-9.1064453125,76.90277099609375
1663860801186480600,20.669480712890625,-12.2100830078125,-10.30120849609375,79.1839599609375
1663860801206469600,20.6894697265625,-9.3231201171875,-10.75439453125,78.88031005859375
1663860801226458600,20.709458740234375,-10.55145263671875,-11.20452880859375,79.791259765625
1663860801246447600,20.729447509765624,-11.47308349609375,-11.50054931640625,81.00738525390625
1663860801266436600,20.7494365234375,-10.54534912109375,-10.8978271484375,80.09796142578125
1663860801286425600,20.769425537109374,-12.52288818359375,-10.7452392578125,80.70526123046875
1663860801306414600,20.78941455078125,-12.79754638671875,-9.37957763671875,80.560302734375
1663860801326403800,20.80940380859375,-14.11590576171875,-6.96563720703125,78.741455078125
1663860801346392800,20.829392822265625,-15.008544921875,-6.0394287109375,80.72662353515625
1663860801366381800,20.8493818359375,-18.02978515625,-4.70123291015625,77.98614501953125
1663860801386370800,20.869370849609375,-15.29693603515625,-5.28717041015625,79.96673583984375
1663860801406359800,20.88935986328125,-16.85638427734375,-6.80999755859375,79.95758056640625
1663860801426348800,20.909348876953125,-14.28680419921875,-7.855224609375,81.48040771484375
1663860801446337800,20.929337890625,-15.36865234375,-8.4686279296875,81.01806640625
1663860801466326800,20.949326904296875,-16.2384033203125,-6.4971923828125,80.8746337890625
1663860801486315800,20.969315673828124,-16.53900146484375,-6.33697509765625,81.7901611328125
1663860801506304800,20.9893046875,-13.85498046875,-9.0606689453125,82.6934814453125
1663860801526293800,21.009293701171874,-15.36865234375,-8.4716796875,80.71441650390625
1663860801546283000,21.029282958984375,-15.19622802734375,-7.5653076171875,80.108642578125
1663860801566272000,21.04927197265625,-17.608642578125,-6.35223388671875,80.4168701171875
1663860801586261000,21.069260986328125,-18.63555908203125,-4.54559326171875,78.594970703125
1663860801606250000,21.08925,-19.68841552734375,-3.80706787109375,76.312255859375
1663860801626239000,21.109239013671875,-21.9818115234375,-4.107666015625,77.22320556640625
1663860801646228000,21.12922802734375,-22.357177734375,-0.4638671875,76.934814453125
1663860801666217000,21.149217041015625,-25.262451171875,-0.78277587890625,75.8636474609375
1663860801686206000,21.1692060546875,-26.1505126953125,0.42877197265625,75.56304931640625
1663860801706195000,21.18919482421875,-27.51617431640625,0.72784423828125,75.2593994140625
1663860801726153500,21.209153564453125,-30.389404296875,1.7852783203125,75.26092529296875
1663860801746173000,21.2291728515625,-30.94940185546875,4.0496826171875,73.59466552734375
1663860801766162000,21.249161865234374,-33.96759033203125,5.40771484375,73.1414794921875
1663860801786151200,21.269151123046875,-36.2579345703125,5.25360107421875,73.59466552734375
1663860801806414600,21.28941455078125,-35.68878173828125,3.43780517578125,74.34844970703125
1663860801826281700,21.30928173828125,-37.64495849609375,4.6417236328125,73.4375
1663860801846148600,21.329148681640625,-38.7359619140625,3.582763671875,74.19281005859375
1663860801866107100,21.349107177734375,-39.48211669921875,4.3365478515625,73.7396240234375
1663860801886096100,21.36909619140625,-39.44091796875,6.15234375,72.6806640625
1663860801906085000,21.389085205078125,-40.67840576171875,5.2581787109375,75.11444091796875
1663860801926104600,21.4091044921875,-41.60308837890625,4.937744140625,73.4344482421875
1663860801946063000,21.42906298828125,-40.39154052734375,4.49371337890625,74.65362548828125
1663860801966052000,21.449052001953124,-40.83099365234375,5.3924560546875,73.13232421875
1663860801986041000,21.469041015625,-39.00909423828125,4.949951171875,74.200439453125
1663860802006030000,21.489030029296874,-37.0330810546875,4.7882080078125,72.5250244140625
1663860802026019300,21.509019287109375,-35.382080078125,3.57666015625,72.67303466796875
1663860802046008300,21.52900830078125,-32.1502685546875,4.94537353515625,71.9207763671875
1663860802065997300,21.548997314453125,-30.3680419921875,2.82745361328125,72.674560546875
1663860802085986300,21.568986328125,-27.18353271484375,2.07061767578125,72.369384765625
1663860802105975300,21.588975341796875,-26.75628662109375,0.7110595703125,73.126220703125
1663860802125964300,21.60896435546875,-20.69549560546875,-0.958251953125,71.905517578125
1663860802145953300,21.628953369140625,-18.6004638671875,-2.7618408203125,73.7274169921875
1663860802165942300,21.6489423828125,-17.7398681640625,-5.194091796875,73.56414794921875
1663860802185931300,21.66893115234375,-14.727783203125,-6.84814453125,74.93133544921875
1663860802205920300,21.688920166015624,-14.9139404296875,-8.36639404296875,75.0762939453125
1663860802225909200,21.7089091796875,-12.322998046875,-8.367919921875,74.31640625
1663860802245898200,21.728898193359374,-11.73553466796875,-9.423828125,75.07476806640625
1663860802265856800,21.748856689453124,-9.15985107421875,-10.1715087890625,75.836181640625
1663860802285876500,21.76887646484375,-9.637451171875,-11.0748291015625,77.04925537109375
1663860802305865500,21.788865478515625,-9.6466064453125,-11.52191162109375,78.11431884765625
1663860802325854500,21.8088544921875,-9.21630859375,-12.7349853515625,78.26080322265625
1663860802345843500,21.828843505859375,-10.57281494140625,-11.9964599609375,76.129150390625
1663860802365832400,21.84883251953125,-10.98785400390625,-10.16082763671875,77.66265869140625
1663860802385821400,21.868821533203125,-12.04986572265625,-9.86480712890625,76.9012451171875
1663860802405810400,21.888810546875,-15.65399169921875,-7.5714111328125,79.498291015625
1663860802425799400,21.90879931640625,-15.91339111328125,-5.4595947265625,77.679443359375
1663860802445788400,21.928788330078124,-16.64581298828125,-4.0985107421875,76.92413330078125
1663860802465777400,21.94877734375,-17.89093017578125,-5.3009033203125,78.8970947265625
1663860802485766400,21.968766357421874,-15.31524658203125,-6.05621337890625,78.8970947265625
1663860802505755600,21.988755615234375,-13.64593505859375,-6.35833740234375,78.5919189453125
1663860802525744600,22.00874462890625,-13.983154296875,-7.867431640625,79.9560546875
1663860802545733600,22.028733642578125,-15.04058837890625,-7.42034912109375,79.19464111328125
1663860802565722600,22.04872265625,-15.31524658203125,-6.05316162109375,79.2022705078125
1663860802585711600,22.068711669921875,-16.09649658203125,-6.8267822265625,77.825927734375
1663860802605700600,22.08870068359375,-14.73541259765625,-7.4066162109375,80.718994140625
1663860802625689600,22.108689697265625,-15.62347412109375,-6.20269775390625,79.50592041015625
1663860802645678600,22.1286787109375,-17.6025390625,-6.05316162109375,79.656982421875
1663860802665667600,22.14866748046875,-17.1630859375,-6.81915283203125,78.8909912109375
1663860802685979600,22.168979736328126,-18.76983642578125,-3.65142822265625,76.46636962890625
1663860802705907700,22.18890771484375,-21.038818359375,-2.76336669921875,74.18212890625
1663860802725683000,22.208682861328125,-23.419189453125,-0.04730224609375,72.515869140625
1663860802745641500,22.228641357421875,-25.9735107421875,1.61590576171875,72.216796875
1663860802765600000,22.24860009765625,-27.496337890625,1.7608642578125,71.6064453125
1663860802785589000,22.268589111328126,-27.4932861328125,1.776123046875,73.4344482421875
1663860802805578000,22.288577880859375,-30.0628662109375,2.825927734375,72.37091064453125
1663860802825567000,22.30856689453125,-31.27899169921875,2.978515625,72.8271484375
1663860802845556000,22.328555908203125,-32.4554443359375,4.9346923828125,70.85418701171875
1663860802865545200,22.348545166015626,-34.1949462890625,2.2003173828125,71.44775390625
1663860802885503500,22.36850341796875,-34.58404541015625,5.2337646484375,70.70159912109375
1663860802905523200,22.388523193359376,-35.8001708984375,5.39093017578125,71.61407470703125
1663860802925512200,22.40851220703125,-36.09771728515625,5.69610595703125,71.9207763671875
1663860802945470700,22.428470703125,-39.14947509765625,5.54351806640625,72.52655029296875
1663860802965490200,22.448490234375,-37.7838134765625,5.2490234375,73.2879638671875
1663860802985479200,22.468479248046876,-38.5223388671875,6.30645751953125,72.83477783203125
1663860803005468200,22.48846826171875,-38.8519287109375,5.242919921875,72.8302001953125
1663860803025457200,22.50845703125,-37.79449462890625,4.7943115234375,73.590087890625
1663860803045446100,22.528446044921875,-38.84429931640625,5.54656982421875,72.83172607421875
1663860803065435100,22.54843505859375,-35.6689453125,4.473876953125,71.00067138671875
1663860803085424000,22.568424072265625,-35.235595703125,3.41033935546875,70.99609375
1663860803105413400,22.588413330078126,-32.15789794921875,4.63104248046875,70.8526611328125
1663860803125402400,22.60840234375,-28.55682373046875,2.06146240234375,71.6064453125
1663860803145391400,22.628391357421876,-26.42822265625,1.75933837890625,71.30279541015625
1663860803165380400,22.64838037109375,-23.8372802734375,1.7547607421875,70.086669921875
1663860803185369300,22.668369384765626,-21.29669189453125,-0.51727294921875,70.3826904296875
1663860803205358300,22.6883583984375,-19.5068359375,-2.33154296875,70.98541259765625
1663860803225347300,22.708347412109376,-17.39654541015625,-3.3905029296875,70.98236083984375
1663860803245336300,22.72833642578125,-15.01922607421875,-6.1248779296875,70.51544189453125
1663860803265417000,22.7484169921875,-13.80157470703125,-6.26068115234375,72.1923828125
1663860803285344800,22.7683447265625,-11.2274169921875,-7.0220947265625,71.429443359375
1663860803305303300,22.78830322265625,-9.5916748046875,-8.9752197265625,73.70758056640625
1663860803325292300,22.808292236328125,-9.46044921875,-9.8876953125,73.5504150390625
1663860803345312000,22.82831201171875,-9.1766357421875,-10.931396484375,75.83160400390625
1663860803365270500,22.8482705078125,-10.809326171875,-8.95843505859375,75.9918212890625
1663860803385259500,22.868259521484376,-9.49859619140625,-11.68670654296875,76.4373779296875
1663860803405248500,22.88824853515625,-10.26153564453125,-11.6912841796875,76.1322021484375
1663860803425237500,22.908237548828126,-8.41522216796875,-10.92987060546875,75.8331298828125
1663860803445257000,22.928257080078126,-10.35003662109375,-8.94622802734375,77.36358642578125
1663860803465276400,22.9482763671875,-11.6851806640625,-7.27996826171875,76.9134521484375
1663860803485235000,22.96823486328125,-16.0858154296875,-6.37359619140625,77.36968994140625
1663860803505224000,22.988223876953125,-15.618896484375,-5.914306640625,77.67791748046875
1663860803525213200,23.008213134765626,-17.8924560546875,-5.31005859375,77.83050537109375
1663860803545202200,23.0282021484375,-15.33966064453125,-7.12127685546875,78.58734130859375
1663860803565191200,23.048191162109376,-16.12396240234375,-8.1695556640625,80.71441650390625
1663860803585454800,23.068454833984376,-14.752197265625,-8.16650390625,80.7159423828125
1663860803605321700,23.08832177734375,-15.68145751953125,-8.78448486328125,79.79736328125
1663860803625127700,23.108127685546876,-16.2567138671875,-7.26776123046875,79.49981689453125
1663860803645116700,23.12811669921875,-15.37017822265625,-8.4869384765625,78.8848876953125
1663860803665075200,23.1480751953125,-13.36822509765625,-7.57598876953125,78.28216552734375
1663860803685094700,23.1680947265625,-14.59808349609375,-8.0352783203125,78.277587890625
1663860803705083600,23.188083740234376,-15.79132080078125,-6.81915283203125,78.58734130859375
1663860803725072600,23.20807275390625,-16.259765625,-7.281494140625,77.9754638671875
1663860803745061600,23.2280615234375,-17.74444580078125,-5.4779052734375,75.848388671875
1663860803765050600,23.248050537109375,-18.00994873046875,-3.6712646484375,74.02801513671875
1663860803785039600,23.26803955078125,-20.56121826171875,-1.85546875,73.577880859375
1663860803805028600,23.288028564453125,-22.67913818359375,-1.09710693359375,74.03564453125
1663860803825017900,23.308017822265626,-24.15924072265625,0.872802734375,73.5870361328125
1663860803845006800,23.3280068359375,-27.362060546875,0.86517333984375,73.58245849609375
1663860803864965400,23.34796533203125,-28.25469970703125,1.78070068359375,74.19586181640625
1663860803884984800,23.36798486328125,-29.49066162109375,1.15814208984375,72.81951904296875
1663860803904973800,23.387973876953126,-29.3182373046875,2.069091796875,72.67303466796875
1663860803924962800,23.407962890625,-31.304931640625,1.90582275390625,71.75445556640625
1663860803944951800,23.427951904296876,-33.8623046875,3.41339111328125,70.99761962890625
1663860803964910300,23.447910400390626,-34.74884033203125,4.638671875,72.37396240234375
1663860803984929800,23.4679296875,-34.78240966796875,3.125,73.1292724609375
1663860804004918800,23.487918701171875,-36.56005859375,5.401611328125,73.138427734375
1663860804024907800,23.50790771484375,-37.835693359375,2.96173095703125,72.51434326171875
1663860804044896800,23.527896728515625,-38.7176513671875,4.3487548828125,74.95880126953125
1663860804064886000,23.547885986328126,-40.5364990234375,4.92706298828125,71.91162109375
1663860804084875000,23.567875,-39.4805908203125,4.34112548828125,74.19586181640625
1663860804104864000,23.587864013671876,-40.36102294921875,5.85784912109375,74.0509033203125
1663860804124853000,23.60785302734375,-39.1571044921875,5.23223876953125,71.7620849609375
1663860804144842000,23.627842041015626,-39.02587890625,4.32281494140625,71.91009521484375
1663860804164831000,23.6478310546875,-38.555908203125,4.79278564453125,73.590087890625
1663860804184820000,23.667820068359376,-38.07830810546875,5.83343505859375,70.7000732421875
1663860804204809000,23.68780908203125,-34.613037109375,4.00848388671875,69.62738037109375
1663860804224798000,23.7077978515625,-32.17620849609375,3.86962890625,70.54443359375
1663860804244787000,23.727786865234375,-31.298828125,2.2003173828125,70.68939208984375
1663860804264776000,23.74777587890625,-23.40087890625,0.84991455078125,70.69244384765625
1663860804284765200,23.76776513671875,-21.35162353515625,-2.94342041015625,70.9808349609375
1663860804304723500,23.787723388671875,-18.75762939453125,-2.92205810546875,72.8118896484375
1663860804324743200,23.8077431640625,-16.650390625,-4.14581298828125,71.43707275390625
1663860804344732200,23.827732177734376,-13.3514404296875,-6.5643310546875,72.19085693359375
1663860804364721200,23.84772119140625,-13.67034912109375,-7.1746826171875,71.88262939453125
1663860804384710100,23.867710205078126,-10.20050048828125,-8.8409423828125,71.7254638671875
1663860804404699100,23.88769921875,-10.35614013671875,-8.99200439453125,71.8780517578125
1663860804424688000,23.907688232421876,-9.1552734375,-9.88922119140625,73.24676513671875
1663860804444677000,23.927677001953125,-9.3353271484375,-11.10687255859375,73.08807373046875
1663860804464666000,23.947666015625,-9.039306640625,-11.5509033203125,74.456787109375
1663860804484960300,23.967960205078125,-8.11920166015625,-11.25946044921875,72.78289794921875
1663860804504705300,23.987705322265626,-9.16290283203125,-10.20050048828125,72.4822998046875
1663860804524663800,24.007663818359376,-10.247802734375,-10.9527587890625,73.5443115234375
1663860804544622300,24.027622314453126,-9.59320068359375,-8.98590087890625,72.3358154296875
1663860804564611300,24.047611328125,-12.75634765625,-7.31353759765625,73.25439453125
1663860804584600300,24.067600341796876,-14.86053466796875,-5.9478759765625,73.56414794921875
1663860804604589300,24.08758935546875,-16.22314453125,-5.4962158203125,73.25897216796875
1663860804624608800,24.10760888671875,-15.61279296875,-5.499267578125,72.802734375
1663860804644567300,24.1275673828125,-14.2608642578125,-6.40411376953125,73.4100341796875
1663860804664556300,24.147556396484376,-11.99798583984375,-7.59429931640625,75.8453369140625
1663860804684545300,24.167545166015625,-13.13323974609375,-10.61859130859375,77.96173095703125
1663860804704534300,24.1875341796875,-12.33673095703125,-9.09881591796875,77.66571044921875
1663860804724523300,24.207523193359375,-11.90185546875,-10.0311279296875,75.2227783203125
1663860804744512300,24.22751220703125,-12.0513916015625,-9.8846435546875,74.61395263671875
1663860804764501500,24.24750146484375,-11.0931396484375,-7.9193115234375,73.101806640625
1663860804784490500,24.267490478515626,-12.32147216796875,-8.36029052734375,75.079345703125
1663860804804479500,24.2874794921875,-14.58587646484375,-7.3089599609375,74.3194580078125
1663860804824468500,24.307468505859376,-15.14129638671875,-4.754638671875,70.97930908203125
1663860804844457500,24.32745751953125,-15.75775146484375,-5.0567626953125,71.28143310546875
1663860804864446500,24.347446533203126,-17.43927001953125,-5.22613525390625,69.6014404296875
1663860804884435500,24.367435546875,-20.8709716796875,-1.89056396484375,69.61517333984375
1663860804904424400,24.387424560546876,-21.91619873046875,-0.8392333984375,68.3990478515625
1663860804924444000,24.40744384765625,-24.32861328125,0.36468505859375,67.48809814453125
1663860804944402400,24.42740234375,-27.37274169921875,0.52490234375,69.1619873046875
1663860804964391400,24.447391357421875,-26.72119140625,2.484130859375,67.1905517578125
1663860804984380400,24.46738037109375,-31.744384765625,2.9205322265625,65.96832275390625
1663860805004369700,24.48736962890625,-31.427001953125,3.51104736328125,63.83819580078125
1663860805024358700,24.507358642578126,-32.7545166015625,5.48553466796875,64.1510009765625
1663860805044347600,24.52734765625,-33.82415771484375,5.47027587890625,62.6251220703125
1663860805064336600,24.547336669921876,-35.16082763671875,6.99615478515625,63.69781494140625
1663860805084325600,24.56732568359375,-35.66741943359375,4.73785400390625,66.278076171875
1663860805104314600,24.587314697265626,-36.26708984375,5.18341064453125,65.2130126953125
1663860805124303600,24.6073037109375,-38.2293701171875,6.09283447265625,65.36712646484375
1663860805144292600,24.627292724609376,-37.65411376953125,4.5654296875,64.29290771484375
1663860805164251100,24.647251220703126,-40.97137451171875,6.2286376953125,64.1448974609375
1663860805184270600,24.6672705078125,-38.24615478515625,5.33294677734375,65.362548828125
1663860805204259600,24.687259521484375,-38.1072998046875,4.72564697265625,65.5120849609375
1663860805224248600,24.70724853515625,-38.092041015625,5.474853515625,64.1448974609375
1663860805244237800,24.72723779296875,-37.48321533203125,5.47027587890625,63.38348388671875
1663860805264196000,24.747196044921875,-36.5814208984375,4.86297607421875,63.2293701171875
1663860805284215800,24.7672158203125,-32.7911376953125,3.955078125,62.9241943359375
1663860805304204800,24.787204833984376,-31.10504150390625,4.27703857421875,64.60418701171875
1663860805324193800,24.80719384765625,-26.617431640625,0.4791259765625,63.67645263671875
1663860805344182800,24.827182861328126,-23.10333251953125,0.7904052734375,63.6810302734375
1663860805364446500,24.847446533203126,-20.91064453125,-3.44390869140625,65.49224853515625
1663860805384343800,24.86734375,-17.13714599609375,-5.1177978515625,64.26849365234375
1663860805404180200,24.88718017578125,-14.70184326171875,-5.3955078125,66.8609619140625
1663860805424169500,24.90716943359375,-12.7716064453125,-7.68280029296875,65.48004150390625
1663860805444127700,24.927127685546875,-13.0950927734375,-8.45184326171875,64.40887451171875
1663860805464117000,24.947116943359376,-11.46392822265625,-10.42633056640625,64.2486572265625
1663860805484106000,24.96710595703125,-9.21173095703125,-12.078857421875,65.91949462890625
1663860805504095000,24.987094970703126,-6.06689453125,-14.64080810546875,67.7398681640625
1663860805524053500,25.007053466796876,-6.65740966796875,-13.873291015625,68.80950927734375
1663860805544073000,25.027072998046876,-7.56988525390625,-13.72222900390625,68.96209716796875
1663860805564062000,25.04706201171875,-5.7708740234375,-15.087890625,68.65234375
1663860805584051000,25.067051025390626,-6.20269775390625,-14.0167236328125,69.7235107421875
1663860805604040000,25.0870400390625,-7.42034912109375,-13.86871337890625,69.5709228515625
1663860805624029000,25.10702880859375,-10.12725830078125,-12.2039794921875,69.2718505859375
1663860805644018000,25.127017822265625,-10.2447509765625,-10.68572998046875,69.1253662109375
1663860805664007000,25.1470068359375,-12.78533935546875,-8.40606689453125,69.89593505859375
1663860805683996000,25.166995849609375,-12.30926513671875,-7.64007568359375,70.3582763671875
1663860805703985200,25.186985107421876,-11.00311279296875,-10.65673828125,72.78289794921875
1663860805723974100,25.20697412109375,-10.57891845703125,-12.0361328125,71.405029296875
1663860805743963100,25.226963134765626,-9.68170166015625,-12.92572021484375,73.687744140625
1663860805763952000,25.2469521484375,-10.3302001953125,-14.6026611328125,73.22235107421875
1663860805783941000,25.266941162109376,-11.798095703125,-12.03765869140625,71.40350341796875
1663860805803930000,25.28693017578125,-10.0006103515625,-13.53912353515625,73.2269287109375
1663860805823919000,25.306919189453126,-9.698486328125,-13.427734375,68.19915771484375
1663860805843908000,25.326908203125,-12.25433349609375,-11.9049072265625,69.27032470703125
1663860805863897000,25.34689697265625,-11.79046630859375,-11.73095703125,71.710205078125
1663860805883886000,25.366885986328125,-13.3056640625,-11.15264892578125,68.66302490234375
1663860805903875000,25.386875,-14.31732177734375,-8.5906982421875,66.387939453125
1663860805923864000,25.406864013671875,-16.09039306640625,-6.158447265625,66.85638427734375
1663860805943853300,25.426853271484376,-18.50128173828125,-4.8065185546875,65.4876708984375
1663860805963842300,25.44684228515625,-18.17626953125,-3.90472412109375,64.2730712890625
1663860805983831300,25.466831298828126,-21.67510986328125,-3.46832275390625,62.8997802734375
1663860806003820300,25.4868203125,-22.87445068359375,-2.55279541015625,63.51318359375
1663860806023809300,25.506809326171876,-24.5208740234375,-1.1993408203125,62.298583984375
1663860806043767800,25.526767822265626,-25.69732666015625,0.64544677734375,65.04974365234375
1663860806063787300,25.546787353515626,-28.26080322265625,1.98822021484375,62.76702880859375
1663860806083776300,25.5667763671875,-31.77490234375,1.8035888671875,59.7137451171875
1663860806103765200,25.58676513671875,-32.2265625,1.97296142578125,62.00103759765625
1663860806123754200,25.606754150390625,-34.6282958984375,3.64227294921875,62.310791015625
1663860806143743200,25.6267431640625,-33.89892578125,2.130126953125,62.91351318359375
1663860806163732200,25.646732177734375,-35.39276123046875,3.49273681640625,62.76702880859375
1663860806183721500,25.666721435546876,-36.126708984375,4.84161376953125,60.638427734375
1663860806203710500,25.68671044921875,-40.72723388671875,3.63311767578125,62.60833740234375
1663860806223699500,25.706699462890626,-38.7664794921875,2.71759033203125,61.69281005859375
1663860806243688400,25.7266884765625,-39.0777587890625,2.41851806640625,62.45269775390625
1663860806263982600,25.746982666015626,-39.202880859375,3.63616943359375,62.60986328125
1663860806283727400,25.766727294921875,-39.50347900390625,3.79486083984375,63.525390625
1663860806303655400,25.786655517578126,-38.00506591796875,2.70538330078125,60.16845703125
1663860806323644400,25.80664453125,-39.68658447265625,2.55279541015625,60.4705810546875
1663860806343633400,25.82663330078125,-38.90228271484375,3.60260009765625,58.648681640625
1663860806363622400,25.846622314453125,-35.8306884765625,4.522705078125,58.80889892578125
1663860806383642000,25.86664208984375,-32.9742431640625,2.71148681640625,59.56573486328125
1663860806403600400,25.886600341796875,-31.93206787109375,1.64337158203125,58.7982177734375
1663860806423589600,25.906589599609376,-27.51922607421875,1.202392578125,59.564208984375
1663860806443578600,25.92657861328125,-24.51019287109375,-0.6072998046875,60.47210693359375
1663860806463567600,25.946567626953126,-20.76416015625,-3.62548828125,61.98577880859375
1663860806483556600,25.966556640625,-18.1976318359375,-4.68597412109375,61.6790771484375
1663860806503545600,25.986545654296876,-14.2578125,-5.75103759765625,60.6109619140625
1663860806523534600,26.00653466796875,-14.26849365234375,-6.2164306640625,59.5428466796875
1663860806543523600,26.026523681640626,-12.469482421875,-7.5775146484375,59.8419189453125
1663860806563512600,26.0465126953125,-12.05596923828125,-9.54742431640625,60.443115234375
1663860806583501600,26.06650146484375,-11.1572265625,-10.16082763671875,59.52606201171875
1663860806603490600,26.086490478515625,-10.12420654296875,-11.68212890625,59.06219482421875
1663860806623479600,26.1064794921875,-9.46502685546875,-9.5458984375,59.9884033203125
1663860806643468800,26.12646875,-7.379150390625,-11.8011474609375,62.26654052734375
1663860806663457800,26.146457763671876,-8.160400390625,-12.5762939453125,60.73760986328125
1663860806683446800,26.16644677734375,-9.3170166015625,-9.8358154296875,61.663818359375
1663860806703435800,26.186435791015626,-9.9395751953125,-10.302734375,60.44158935546875
1663860806723424800,26.2064248046875,-10.2020263671875,-8.47930908203125,60.45074462890625
1663860806743413800,26.226413818359376,-12.16583251953125,-7.57904052734375,59.53826904296875
1663860806763402800,26.24640283203125,-15.325927734375,-5.76171875,59.5428466796875
1663860806783391700,26.266391845703126,-12.7471923828125,-6.3629150390625,59.6954345703125
1663860806803380700,26.286380615234375,-9.8785400390625,-7.70111083984375,62.5885009765625
1663860806823369700,26.30636962890625,-10.21728515625,-9.2193603515625,62.884521484375
1663860806843358700,26.326358642578125,-8.2794189453125,-11.18621826171875,63.48724365234375
1663860806863347700,26.34634765625,-10.0830078125,-10.11199951171875,65.0146484375
1663860806883337000,26.3663369140625,-10.25238037109375,-10.74066162109375,62.5732421875
1663860806903326000,26.386325927734376,-8.4136962890625,-10.29510498046875,61.053466796875
1663860806923315000,26.40631494140625,-8.57086181640625,-10.46295166015625,59.07135009765625
1663860806943304000,26.426303955078126,-10.3759765625,-9.38720703125,60.90240478515625
1663860806963293000,26.44629296875,-10.09521484375,-10.45074462890625,60.8978271484375
1663860806983282000,26.466281982421876,-13.70849609375,-8.3526611328125,58.31298828125
1663860807003271000,26.48627099609375,-15.6494140625,-6.40411376953125,55.57708740234375
1663860807023260000,26.506260009765626,-16.50848388671875,-3.96881103515625,56.1981201171875
1663860807043249000,26.526248779296875,-17.535400390625,-2.15606689453125,55.13916015625
1663860807063238000,26.54623779296875,-23.333740234375,-2.197265625,51.7791748046875
1663860807083227000,26.566226806640625,-24.37591552734375,-1.1322021484375,52.08740234375
1663860807103215900,26.5862158203125,-28.15093994140625,0.66070556640625,49.3499755859375
1663860807123205000,26.606205078125,-28.863525390625,2.7923583984375,50.12054443359375
1663860807143438000,26.62643798828125,-32.37152099609375,2.78472900390625,50.11749267578125
1663860807163366100,26.6463662109375,-34.0301513671875,3.67889404296875,48.443603515625
1663860807183172000,26.666172119140626,-37.2161865234375,4.41436767578125,46.30889892578125
1663860807203161000,26.6861611328125,-38.7420654296875,4.40826416015625,45.85113525390625
1663860807223180500,26.7061806640625,-40.576171875,4.1259765625,48.895263671875
1663860807243139000,26.72613916015625,-42.07305908203125,5.3375244140625,48.74725341796875
1663860807263128000,26.746128173828126,-42.37213134765625,5.50689697265625,51.03302001953125
1663860807283117000,26.766116943359375,-44.95391845703125,6.08367919921875,47.98583984375
1663860807303106000,26.78610595703125,-46.95587158203125,5.17578125,48.89373779296875
1663860807323095000,26.806094970703125,-48.60382080078125,6.4056396484375,50.87890625
1663860807343084000,26.826083984375,-47.2564697265625,5.3314208984375,49.35150146484375
1663860807363073300,26.8460732421875,-44.9493408203125,6.11572265625,51.64337158203125
1663860807383062300,26.866062255859376,-47.7294921875,4.7119140625,48.12774658203125
1663860807403051300,26.88605126953125,-48.15216064453125,6.23931884765625,49.20196533203125
1663860807423040300,26.906040283203126,-45.90606689453125,4.42047119140625,49.19586181640625
1663860807443029200,26.926029296875,-43.30902099609375,4.57916259765625,49.35150146484375
1663860807462987800,26.94598779296875,-40.39764404296875,5.32989501953125,47.52960205078125
1663860807483007200,26.96600732421875,-37.56561279296875,2.44293212890625,46.9085693359375
1663860807502996200,26.985996337890626,-34.04541015625,2.9266357421875,49.20196533203125
1663860807522985200,27.005985107421875,-31.005859375,2.4810791015625,49.81231689453125
