time,seconds_elapsed,z,y,x
1663860780707447800,0.19044775390625,3.9622955322265625,1.8206939697265625,-2.3071136474609375
1663860780717396700,0.200396728515625,6.8233642578125,2.17742919921875,-2.1969757080078125
1663860780727284200,0.2102841796875,9.832870483398438,2.41925048828125,-1.9336090087890625
1663860780737141500,0.2201416015625,11.913436889648438,2.6610565185546875,-1.840240478515625
1663860780747029200,0.230029296875,12.8782958984375,2.807098388671875,-1.8641815185546875
1663860780756886300,0.23988623046875,11.286148071289062,2.0816650390625,-0.43963623046875
1663860780766774000,0.24977392578125,8.338897705078125,0.925262451171875,-0.5641326904296875
1663860780776631300,0.25963134765625,7.5128936767578125,0.683441162109375,-2.2065582275390625
1663860780786519000,0.26951904296875,7.6038665771484375,0.683441162109375,-1.91925048828125
1663860780796406500,0.279406494140625,9.837661743164062,0.6427459716796875,-1.2225341796875
1663860780806294300,0.289294189453125,11.341217041015625,1.0234222412109375,-1.1028289794921875
1663860780816182000,0.29918212890625,9.387557983398438,1.2652435302734375,-1.121978759765625
1663860780826100200,0.309100341796875,9.109832763671875,1.2556610107421875,-1.2129669189453125
1663860780835988000,0.318988037109375,9.962158203125,1.38494873046875,-1.078887939453125
1663860780845875700,0.328875732421875,11.484878540039062,1.5309906005859375,-0.8179168701171875
1663860780855763500,0.338763427734375,11.137710571289062,1.116790771484375,-0.762847900390625
1663860780865590000,0.348590087890625,8.860824584960938,0.2979736328125,-0.70538330078125
1663860780875477800,0.358477783203125,7.6158447265625,0.2548828125,-0.0685272216796875
1663860780885334800,0.368334716796875,7.99652099609375,0.4033203125,0.04638671875
1663860780895253000,0.3782529296875,9.301361083984375,0.649932861328125,0.02484130859375
1663860780905140700,0.388140625,10.94378662109375,0.7696380615234375,0.494110107421875
1663860780914998000,0.397998046875,11.204757690429688,0.503875732421875,0.5132598876953125
1663860780924885800,0.4078857421875,9.540786743164062,0.1950225830078125,-2.623138427734375
1663860780934773200,0.417773193359375,7.6780853271484375,-0.279022216796875,-5.67095947265625
1663860780944661000,0.427660888671875,6.416351318359375,-1.2390899658203125,-2.2376708984375
1663860780954548700,0.437548828125,7.2016448974609375,-0.3077545166015625,1.0519561767578125
1663860780964436500,0.4474365234375,8.362838745117188,1.04736328125,1.413482666015625
1663860780974324200,0.45732421875,7.50091552734375,0.4416351318359375,0.7311248779296875
1663860780984211700,0.467211669921875,7.220794677734375,-1.5647125244140625,-0.4276580810546875
1663860780994069000,0.477069091796875,7.9246978759765625,-3.4561309814453125,-1.68701171875
1663860781003956700,0.486956787109375,8.733932495117188,-3.5399322509765625,-0.69342041015625
1663860781013844500,0.496844482421875,9.97174072265625,-2.709136962890625,1.5427703857421875
1663860781023732000,0.50673193359375,11.894287109375,-2.560699462890625,2.4310150146484375
1663860781033619700,0.51661962890625,12.9405517578125,-2.4266204833984375,2.9002838134765625
1663860781043507500,0.526507568359375,12.042724609375,-1.579071044921875,4.4373626708984375
1663860781053364700,0.53636474609375,10.160873413085938,-1.0379791259765625,3.61614990234375
1663860781063252200,0.546252197265625,6.9741973876953125,-1.8137054443359375,2.26580810546875
1663860781073140000,0.556139892578125,2.49224853515625,-1.8975067138671875,2.92901611328125
1663860781082997200,0.565997314453125,-0.1533355712890625,-0.142547607421875,4.9712677001953125
1663860781092915500,0.57591552734375,0.80194091796875,1.1455230712890625,6.316802978515625
1663860781102803200,0.58580322265625,2.94476318359375,0.7959747314453125,6.833953857421875
1663860781112691000,0.59569091796875,6.4642333984375,-0.3508453369140625,6.2880706787109375
1663860781122578400,0.605578369140625,10.40509033203125,-1.705963134765625,6.146820068359375
1663860781132466200,0.615466064453125,11.283767700195312,-1.959747314453125,7.3127899169921875
1663860781142323500,0.625323486328125,9.557540893554688,-0.8057403564453125,9.223358154296875
1663860781152211200,0.635211181640625,8.453811645507812,1.030609130859375,11.507431030273438
1663860781162098700,0.6450986328125,7.2231903076171875,2.5245819091796875,11.782760620117188
1663860781171986400,0.654986328125,5.6430206298828125,2.5126190185546875,11.354202270507812
1663860781181874200,0.664874267578125,6.8736419677734375,1.2867889404296875,10.386947631835938
1663860781191762000,0.674761962890625,9.2127685546875,0.4631805419921875,9.264068603515625
1663860781201649700,0.684649658203125,8.824920654296875,0.7337188720703125,8.7086181640625
1663860781211537200,0.694537109375,7.510498046875,1.5046539306640625,8.938461303710938
1663860781221425000,0.7044248046875,6.4833831787109375,2.8406219482421875,9.570526123046875
1663860781231312600,0.714312744140625,6.1984710693359375,3.5756378173828125,9.929656982421875
1663860781241200400,0.724200439453125,7.8361053466796875,2.4431915283203125,8.859451293945312
1663860781251088100,0.734088134765625,10.558319091796875,2.7089385986328125,8.26568603515625
1663860781260975600,0.7439755859375,10.769012451171875,3.26678466796875,8.576934814453125
1663860781270833000,0.7538330078125,9.169677734375,3.52056884765625,7.39898681640625
1663860781280690200,0.763690185546875,7.060394287109375,2.10321044921875,4.80126953125
1663860781290577700,0.77357763671875,5.8201904296875,1.41607666015625,3.7669830322265625
1663860781300465400,0.78346533203125,4.4818267822265625,1.6411285400390625,3.95611572265625
1663860781310322700,0.79332275390625,4.6183013916015625,2.4455718994140625,4.6959228515625
1663860781320241000,0.803240966796875,4.5345001220703125,1.3298797607421875,4.0782318115234375
1663860781330097700,0.81309765625,5.5999298095703125,0.0034942626953125,3.8004913330078125
1663860781339985400,0.8229853515625,6.4043731689453125,-1.1098175048828125,2.98406982421875
1663860781349873200,0.832873046875,6.679718017578125,-1.6389312744140625,3.30010986328125
1663860781359761000,0.842760986328125,7.56317138671875,-1.3013458251953125,4.70550537109375
1663860781369648400,0.8526484375,7.92230224609375,-1.0044708251953125,4.84197998046875
1663860781379536100,0.8625361328125,7.7978057861328125,-2.0291900634765625,3.750213623046875
1663860781389423900,0.872423828125,8.200027465820312,-3.5303497314453125,2.5411529541015625
1663860781399311600,0.8823115234375,8.32452392578125,-5.0003814697265625,1.6169891357421875
1663860781409199400,0.892199462890625,8.463394165039062,-6.25494384765625,1.044769287109375
1663860781419087000,0.902087158203125,7.6086578369140625,-6.444091796875,1.43023681640625
1663860781428974600,0.911974609375,5.307830810546875,-5.5343017578125,2.9481658935546875
1663860781438862300,0.9218623046875,3.2559967041015625,-4.4329681396484375,4.6456451416015625
1663860781448719600,0.9317197265625,1.82666015625,-3.8990478515625,5.84515380859375
1663860781458607400,0.941607421875,0.9360198974609375,-4.7561798095703125,5.8164215087890625
1663860781468494800,0.951494873046875,1.082061767578125,-5.804840087890625,6.0462646484375
1663860781478382600,0.961382568359375,1.08685302734375,-6.8535003662109375,6.11090087890625
1663860781488239900,0.971239990234375,1.3861236572265625,-7.4185333251953125,6.242584228515625
1663860781498127600,0.981127685546875,3.9694671630859375,-6.57098388671875,7.647979736328125
1663860781508015000,0.99101513671875,5.4921875,-5.8383636474609375,9.635162353515625
1663860781517902800,1.00090283203125,6.289459228515625,-5.70428466796875,10.521026611328125
1663860781527790600,1.01079052734375,6.406768798828125,-6.221435546875,9.510665893554688
1663860781537678300,1.02067822265625,6.643798828125,-6.78167724609375,6.97760009765625
1663860781547535400,1.030535400390625,6.078765869140625,-8.191864013671875,5.3208160400390625
1663860781557453600,1.04045361328125,6.627044677734375,-8.73773193359375,6.422149658203125
1663860781567341300,1.05034130859375,8.623809814453125,-8.16552734375,8.155548095703125
1663860781577229000,1.06022900390625,9.421066284179688,-8.488739013671875,8.552993774414062
1663860781587116800,1.07011669921875,10.206375122070312,-10.475921630859375,7.446868896484375
1663860781596973800,1.079973876953125,10.3955078125,-10.423248291015625,6.9009857177734375
1663860781606861600,1.089861572265625,7.3117828369140625,-6.5111236572265625,9.20660400390625
1663860781616718800,1.09971875,4.9391326904296875,-6.72900390625,9.618408203125
1663860781626637000,1.109636962890625,5.0277099609375,-6.9109649658203125,7.7557220458984375
1663860781636524800,1.11952490234375,6.3445281982421875,-6.815185546875,7.4971466064453125
1663860781646412500,1.12941259765625,8.298187255859375,-6.1041107177734375,10.566513061523438
1663860781656300000,1.139300048828125,11.774566650390625,-5.0051727294921875,16.226409912109375
1663860781666187800,1.149187744140625,14.556640625,-3.0443267822265625,19.595046997070312
1663860781676045000,1.159045166015625,13.926956176757812,-3.724273681640625,20.330062866210938
1663860781685932800,1.168932861328125,13.0458984375,-2.4314117431640625,19.298171997070312
1663860781695820300,1.1788203125,11.618942260742188,-1.05474853515625,17.322952270507812
1663860781705708000,1.1887080078125,7.1633453369140625,-1.9405975341796875,14.612716674804688
1663860781715565300,1.1985654296875,2.5161895751953125,-2.5750579833984375,11.124359130859375
1663860781725453000,1.208453125,0.89532470703125,-1.3540191650390625,8.902542114257812
1663860781735340500,1.218340576171875,2.147491455078125,1.717742919921875,10.035003662109375
1663860781745228300,1.228228271484375,0.9264373779296875,1.8709716796875,14.366104125976562
1663860781755085600,1.23808544921875,-0.7494964599609375,1.0401763916015625,17.1529541015625
1663860781765003800,1.248003662109375,3.5768280029296875,1.7632293701171875,17.95501708984375
1663860781774891500,1.2578916015625,5.4586639404296875,2.0074462890625,17.318161010742188
1663860781784779000,1.267779052734375,2.920806884765625,1.52142333984375,14.6270751953125
1663860781794636300,1.27763623046875,0.2129669189453125,1.59564208984375,11.68939208984375
1663860781804524000,1.28752392578125,-2.1357421875,1.8733673095703125,9.307159423828125
1663860781814411800,1.297411865234375,-4.6209259033203125,1.50225830078125,6.4628448486328125
1663860781824299300,1.30729931640625,-8.487564086914062,0.755279541015625,3.70233154296875
1663860781834187000,1.31718701171875,-9.481155395507812,-1.3540191650390625,1.1692657470703125
1663860781844074800,1.32707470703125,-10.575302124023438,-4.7394256591796875,-0.2361297607421875
1663860781853962500,1.33696240234375,-11.04217529296875,-8.47198486328125,-1.818695068359375
1663860781863850200,1.346850341796875,-3.59381103515625,-7.1767120361328125,-1.56011962890625
1663860781873738000,1.356738037109375,1.8290557861328125,-10.03778076171875,-0.3845672607421875
1663860781883625500,1.36662548828125,-1.6569061279296875,-8.93646240234375,0.2714385986328125
1663860781893513200,1.37651318359375,-4.079833984375,-5.2589569091796875,1.509246826171875
1663860781903401000,1.38640087890625,-2.05194091796875,-5.244598388671875,3.9273834228515625
1663860781913288700,1.396288818359375,-4.836395263671875,-4.6244964599609375,3.97528076171875
1663860781923176400,1.406176513671875,-4.0941925048828125,-5.55584716796875,5.21307373046875
1663860781933064000,1.41606396484375,-1.063140869140625,-6.00115966796875,6.7429656982421875
1663860781942951700,1.42595166015625,4.5273284912109375,-6.1352386474609375,10.118789672851562
1663860781952809000,1.43580908203125,1.3166961669921875,-5.510345458984375,11.871353149414062
1663860781962696700,1.44569677734375,3.5768280029296875,-4.3347930908203125,9.932052612304688
1663860781972584200,1.455584228515625,3.976654052734375,-4.2438201904296875,8.560165405273438
1663860781982472000,1.465471923828125,-0.0839080810546875,-4.5981597900390625,7.626434326171875
1663860781992359700,1.475359619140625,-1.1349639892578125,-2.7330780029296875,7.8395233154296875
1663860782002247400,1.485247314453125,-2.806121826171875,-2.14410400390625,9.07012939453125
1663860782012104400,1.4951044921875,-2.9258270263671875,-3.32684326171875,9.37420654296875
1663860782021961700,1.504961669921875,-1.64013671875,-4.188751220703125,8.459609985351562
1663860782031849500,1.514849365234375,-1.2259368896484375,-4.770538330078125,8.047805786132812
1663860782041706500,1.52470654296875,0.9288330078125,-5.02911376953125,8.821136474609375
1663860782051594200,1.53459423828125,-1.0511627197265625,-4.8303985595703125,9.721359252929688
1663860782061512400,1.544512451171875,-5.585784912109375,-3.080230712890625,11.698974609375
1663860782071400200,1.554400146484375,-6.1699676513671875,-2.0794677734375,11.694183349609375
1663860782081288000,1.564287841796875,-6.749359130859375,-1.674835205078125,9.9775390625
1663860782091175700,1.57417578125,-7.0199127197265625,-1.5958404541015625,10.439620971679688
1663860782101063400,1.5840634765625,-7.11328125,-1.8615875244140625,12.436386108398438
1663860782110951000,1.593950927734375,-3.3639678955078125,-1.3851470947265625,12.350189208984375
1663860782120838700,1.603838623046875,-1.443817138671875,-1.4857025146484375,11.79473876953125
1663860782130726400,1.613726318359375,-0.36163330078125,-1.0595245361328125,12.474685668945312
1663860782140614100,1.6236142578125,1.3693695068359375,-0.9853057861328125,12.979873657226562
1663860782150502000,1.633501953125,1.280792236328125,-1.1696624755859375,12.821853637695312
1663860782160389400,1.643389404296875,-1.2355194091796875,-0.70758056640625,13.705307006835938
1663860782170246700,1.65324658203125,-2.1692657470703125,-0.96136474609375,14.3421630859375
1663860782180134400,1.663134521484375,0.215362548828125,-1.95257568359375,13.580810546875
1663860782190022100,1.673022216796875,0.44281005859375,-1.9549560546875,12.625518798828125
1663860782199909600,1.68290966796875,1.694976806640625,-2.3619842529296875,11.909652709960938
1663860782209767000,1.692766845703125,7.8097686767578125,-4.6340789794921875,11.629531860351562
1663860782219654700,1.702654541015625,11.432205200195312,-4.1169281005859375,11.4140625
1663860782229511700,1.71251171875,4.83856201171875,-5.519927978515625,7.2840576171875
1663860782239430000,1.722429931640625,0.955169677734375,-5.0937652587890625,2.3256683349609375
1663860782249317600,1.732317626953125,-0.155731201171875,-5.80963134765625,0.949005126953125
1663860782259205400,1.742205322265625,4.0197601318359375,-6.4943695068359375,2.0838623046875
1663860782269093000,1.752093017578125,4.4602813720703125,-7.3395233154296875,4.214691162109375
1663860782278980900,1.76198095703125,2.334228515625,-7.40655517578125,6.3311767578125
1663860782288868400,1.771868408203125,-0.9290618896484375,-8.996307373046875,6.8961944580078125
1663860782298756000,1.781756103515625,-1.453399658203125,-9.63555908203125,4.815643310546875
1663860782308643800,1.791643798828125,2.1762237548828125,-8.934066772460938,2.8332366943359375
1663860782318501000,1.801501220703125,1.8913116455078125,-6.5039520263671875,1.2051849365234375
1663860782328388900,1.811388916015625,-2.15728759765625,-7.2772674560546875,3.1588592529296875
1663860782338276400,1.8212763671875,4.39324951171875,-6.518310546875,6.2090606689453125
1663860782348164000,1.8311640625,3.3661346435546875,-4.399444580078125,6.5897369384765625
1663860782358051800,1.8410517578125,0.2440948486328125,-4.6053466796875,6.39581298828125
1663860782367939600,1.850939697265625,0.8258819580078125,-4.801666259765625,9.898529052734375
1663860782377827300,1.860827392578125,3.0500946044921875,-3.7099151611328125,13.868118286132812
1663860782387684400,1.870684326171875,-0.5316314697265625,-4.6604156494140625,10.786773681640625
1663860782397572000,1.880572021484375,-2.4014892578125,-5.203887939453125,8.524261474609375
1663860782407459800,1.8904599609375,-1.68084716796875,-6.89898681640625,7.50433349609375
1663860782417347600,1.90034765625,-2.533172607421875,-7.6842803955078125,4.9832305908203125
1663860782427235000,1.910235107421875,-4.496429443359375,-7.8207550048828125,2.39031982421875
1663860782437122800,1.920122802734375,-3.651275634765625,-6.5039520263671875,-0.238525390625
1663860782447010600,1.930010498046875,-2.372772216796875,-7.959625244140625,0.3121490478515625
1663860782456898300,1.939898193359375,-1.4581756591796875,-7.1240386962890625,4.50439453125
1663860782466755300,1.94975537109375,-0.45501708984375,-5.615692138671875,5.6176910400390625
1663860782476612600,1.959612548828125,-1.21636962890625,-6.080169677734375,3.72149658203125
1663860782486500400,1.969500244140625,-1.5060577392578125,-7.653167724609375,3.2234954833984375
1663860782496388000,1.97938818359375,2.9112396240234375,-8.000320434570312,6.4053955078125
1663860782506275600,1.989275634765625,4.261566162109375,-6.482391357421875,8.74212646484375
1663860782516163300,1.999163330078125,5.7914581298828125,-6.1136932373046875,13.829803466796875
1663860782526051000,2.009051025390625,7.6182403564453125,-5.3643035888671875,16.207244873046875
1663860782535938800,2.018938720703125,1.9248199462890625,-4.717864990234375,15.141830444335938
1663860782545826600,2.02882666015625,-6.7517547607421875,-0.6190032958984375,17.74432373046875
1663860782555714300,2.03871435546875,-8.75091552734375,-1.8567962646484375,18.709197998046875
1663860782565601800,2.048601806640625,-3.5028228759765625,-5.30206298828125,14.588775634765625
1663860782575489500,2.058489501953125,-1.87237548828125,-6.9013824462890625,10.181045532226562
1663860782585377300,2.068377197265625,-1.8436431884765625,-10.10003662109375,5.4884033203125
1663860782595265000,2.07826513671875,-0.6226043701171875,-13.09039306640625,0.6305694580078125
1663860782605152800,2.08815283203125,1.8075103759765625,-13.772735595703125,-3.8824920654296875
1663860782615009800,2.098009765625,2.7053375244140625,-12.755203247070312,-5.7571563720703125
1663860782624897500,2.1078974609375,0.8187103271484375,-9.348251342773438,-0.456390380859375
1663860782634785300,2.117785400390625,0.2848052978515625,-7.25811767578125,3.01519775390625
1663860782644673000,2.127673095703125,0.0812835693359375,-6.5159149169921875,4.774932861328125
1663860782654560500,2.137560546875,-3.239471435546875,-6.5829620361328125,6.4939727783203125
1663860782664449500,2.147449462890625,-3.4956512451171875,-5.8383636474609375,8.529052734375
1663860782674306600,2.157306640625,0.7037811279296875,-5.4097900390625,9.764450073242188
1663860782684194300,2.1671943359375,2.7795562744140625,-6.1352386474609375,10.3055419921875
1663860782694082000,2.17708203125,2.099609375,-7.3395233154296875,8.141189575195312
1663860782703969800,2.1869697265625,-1.0032806396484375,-8.833511352539062,6.2066650390625
1663860782713857300,2.196857177734375,-2.27459716796875,-9.795974731445312,6.9105682373046875
1663860782723745000,2.2067451171875,-2.62176513671875,-10.272415161132812,7.2744903564453125
1663860782733632800,2.2166328125,-2.193206787109375,-10.86138916015625,6.7788848876953125
1663860782743490000,2.226489990234375,-0.78302001953125,-10.157501220703125,7.0278778076171875
1663860782753347000,2.23634716796875,1.5537261962890625,-9.556549072265625,6.539459228515625
1663860782763234800,2.24623486328125,1.8697662353515625,-9.300369262695312,6.0438690185546875
1663860782773122600,2.25612255859375,-1.972930908203125,-9.302764892578125,5.7805023193359375
1663860782782979800,2.265979736328125,-4.99920654296875,-9.568527221679688,5.91937255859375
1663860782792867300,2.275867431640625,-4.017578125,-9.616409301757812,5.852325439453125
1663860782802785500,2.28578564453125,-2.849212646484375,-10.890121459960938,4.55706787109375
1663860782812673300,2.29567333984375,-3.917022705078125,-12.692962646484375,2.73028564453125
1663860782822530600,2.305530517578125,-4.2953033447265625,-13.506988525390625,0.726348876953125
1663860782832448800,2.31544873046875,-2.2123565673828125,-11.993850708007812,0.5970611572265625
1663860782842336500,2.32533642578125,-0.0934906005859375,-11.158279418945312,0.5108642578125
1663860782852224000,2.33522412109375,-0.2227783203125,-12.058486938476562,-0.5282135009765625
1663860782862081300,2.345081298828125,-2.5882415771484375,-14.249191284179688,-1.2560577392578125
1663860782871938600,2.3549384765625,-2.9713134765625,-17.974563598632812,-1.4475860595703125
1663860782881826000,2.364825927734375,-2.2985382080078125,-20.65606689453125,-2.264007568359375
1663860782891713800,2.3747138671875,-4.750213623046875,-24.683120727539062,-1.756439208984375
1663860782901601500,2.3846015625,-3.3017120361328125,-25.827545166015625,-1.5361785888671875
1663860782911458800,2.394458740234375,-0.208404541015625,-22.755783081054688,0.6664886474609375
1663860782921377000,2.404376953125,-0.3640289306640625,-16.198074340820312,2.5746612548828125
1663860782931264500,2.414264404296875,-2.174041748046875,-10.672256469726562,-0.0421905517578125
1663860782941121800,2.424121826171875,-2.901885986328125,-10.258056640625,-5.3333740234375
1663860782951040000,2.4340400390625,-1.032012939453125,-9.745697021484375,-4.1674041748046875
1663860782960927700,2.443927734375,4.7667388916015625,-1.7299041748046875,11.397293090820312
1663860782970784800,2.45378466796875,-4.6807708740234375,-1.8975067138671875,0.20440673828125
1663860782980703200,2.463703125,3.27276611328125,-0.8895416259765625,-1.13873291015625
1663860782990560300,2.473560302734375,-1.285797119140625,-4.6149139404296875,-4.7970733642578125
1663860783000448000,2.483447998046875,-0.8237152099609375,-6.3100128173828125,-6.3078155517578125
1663860783010335700,2.493335693359375,-1.58746337890625,-6.080169677734375,-5.211273193359375
1663860783020223500,2.503223388671875,-1.719146728515625,-5.2422027587890625,-3.995025634765625
1663860783030080500,2.51308056640625,-0.852447509765625,-5.10333251953125,-3.846588134765625
1663860783039998700,2.522998779296875,-0.45501708984375,-5.0315093994140625,-3.705322265625
1663860783049856000,2.53285595703125,0.0501708984375,-4.3084564208984375,-3.0301666259765625
1663860783059743700,2.54274365234375,-0.02166748046875,-3.5159759521484375,-1.9862823486328125
1663860783069631200,2.55263134765625,-0.229949951171875,-3.417816162109375,-2.694976806640625
1663860783079519000,2.56251904296875,-0.24432373046875,-3.571044921875,-3.288726806640625
1663860783089406700,2.57240673828125,-0.344879150390625,-2.9820709228515625,-2.2496490478515625
1663860783099294500,2.58229443359375,-0.2155914306640625,-2.42901611328125,-1.5218048095703125
1663860783109182200,2.59218212890625,-0.186859130859375,-2.3260650634765625,-1.110015869140625
1663860783119069700,2.602069580078125,-0.3855743408203125,-2.6540679931640625,-0.667083740234375
1663860783128957400,2.61195751953125,-0.8380889892578125,-3.15924072265625,-0.4300537109375
1663860783138814700,2.621814697265625,-1.7694244384765625,-3.3795166015625,-0.27203369140625
1663860783148702500,2.631702392578125,-3.0431365966796875,-3.925384521484375,-0.5377960205078125
1663860783158590000,2.64158984375,-5.2146759033203125,-4.8471527099609375,-1.090850830078125
1663860783168477700,2.651477783203125,-8.269683837890625,-6.1831207275390625,-1.6630706787109375
1663860783178365400,2.661365478515625,-11.734100341796875,-8.316360473632812,-2.2759857177734375
1663860783188253200,2.671253173828125,-15.349334716796875,-11.359390258789062,-2.6183624267578125
1663860783198141000,2.681140869140625,-16.84332275390625,-15.17095947265625,-3.4060516357421875
1663860783208028700,2.691028564453125,-15.76593017578125,-20.002456665039062,-4.8880615234375
1663860783217916200,2.700916259765625,-16.687698364257812,-24.32159423828125,-5.0436859130859375
1663860783227804000,2.710803955078125,-17.542434692382812,-25.782058715820312,-5.2232513427734375
1663860783237691600,2.720691650390625,-14.092376708984375,-21.462921142578125,-5.55364990234375
1663860783247579400,2.730579345703125,-10.132369995117188,-11.582046508789062,-5.7475738525390625
1663860783257467100,2.740467041015625,-7.0247039794921875,-2.90545654296875,-7.54083251953125
1663860783267354600,2.750354736328125,-6.0167388916015625,3.9515380859375,-4.533721923828125
1663860783277242400,2.760242431640625,-5.9640655517578125,5.711273193359375,-0.0206451416015625
1663860783287099600,2.770099609375,-5.6360626220703125,-1.02362060546875,-0.4899139404296875
1663860783296987400,2.7799873046875,-0.809356689453125,-9.348251342773438,-4.2631683349609375
1663860783306875000,2.789875,3.246429443359375,-12.566070556640625,-3.056488037109375
1663860783316762600,2.7997626953125,5.645416259765625,-14.395233154296875,-1.15789794921875
1663860783326620000,2.809619873046875,0.1004486083984375,-19.016036987304688,-3.841796875
1663860783336507600,2.819507568359375,-10.42926025390625,-24.56341552734375,-3.9351654052734375
1663860783346395100,2.82939501953125,-17.781845092773438,-26.095703125,2.217926025390625
1663860783356283000,2.839282958984375,0.004669189453125,-20.067092895507812,2.6321258544921875
1663860783366170600,2.849170654296875,18.744094848632812,-7.3658599853515625,-3.8178558349609375
1663860783376058400,2.859058349609375,14.149612426757812,2.5078277587890625,-11.77618408203125
1663860783385946000,2.868946044921875,-3.1891937255859375,3.21173095703125,-17.290023803710938
1663860783395803100,2.87880322265625,-20.760238647460938,-1.780181884765625,-16.471206665039062
1663860783405691000,2.88869091796875,-2.521209716796875,-4.928558349609375,-6.12347412109375
1663860783415578600,2.89857861328125,17.324325561523438,-7.464019775390625,1.4493865966796875
1663860783425466400,2.90846630859375,16.440872192382812,-8.680282592773438,4.8659210205078125
1663860783435354000,2.91835400390625,5.25994873046875,-11.0625,3.6257171630859375
1663860783445241600,2.92824169921875,-2.1644744873046875,-14.069625854492188,2.2945404052734375
1663860783455129300,2.93812939453125,-3.8021087646484375,-15.24517822265625,2.9266204833984375
1663860783465017000,2.94801708984375,-0.2969970703125,-15.786270141601562,1.6433258056640625
1663860783474904800,2.95790478515625,0.4835205078125,-15.776687622070312,-0.4156951904296875
1663860783484761900,2.967761962890625,-1.9130859375,-14.39044189453125,-1.385345458984375
1663860783494649600,2.977649658203125,-1.78857421875,-12.743240356445312,-2.264007568359375
1663860783504537300,2.987537353515625,0.596038818359375,-11.795135498046875,-3.0924072265625
1663860783514394600,2.99739453125,2.26959228515625,-11.141510009765625,-3.413238525390625
1663860783524251600,3.007251708984375,2.255218505859375,-10.454376220703125,-3.44195556640625
1663860783534169900,3.017169921875,0.3853607177734375,-9.817520141601562,-3.2911224365234375
1663860783544027100,3.027027099609375,-2.1285552978515625,-9.341079711914062,-3.14508056640625
1663860783553915000,3.036914794921875,-2.5762786865234375,-8.981948852539062,-3.35577392578125
1663860783563833000,3.0468330078125,-1.443817138671875,-8.436065673828125,-3.920806884765625
1663860783573690000,3.056690185546875,-0.6393585205078125,-7.6890716552734375,-4.112335205078125
1663860783583577900,3.066577880859375,0.110015869140625,-7.3347320556640625,-3.3653411865234375
1663860783593465600,3.076465576171875,0.890533447265625,-7.813568115234375,-2.4770965576171875
1663860783603353300,3.086353271484375,0.6247711181640625,-8.3570556640625,-1.6151885986328125
1663860783613210400,3.09621044921875,0.3973236083984375,-8.460006713867188,-0.63116455078125
1663860783623128600,3.106128662109375,0.3446502685546875,-8.3570556640625,-0.40850830078125
1663860783633016300,3.116016357421875,-0.39276123046875,-8.3570556640625,-1.23211669921875
1663860783642904000,3.125904052734375,-0.756683349609375,-8.179885864257812,-2.5082244873046875
1663860783652761000,3.135760986328125,-1.29058837890625,-8.031448364257812,-3.6717987060546875
1663860783662648800,3.14564892578125,-1.5898590087890625,-7.9955291748046875,-4.153045654296875
1663860783672536600,3.15553662109375,-1.7526702880859375,-7.7417449951171875,-3.3437957763671875
1663860783682424300,3.16542431640625,-1.553955078125,-7.411346435546875,-1.797149658203125
1663860783692312000,3.17531201171875,-0.8907623291015625,-7.8470916748046875,-0.5377960205078125
1663860783702169000,3.185169189453125,0.088470458984375,-9.008285522460938,0.1637115478515625
1663860783712056800,3.195056884765625,0.1698760986328125,-10.133560180664062,0.7885894775390625
1663860783721944600,3.204944580078125,-1.0296173095703125,-10.854217529296875,1.320098876953125
1663860783731832300,3.214832275390625,-2.7725982666015625,-11.340240478515625,1.1165924072265625
1663860783741720000,3.224719970703125,-4.264190673828125,-11.668243408203125,0.4079132080078125
1663860783751607600,3.234607666015625,-4.77655029296875,-11.910049438476562,-0.032623291015625
1663860783761495300,3.244495361328125,-3.0455322265625,-11.991455078125,-0.0158538818359375
1663860783771383000,3.254383056640625,-1.1086273193359375,-11.917236328125,0.3911590576171875
1663860783781270800,3.264270751953125,-0.7806243896484375,-11.957931518554688,0.980133056640625
1663860783791158500,3.274158447265625,-1.6042327880859375,-12.271575927734375,1.4110870361328125
1663860783801015600,3.284015625,-3.92181396484375,-12.769577026367188,1.509246826171875
1663860783810903300,3.2939033203125,-4.328826904296875,-13.284332275390625,1.7007904052734375
1663860783820791000,3.303791015625,-1.39593505859375,-13.631484985351562,2.112579345703125
1663860783830648000,3.31364794921875,0.5194244384765625,-13.6075439453125,2.289764404296875
1663860783840535800,3.323535888671875,-0.5914764404296875,-13.430374145507812,2.0886383056640625
1663860783850423600,3.333423583984375,-2.70794677734375,-13.425582885742188,1.29376220703125
1663860783860311300,3.343311279296875,-4.56585693359375,-13.88287353515625,0.1230010986328125
1663860783870199000,3.353198974609375,-4.4844512939453125,-14.443115234375,-1.0812835693359375
1663860783880086500,3.36308642578125,-3.7350616455078125,-14.85491943359375,-2.27838134765625
1663860783889974300,3.372974365234375,-6.3447418212890625,-15.582763671875,-3.5760345458984375
1663860783899831600,3.38283154296875,-9.06695556640625,-17.69683837890625,-5.316619873046875
1663860783909719300,3.39271923828125,-4.83160400390625,-22.0279541015625,-7.5336456298828125
1663860783919607000,3.40260693359375,5.348541259765625,-23.5386962890625,-9.154525756835938
1663860783929494500,3.41249462890625,9.150527954101562,-19.0184326171875,-7.5264739990234375
1663860783939382300,3.42238232421875,5.391632080078125,-16.69366455078125,-6.8393402099609375
1663860783949270000,3.43227001953125,3.0548858642578125,-17.170120239257812,-9.592666625976562
1663860783959157800,3.44215771484375,1.2688140869140625,-16.540435791015625,-9.475357055664062
1663860783969045500,3.45204541015625,-1.9968719482421875,-14.85491943359375,-5.8744659423828125
1663860783978902500,3.461902587890625,-4.359954833984375,-14.16778564453125,-3.3318328857421875
1663860783988790300,3.471790283203125,-3.4022674560546875,-14.541275024414062,-1.385345458984375
1663860783998708500,3.48170849609375,-0.9290618896484375,-15.388824462890625,0.1541290283203125
1663860784008565800,3.491565673828125,0.4404144287109375,-15.879638671875,1.1261749267578125
1663860784018453200,3.501453369140625,-0.2419281005859375,-15.769500732421875,2.064697265625
1663860784028341000,3.511341064453125,-0.8931427001953125,-15.046463012695312,2.3927001953125
1663860784038228700,3.521228759765625,-1.168487548828125,-13.535720825195312,1.2171478271484375
1663860784048116500,3.531116455078125,-0.5124664306640625,-11.8861083984375,0.0799102783203125
1663860784057973500,3.540973388671875,-0.1317901611328125,-10.044967651367188,-0.0781097412109375
1663860784067891700,3.5508916015625,0.2321319580078125,-8.136795043945312,-0.329498291015625
1663860784077779500,3.560779541015625,1.4220428466796875,-6.4584503173828125,-0.0613555908203125
1663860784087667200,3.570667236328125,1.462738037109375,-4.950103759765625,0.326507568359375
1663860784097524500,3.5805244140625,1.4747161865234375,-4.0738372802734375,0.0918731689453125
1663860784107412000,3.590411865234375,1.714141845703125,-3.7218780517578125,-0.4468231201171875
1663860784117269200,3.600269287109375,1.915252685546875,-3.571044921875,-1.0357818603515625
1663860784127187500,3.6101875,2.1307220458984375,-3.25262451171875,-1.5481414794921875
1663860784137075200,3.6200751953125,2.200164794921875,-2.86236572265625,-1.892913818359375
1663860784146963000,3.629962890625,2.2312774658203125,-2.6061859130859375,-2.2568359375
1663860784156850700,3.6398505859375,2.2408599853515625,-2.402679443359375,-2.6446990966796875
1663860784166738200,3.64973828125,2.4778900146484375,-1.89990234375,-2.6590576171875
1663860784176626000,3.6596259765625,2.772369384765625,-1.6341400146484375,-2.759613037109375
1663860784186513700,3.669513671875,2.8585662841796875,-1.6389312744140625,-2.843414306640625
1663860784196371000,3.679370849609375,2.89447021484375,-1.56231689453125,-2.6877899169921875
1663860784206258400,3.689258544921875,2.9064483642578125,-1.5335845947265625,-2.5082244873046875
1663860784216146200,3.699146240234375,2.6694183349609375,-1.74188232421875,-2.41485595703125
1663860784226034000,3.709033935546875,2.2911376953125,-2.0938262939453125,-2.2664031982421875
1663860784235891200,3.71889111328125,1.5273895263671875,-2.47210693359375,-2.27838134765625
1663860784245778700,3.72877880859375,-0.4430389404296875,-3.384307861328125,-2.441192626953125
1663860784255666400,3.73866650390625,-3.1053924560546875,-5.1057281494140625,-2.7213134765625
1663860784265554200,3.74855419921875,-6.474029541015625,-7.10009765625,-3.0325469970703125
1663860784275442000,3.75844189453125,-11.013442993164062,-9.235733032226562,-3.2432403564453125
1663860784285329700,3.76832958984375,-13.0509033203125,-11.866958618164062,-2.6710357666015625
1663860784295217200,3.778217041015625,-13.424407958984375,-15.894012451171875,-2.5608978271484375
1663860784305105000,3.78810498046875,-20.539962768554688,-19.868377685546875,-3.0732574462890625
1663860784314992600,3.79799267578125,-29.3961181640625,-25.54742431640625,-4.275146484375
1663860784324880400,3.80788037109375,-20.082672119140625,-32.35414123535156,-6.9734039306640625
1663860784334768000,3.81776806640625,-9.885772705078125,-25.44207763671875,-2.833831787109375
1663860784344625200,3.827625244140625,-8.686279296875,-11.764007568359375,1.9832916259765625
1663860784354513000,3.837512939453125,-7.551422119140625,-3.618927001953125,0.7718353271484375
1663860784364370200,3.8473701171875,-10.328704833984375,-0.1593170166015625,0.345672607421875
1663860784374288400,3.857288330078125,-4.78851318359375,-3.8368072509765625,-1.2345123291015625
1663860784384176000,3.867176025390625,13.1632080078125,-10.255661010742188,-0.011077880859375
1663860784394063600,3.877063720703125,15.025894165039062,-17.261093139648438,-1.7540435791015625
1663860784403951400,3.886951416015625,-4.43896484375,-23.435745239257812,-7.988555908203125
1663860784413808600,3.89680859375,-24.248580932617188,-26.105270385742188,-6.9614410400390625
1663860784423665700,3.906665771484375,-15.876068115234375,-24.017532348632812,3.2665863037109375
1663860784433583900,3.916583984375,19.59881591796875,-10.41607666015625,6.7357940673828125
1663860784443471600,3.9264716796875,18.135971069335938,3.6378936767578125,0.0799102783203125
1663860784453359400,3.936359375,5.41796875,5.8932342529296875,-9.077911376953125
1663860784463216600,3.946216552734375,-13.046112060546875,-0.216766357421875,-14.627670288085938
1663860784473104100,3.956104248046875,-12.344619750976562,-5.6707611083984375,-10.095443725585938
1663860784482961400,3.96596142578125,17.647552490234375,-6.63323974609375,2.565093994140625
1663860784492879600,3.975879638671875,22.28033447265625,-6.8439178466796875,6.9129638671875
1663860784502767400,3.985767333984375,3.8952484130859375,-9.362625122070312,1.9832916259765625
1663860784512624400,3.995624267578125,-5.9808349609375,-13.389663696289062,-2.623138427734375
1663860784522542600,4.00554248046875,-5.4541015625,-16.4063720703125,-3.255218505859375
1663860784532430300,4.015430419921875,-0.2993927001953125,-17.423904418945312,-1.670257568359375
1663860784542318000,4.025318115234375,1.5752716064453125,-15.781478881835938,1.5882568359375
1663860784552205800,4.035205810546875,-0.270660400390625,-14.524520874023438,2.629730224609375
1663860784562093600,4.045093505859375,-1.041595458984375,-13.842178344726562,0.8891448974609375
1663860784571981000,4.05498095703125,-0.25628662109375,-12.487060546875,-1.1890106201171875
1663860784581868800,4.064868896484375,0.363800048828125,-10.519027709960938,-2.2664031982421875
1663860784591756500,4.074756591796875,-0.0623626708984375,-8.44085693359375,-2.314300537109375
1663860784601644300,4.084644287109375,-0.5124664306640625,-6.8223724365234375,-2.77398681640625
1663860784611532000,4.094531982421875,-1.0822906494140625,-6.0729827880859375,-3.6717987060546875
1663860784621358600,4.104358642578125,-1.3145294189453125,-6.0729827880859375,-3.916015625
1663860784631246300,4.114246337890625,-0.3784027099609375,-6.67633056640625,-3.27197265625
1663860784641134000,4.124134033203125,0.452392578125,-7.612457275390625,-2.14190673828125
1663860784650991000,4.1339912109375,0.4212646484375,-8.7904052734375,-1.24407958984375
1663860784660909300,4.143909423828125,-0.0312347412109375,-9.506271362304688,-0.7819976806640625
1663860784670797000,4.153797119140625,-0.8668060302734375,-9.798370361328125,-0.5665283203125
1663860784680684800,4.163684814453125,-1.010467529296875,-9.834274291992188,-0.710174560546875
1663860784690542000,4.1735419921875,-0.524444580078125,-9.26446533203125,-1.2393035888671875
1663860784700399000,4.183399169921875,-0.6752777099609375,-8.661117553710938,-2.4483642578125
1663860784710317300,4.1933173828125,-1.0272216796875,-8.105667114257812,-3.722076416015625
1663860784720205000,4.203205078125,-1.855621337890625,-7.9356842041015625,-4.7707366943359375
1663860784730092800,4.2130927734375,-3.165252685546875,-8.036239624023438,-4.95269775390625
1663860784739949800,4.22294970703125,-3.651275634765625,-8.285232543945312,-4.2512054443359375
1663860784749868000,4.232867919921875,-3.0335693359375,-8.582107543945312,-2.632720947265625
1663860784759725300,4.242725341796875,-1.2379150390625,-9.120803833007812,-0.956787109375
1663860784769613000,4.252613037109375,0.6175994873046875,-9.949203491210938,0.3289031982421875
1663860784779470000,4.262469970703125,0.9839019775390625,-10.552536010742188,1.25067138671875
1663860784789388300,4.27238818359375,0.0693206787109375,-10.830276489257812,1.4493865966796875
1663860784799276000,4.282276123046875,-1.6209869384765625,-11.067291259765625,0.7191619873046875
1663860784809133300,4.29213330078125,-3.8188629150390625,-11.3785400390625,-0.33428955078125
1663860784819021000,4.30202099609375,-4.8747100830078125,-11.215728759765625,-0.6527099609375
1663860784828908800,4.31190869140625,-4.0032196044921875,-10.911666870117188,0.2546844482421875
1663860784838796300,4.32179638671875,-0.84765625,-11.2301025390625,1.7031707763671875
1663860784848653600,4.331653564453125,1.95355224609375,-11.5150146484375,2.708740234375
1663860784858541300,4.341541259765625,1.55133056640625,-11.627532958984375,2.883514404296875
1663860784868429000,4.351428955078125,-0.914703369140625,-12.671417236328125,2.4046783447265625
1663860784878347300,4.36134716796875,-3.715911865234375,-14.613113403320312,1.530792236328125
1663860784888204300,4.371204345703125,-4.8747100830078125,-15.812606811523438,1.2913818359375
1663860784898122500,4.38112255859375,-3.4166412353515625,-16.272293090820312,1.3440399169921875
1663860784907979800,4.390979736328125,-1.1038360595703125,-15.843734741210938,1.4278411865234375
1663860784917836800,4.4008369140625,-1.180450439453125,-15.178146362304688,1.5260009765625
1663860784927755000,4.410755126953125,-3.684783935546875,-15.032089233398438,0.865203857421875
1663860784937642800,4.420642822265625,-5.870697021484375,-15.020126342773438,-0.4923095703125
1663860784947530500,4.430530517578125,-5.2410125732421875,-15.046463012695312,-1.9048919677734375
1663860784957418200,4.440418212890625,-5.363128662109375,-15.601913452148438,-3.87530517578125
1663860784967275300,4.450275146484375,-6.409393310546875,-16.530868530273438,-6.0540313720703125
1663860784977193500,4.460193359375,-3.567474365234375,-15.829360961914062,-7.514495849609375
1663860784987050800,4.47005078125,2.185791015625,-14.469451904296875,-7.4857635498046875
1663860784996908000,4.479907958984375,6.2559356689453125,-14.366500854492188,-6.4490814208984375
1663860785006826200,4.489826171875,6.0811614990234375,-16.360870361328125,-6.4323272705078125
1663860785016713700,4.499713623046875,4.5225372314453125,-19.2291259765625,-8.582305908203125
1663860785026571000,4.509571044921875,3.4666900634765625,-20.292160034179688,-10.217559814453125
1663860785036489200,4.5194892578125,1.9559478759765625,-17.98175048828125,-7.67730712890625
1663860785046377000,4.529376953125,-0.2060089111328125,-15.36248779296875,-4.4259796142578125
1663860785056264700,4.5392646484375,-2.2291107177734375,-14.8333740234375,-3.0780487060546875
1663860785066152400,4.54915234375,-1.78857421875,-15.448684692382812,-2.326263427734375
1663860785076040000,4.5590400390625,-1.381561279296875,-16.236373901367188,-1.0717010498046875
1663860785085927700,4.568927734375,-1.3456573486328125,-16.667327880859375,0.3600311279296875
1663860785095815400,4.5788154296875,0.16748046875,-16.497344970703125,0.901123046875
1663860785105672700,4.588672607421875,0.32550048828125,-14.6226806640625,1.7917633056640625
1663860785115560200,4.598560302734375,-0.07672119140625,-12.206939697265625,1.4541778564453125
1663860785125448000,4.608447998046875,-0.957794189453125,-9.094467163085938,0.7095794677734375
1663860785135335700,4.618335693359375,-0.7399139404296875,-7.274871826171875,-1.0980377197265625
1663860785145223400,4.628223388671875,0.2536773681640625,-5.7330169677734375,-1.3685760498046875
1663860785155111200,4.638111083984375,0.8881378173828125,-3.8679351806640625,-0.7556610107421875
1663860785164998700,4.64799853515625,1.5393524169921875,-2.972503662109375,-0.9998779296875
1663860785174886400,4.657886474609375,2.1881866455078125,-2.7354736328125,-1.4451904296875
1663860785184774100,4.667774169921875,2.04693603515625,-2.5870361328125,-1.703765869140625
1663860785194662000,4.677661865234375,1.726104736328125,-2.709136962890625,-2.03656005859375
1663860785204549600,4.687549560546875,1.800323486328125,-2.34521484375,-1.682220458984375
1663860785214406700,4.69740673828125,2.401275634765625,-2.0411529541015625,-1.5744781494140625
1663860785224294400,4.70729443359375,2.2408599853515625,-2.3021240234375,-2.120361328125
1663860785234182100,4.71718212890625,1.927215576171875,-2.402679443359375,-2.580047607421875
1663860785244070000,4.72706982421875,2.159454345703125,-1.8687744140625,-2.6829986572265625
1663860785253957400,4.736957275390625,2.13311767578125,-1.768218994140625,-3.0588836669921875
1663860785263845000,4.74684521484375,1.927215576171875,-1.7969512939453125,-3.12353515625
1663860785273702400,4.756702392578125,1.9822845458984375,-1.71075439453125,-2.939178466796875
1663860785283590100,4.766590087890625,1.8984832763671875,-1.4234466552734375,-2.496246337890625
1663860785293478000,4.776477783203125,1.4842987060546875,-1.5766754150390625,-2.1443023681640625
1663860785303335000,4.7863349609375,0.9575653076171875,-1.9836883544921875,-1.8641815185546875
1663860785313222700,4.79622265625,0.53619384765625,-2.297332763671875,-1.6894073486328125
1663860785323110400,4.8061103515625,-0.7064056396484375,-2.919830322265625,-1.8162994384765625
1663860785332998100,4.815998046875,-3.29931640625,-4.071441650390625,-1.8953094482421875
1663860785342885600,4.8258857421875,-6.548248291015625,-5.5702056884765625,-1.7636260986328125
1663860785352773400,4.8357734375,-11.319900512695312,-7.447265625,-1.2201385498046875
1663860785362661000,4.8456611328125,-16.041259765625,-9.831893920898438,-0.79876708984375
1663860785372548900,4.855548828125,-18.677276611328125,-13.863723754882812,-0.95916748046875
1663860785382436600,4.8654365234375,-22.469696044921875,-20.984085083007812,-2.3765411376953125
1663860785392293600,4.875293701171875,-26.673919677734375,-30.412445068359375,-4.62469482421875
1663860785402181400,4.885181396484375,-20.199996948242188,-37.88714599609375,-5.431549072265625
1663860785412038700,4.89503857421875,-14.872894287109375,-29.1171875,0.400726318359375
1663860785421956900,4.904956787109375,-10.558547973632812,-14.012161254882812,0.537200927734375
1663860785431844400,4.91484423828125,-5.121307373046875,-4.3802947998046875,-3.0900115966796875
1663860785441732000,4.924732177734375,-4.4581146240234375,0.9755401611328125,-3.8178558349609375
1663860785451619800,4.934619873046875,-0.2347412109375,-1.57427978515625,-6.504150390625
1663860785461477000,4.94447705078125,10.656478881835938,-8.766464233398438,-6.7459564208984375
1663860785471364600,4.954364501953125,8.20721435546875,-17.112655639648438,-7.01171875
1663860785481222000,4.964221923828125,-6.43572998046875,-27.915298461914062,-10.289382934570312
1663860785491140000,4.97414013671875,-31.172622680664062,-34.00135803222656,-3.837005615234375
1663860785501027800,4.98402783203125,-16.922332763671875,-28.097244262695312,11.940780639648438
1663860785510915600,4.99391552734375,34.141204833984375,-7.272491455078125,12.615951538085938
1663860785520803300,5.00380322265625,31.572219848632812,8.308975219726562,3.1444854736328125
1663860785530690800,5.01369091796875,14.128067016601562,10.317718505859375,-7.777862548828125
1663860785540578600,5.02357861328125,-17.92071533203125,3.7528076171875,-16.555007934570312
1663860785550466300,5.03346630859375,-21.274993896484375,-2.9461669921875,-13.923782348632812
1663860785560354000,5.04335400390625,23.362503051757812,-7.48077392578125,-0.9400177001953125
1663860785570241800,5.05324169921875,26.111053466796875,-10.495086669921875,5.1915283203125
1663860785580098800,5.063098876953125,2.1403045654296875,-14.457489013671875,3.1612396240234375
1663860785589986600,5.072986572265625,-8.257720947265625,-19.593048095703125,-0.9878997802734375
1663860785599874300,5.082874267578125,-6.66796875,-22.45172119140625,-1.8258819580078125
1663860785609762000,5.092761962890625,-0.0527801513671875,-19.549957275390625,0.599456787109375
1663860785619649500,5.1026494140625,2.5425262451171875,-15.269119262695312,1.5882568359375
1663860785629537300,5.112537353515625,-0.86920166015625,-11.86456298828125,0.865203857421875
1663860785639425000,5.122425048828125,-2.5140228271484375,-9.716964721679688,-1.248870849609375
1663860785649282300,5.1322822265625,-0.830902099609375,-7.9787750244140625,-2.53216552734375
1663860785659169800,5.142169677734375,0.785186767578125,-6.5494384765625,-2.46990966796875
1663860785669057500,5.1520576171875,0.509857177734375,-5.847930908203125,-2.0652923583984375
1663860785678945300,5.1619453125,-0.239532470703125,-5.572601318359375,-1.8043212890625
1663860785688802600,5.171802490234375,-0.6561279296875,-6.03228759765625,-2.11077880859375
1663860785698659600,5.18165966796875,-1.12298583984375,-7.2820587158203125,-2.3597869873046875
1663860785708577800,5.191577880859375,-0.5220489501953125,-9.113632202148438,-1.8330535888671875
1663860785718435000,5.20143505859375,0.162689208984375,-10.535781860351562,-0.7029876708984375
1663860785728322800,5.21132275390625,0.447601318359375,-11.000259399414062,0.08709716796875
1663860785738210300,5.221210205078125,0.382965087890625,-10.873367309570312,0.5731201171875
1663860785748098000,5.23109814453125,0.28240966796875,-9.752883911132812,1.03997802734375
1663860785757955300,5.240955322265625,-0.450225830078125,-8.72576904296875,0.3624267578125
1663860785767843000,5.250843017578125,-1.86041259765625,-8.194259643554688,-1.196197509765625
1663860785777761300,5.26076123046875,-2.6552886962890625,-8.177490234375,-3.3581695556640625
1663860785787618300,5.270618408203125,-1.6904144287109375,-8.01947021484375,-4.62469482421875
1663860785797536500,5.28053662109375,-1.64971923828125,-7.72259521484375,-4.2296600341796875
1663860785807424300,5.29042431640625,-2.0184173583984375,-7.8949737548828125,-2.8793182373046875
1663860785817312000,5.30031201171875,-1.632965087890625,-8.412124633789062,-1.16986083984375
1663860785827169300,5.310169189453125,-0.2538909912109375,-9.060958862304688,0.1852569580078125
1663860785837026300,5.3200263671875,0.98150634765625,-9.82470703125,1.32489013671875
1663860785846914000,5.3299140625,1.1850128173828125,-10.672256469726562,1.8731689453125
1663860785856801800,5.3398017578125,0.277618408203125,-11.244461059570312,1.4900970458984375
1663860785866720000,5.349719970703125,-1.4893035888671875,-11.20855712890625,0.5395965576171875
1663860785876607700,5.359607666015625,-3.20355224609375,-10.782379150390625,-0.5234375
1663860785886495200,5.3694951171875,-4.189971923828125,-10.337066650390625,-0.6646881103515625
1663860785896383000,5.379383056640625,-3.864349365234375,-10.495086669921875,-0.0829010009765625
1663860785906270700,5.389270751953125,-2.226715087890625,-11.292343139648438,-0.1786651611328125
1663860785916158500,5.399158447265625,-0.419097900390625,-11.625137329101562,0.0894927978515625
1663860785926046200,5.409046142578125,1.0509490966796875,-11.471908569335938,0.790985107421875
1663860785935933700,5.41893359375,1.6375274658203125,-11.371353149414062,0.896331787109375
1663860785945791000,5.428791015625,0.823486328125,-11.7257080078125,0.24749755859375
1663860785955678700,5.4386787109375,-0.49810791015625,-12.412841796875,-0.657501220703125
1663860785965566500,5.44856640625,-2.183624267578125,-12.858154296875,-1.0238189697265625
1663860785975454200,5.4584541015625,-3.038360595703125,-13.473464965820312,-0.9376220703125
1663860785985341700,5.468341796875,-1.1445465087890625,-14.919570922851562,-0.8346710205078125
1663860785995229400,5.4782294921875,-0.2586822509765625,-16.109481811523438,-0.6215972900390625
1663860786005086700,5.488086669921875,-1.4318389892578125,-15.96343994140625,0.0966644287109375
1663860786014974500,5.497974365234375,-3.1197509765625,-16.020904541015625,-0.6215972900390625
1663860786024862000,5.507862060546875,-4.783721923828125,-17.103073120117188,-2.4986419677734375
1663860786034749700,5.517749755859375,-4.0941925048828125,-18.707199096679688,-4.41400146484375
1663860786044637400,5.527637451171875,-3.4333953857421875,-19.44940185546875,-6.6597747802734375
1663860786054525200,5.537525146484375,-3.7973175048828125,-18.958587646484375,-7.916717529296875
1663860786064413000,5.547412841796875,-1.982513427734375,-15.862884521484375,-7.8640594482421875
1663860786074300400,5.557300537109375,3.325439453125,-12.716903686523438,-7.808990478515625
1663860786084188200,5.567188232421875,6.9837799072265625,-11.972305297851562,-6.9183502197265625
1663860786094045400,5.57704541015625,6.818572998046875,-13.48065185546875,-6.911163330078125
1663860786103933200,5.58693310546875,5.3628997802734375,-15.87005615234375,-7.069183349609375
1663860786113820700,5.596820556640625,4.4818267822265625,-16.720001220703125,-5.8912353515625
1663860786123708400,5.60670849609375,2.19537353515625,-15.996963500976562,-4.3302154541015625
1663860786133596200,5.61659619140625,-0.747100830078125,-15.326583862304688,-3.561676025390625
1663860786143453400,5.626453369140625,-1.688018798828125,-14.309051513671875,-2.46990966796875
1663860786153341000,5.6363408203125,-0.9769439697265625,-14.067230224609375,-1.2512664794921875
1663860786163228700,5.646228759765625,-1.1660919189453125,-15.020126342773438,-0.9328460693359375
1663860786173116400,5.656116455078125,-0.988922119140625,-15.63543701171875,-0.33428955078125
1663860786183004200,5.666004150390625,-0.376007080078125,-14.565216064453125,0.71197509765625
1663860786192892000,5.675891845703125,-0.5124664306640625,-13.0999755859375,1.7007904052734375
1663860786202779600,5.685779541015625,-0.414306640625,-11.914840698242188,1.7031707763671875
1663860786212667100,5.695667236328125,-0.5388031005859375,-10.315521240234375,1.2147674560546875
1663860786222555000,5.705554931640625,0.3925323486328125,-8.299591064453125,0.970550537109375
1663860786232442600,5.715442626953125,0.749267578125,-7.136016845703125,-0.0685272216796875
1663860786242330400,5.725330322265625,0.447601318359375,-6.9756011962890625,-0.74609375
1663860786252187400,5.7351875,0.51702880859375,-6.8750457763671875,-0.815521240234375
1663860786262075100,5.7450751953125,1.196990966796875,-4.933349609375,0.051177978515625
1663860786271963000,5.754962890625,1.905670166015625,-2.90545654296875,-0.2217559814453125
1663860786281850600,5.7648505859375,1.9511566162109375,-2.158477783203125,-1.0812835693359375
1663860786291738400,5.77473828125,1.8027191162109375,-1.9765167236328125,-1.5744781494140625
1663860786301625900,5.7846259765625,1.80511474609375,-1.84722900390625,-1.83544921875
1663860786311513600,5.794513671875,1.9344024658203125,-1.6556854248046875,-2.1754302978515625
1663860786321371000,5.804370849609375,2.28155517578125,-1.2630462646484375,-2.41485595703125
1663860786331258600,5.814258544921875,2.4826812744140625,-0.7267303466796875,-2.5728607177734375
1663860786341146000,5.82414599609375,2.7580108642578125,-0.3556365966796875,-2.64947509765625
1663860786351033900,5.834033935546875,2.6790008544921875,-0.3292999267578125,-2.541748046875
1663860786360921600,5.843921630859375,2.20733642578125,-0.4442291259765625,-2.3023223876953125
1663860786370809300,5.853809326171875,1.7380828857421875,-0.891937255859375,-1.9647369384765625
1663860786380697000,5.863697021484375,1.280792236328125,-1.5647125244140625,-1.624755859375
1663860786390554000,5.87355419921875,0.5936431884765625,-2.5247802734375,-1.5050506591796875
1663860786400441900,5.88344189453125,-0.809356689453125,-3.764984130859375,-1.402099609375
1663860786410299100,5.893299072265625,-2.7103424072265625,-5.4792327880859375,-1.2512664794921875
1663860786420186600,5.9031865234375,-6.7110595703125,-7.6411895751953125,-0.973541259765625
1663860786430074400,5.913074462890625,-13.041336059570312,-10.540573120117188,-0.317535400390625
1663860786439931600,5.922931640625,-19.472152709960938,-15.060821533203125,-0.238525390625
1663860786449849900,5.932849853515625,-23.628494262695312,-22.700714111328125,-1.5720977783203125
1663860786459737600,5.942737548828125,-23.702713012695312,-33.02452087402344,-3.827423095703125
1663860786469625300,5.952625244140625,-25.330764770507812,-39.278167724609375,-5.443511962890625
1663860786479512800,5.962512939453125,-22.668411254882812,-29.60321044921875,-1.4787139892578125
1663860786489400600,5.972400634765625,-13.13470458984375,-14.787887573242188,-1.4260406494140625
1663860786499288300,5.982288330078125,-4.635284423828125,-4.80645751953125,-3.403656005859375
1663860786509176000,5.992176025390625,1.4866943359375,2.7879486083984375,-2.7979278564453125
1663860786519063800,6.002063720703125,3.9575042724609375,7.6649322509765625,-2.601593017578125
1663860786528951300,6.011951416015625,7.62542724609375,5.3066558837890625,-5.7356109619140625
1663860786538839000,6.021839111328125,13.9437255859375,-3.1281280517578125,-6.14501953125
1663860786548696300,6.0316962890625,10.201583862304688,-11.18701171875,-4.4786529541015625
1663860786558584000,6.041583984375,-2.2434844970703125,-17.469390869140625,-4.186553955078125
1663860786568471600,6.051471435546875,-20.990081787109375,-24.594528198242188,-4.2368316650390625
1663860786578359300,6.061359375,-19.33807373046875,-30.30230712890625,-0.0350189208984375
1663860786588216600,6.071216552734375,9.947799682617188,-21.343215942382812,6.2234344482421875
1663860786598073600,6.081073486328125,17.307571411132812,-6.882232666015625,4.3008880615234375
1663860786607961300,6.09096142578125,5.40838623046875,-2.2207183837890625,-5.137054443359375
1663860786617849000,6.10084912109375,-8.1595458984375,-3.6572418212890625,-12.606964111328125
1663860786627736800,6.11073681640625,-6.1436309814453125,-6.068206787109375,-13.104965209960938
1663860786637624600,6.12062451171875,7.4290924072265625,-7.021087646484375,-6.319793701171875
1663860786647512000,6.130511962890625,9.828079223632812,-7.64837646484375,-0.6958160400390625
1663860786657399800,6.14039990234375,6.363677978515625,-8.934066772460938,0.7670440673828125
1663860786667257000,6.150257080078125,1.75244140625,-11.06011962890625,1.0471649169921875
1663860786677175300,6.16017529296875,-1.1996002197265625,-13.205322265625,1.86358642578125
1663860786687032600,6.170032470703125,-1.7167510986328125,-14.941116333007812,2.5914306640625
1663860786696920000,6.179920166015625,-0.8500518798828125,-16.241165161132812,2.2131500244140625
1663860786706777300,6.18977734375,-0.7925872802734375,-15.85809326171875,1.6600799560546875
1663860786716665000,6.1996650390625,-1.0727081298828125,-14.335372924804688,0.7191619873046875
1663860786726583300,6.209583251953125,-0.0456085205078125,-12.585220336914062,-0.04937744140625
1663860786736471000,6.219470947265625,1.1060028076171875,-10.765625,-0.39892578125
1663860786746358500,6.229358642578125,0.837860107421875,-9.41290283203125,-0.8011627197265625
1663860786756246300,6.239246337890625,-0.2419281005859375,-8.656326293945312,-1.713348388671875
1663860786766134000,6.249134033203125,-1.0774993896484375,-8.158340454101562,-2.580047607421875
1663860786776021800,6.259021728515625,-0.94342041015625,-7.82794189453125,-3.2169036865234375
1663860786785909500,6.268909423828125,-0.27783203125,-7.6938629150390625,-2.9990386962890625
1663860786795797000,6.278796875,0.7708282470703125,-7.674713134765625,-1.87615966796875
1663860786805654300,6.288654296875,1.3382415771484375,-8.132003784179688,-0.8346710205078125
1663860786815542000,6.2985419921875,1.30950927734375,-8.878997802734375,-0.3558349609375
1663860786825429800,6.3084296875,1.0509490966796875,-9.4033203125,-0.1140289306640625
1663860786835317200,6.318317138671875,0.7564544677734375,-9.652328491210938,0.30975341796875
1663860786845205000,6.328205078125,0.4093017578125,-9.798370361328125,0.9777374267578125
1663860786855092700,6.3380927734375,0.51702880859375,-9.707382202148438,0.905914306640625
1663860786864980500,6.34798046875,0.4499969482421875,-9.250091552734375,0.6138153076171875
1663860786874868200,6.3578681640625,0.1004486083984375,-8.890960693359375,-0.317535400390625
1663860786884756000,6.367755859375,-0.282623291015625,-9.072921752929688,-1.5816650390625
1663860786894613000,6.377613037109375,-1.1253814697265625,-8.967575073242188,-1.639129638671875
1663860786904500700,6.387500732421875,-2.214752197265625,-9.27642822265625,-1.33746337890625
1663860786914358000,6.39735791015625,-2.0112457275390625,-9.3602294921875,-0.5282135009765625
1663860786924245500,6.40724560546875,-1.2881927490234375,-9.27642822265625,0.8723907470703125
1663860786934102800,6.417102783203125,-0.914703369140625,-9.5828857421875,1.5427703857421875
1663860786943990500,6.426990478515625,-0.8811798095703125,-10.39691162109375,1.679229736328125
1663860786953908700,6.43690869140625,-1.486907958984375,-11.459945678710938,1.688812255859375
1663860786963796500,6.44679638671875,-2.7893524169921875,-12.436782836914062,1.57867431640625
1663860786973684000,6.45668408203125,-4.3958587646484375,-12.783935546875,0.8556365966796875
1663860786983571700,6.46657177734375,-4.644866943359375,-12.089614868164062,0.0176544189453125
1663860786993459500,6.47645947265625,-2.62176513671875,-11.06011962890625,0.283416748046875
1663860787003347200,6.48634716796875,-0.4071197509765625,-10.803939819335938,1.317718505859375
1663860787013235000,6.49623486328125,0.1387481689453125,-11.337844848632812,2.0359649658203125
1663860787023122400,6.506122314453125,-0.8979339599609375,-12.32904052734375,1.50445556640625
1663860787033010200,6.51601025390625,-2.2650299072265625,-13.181381225585938,0.0272369384765625
1663860787042898000,6.52589794921875,-2.2075653076171875,-13.188552856445312,-1.1195831298828125
1663860787052785700,6.53578564453125,-1.3839569091796875,-12.817459106445312,-1.6415252685546875
1663860787062642700,6.545642578125,-2.18841552734375,-12.501419067382812,-1.775604248046875
1663860787072530400,6.555530517578125,-3.794921875,-12.635498046875,-1.174652099609375
1663860787082418200,6.565418212890625,-3.73028564453125,-13.631484985351562,-0.382171630859375
1663860787092306000,6.575305908203125,-3.9361724853515625,-14.795074462890625,-0.45159912109375
1663860787102193700,6.585193603515625,-5.813232421875,-15.307418823242188,-1.8210906982421875
1663860787112081400,6.595081298828125,-6.304046630859375,-14.807037353515625,-2.7141265869140625
1663860787121938400,6.6049384765625,-4.9920196533203125,-14.426361083984375,-3.0469207763671875
1663860787131826200,6.614826171875,-5.5594482421875,-14.65380859375,-3.5999755859375
1663860787141714000,6.6247138671875,-4.403045654296875,-14.323410034179688,-4.6438446044921875
1663860787151601700,6.6346015625,0.44281005859375,-13.6817626953125,-5.771514892578125
1663860787161489200,6.6444892578125,4.3285980224609375,-14.000198364257812,-5.0388946533203125
1663860787171377000,6.654376953125,4.4459228515625,-17.007308959960938,-4.3637237548828125
1663860787181264600,6.6642646484375,4.7427978515625,-19.4398193359375,-4.555267333984375
1663860787191152400,6.67415234375,4.9870147705078125,-19.846832275390625,-5.1298675537109375
1663860787201040100,6.6840400390625,3.5145721435546875,-19.221939086914062,-4.0716400146484375
1663860787210897200,6.693897216796875,-0.2586822509765625,-18.29779052734375,-1.4571685791015625
1663860787220785000,6.703784912109375,-2.332061767578125,-17.419113159179688,0.2427215576171875
1663860787230672600,6.713672607421875,-1.762237548828125,-17.03125,1.2171478271484375
1663860787240560400,6.723560302734375,1.0940399169921875,-17.3472900390625,-0.1331787109375
1663860787250448000,6.73344775390625,1.3119049072265625,-16.794219970703125,-1.5002593994140625
1663860787260335600,6.743335693359375,-0.4765625,-15.285873413085938,-1.93121337890625
1663860787270223400,6.753223388671875,-1.3504486083984375,-13.633880615234375,-2.4052734375
1663860787280080600,6.76308056640625,-1.48211669921875,-11.996246337890625,-2.9798736572265625
1663860787289968000,6.772968017578125,-0.7279510498046875,-10.370574951171875,-2.68060302734375
1663860787299856000,6.78285595703125,-0.0312347412109375,-8.65155029296875,-1.9599456787109375
1663860787309743600,6.79274365234375,0.2728271484375,-7.346710205078125,-1.7253265380859375
1663860787319631400,6.80263134765625,0.670257568359375,-6.147216796875,-1.660675048828125
1663860787329519000,6.81251904296875,1.0772857666015625,-4.8782806396484375,-1.46435546875
1663860787339406800,6.82240673828125,1.0772857666015625,-3.8751068115234375,-1.5792694091796875
1663860787349294300,6.83229443359375,1.038970947265625,-3.15924072265625,-1.2129669189453125
1663860787359151600,6.842151611328125,1.1275634765625,-2.7977294921875,-0.6024322509765625
1663860787369039400,6.852039306640625,1.2113494873046875,-2.5415496826171875,-0.32470703125
1663860787378927000,6.861927001953125,1.29754638671875,-2.1991729736328125,-0.1355743408203125
1663860787388814600,6.871814697265625,1.4795074462890625,-1.758636474609375,-0.0302276611328125
1663860787398672000,6.881671875,1.4842987060546875,-1.2965545654296875,-0.1140289306640625
1663860787408559600,6.8915595703125,1.599212646484375,-1.124176025390625,-0.4204864501953125
1663860787418447400,6.901447265625,1.5010528564453125,-1.033203125,-0.956787109375
1663860787428334800,6.9113349609375,1.170654296875,-0.8201141357421875,-1.449981689453125
1663860787438192000,6.921192138671875,1.101226806640625,-0.860809326171875,-1.9216461181640625
1663860787448049400,6.93104931640625,1.00067138671875,-1.02362060546875,-1.8641815185546875
1663860787457967600,6.940967529296875,0.9886932373046875,-1.16009521484375,-1.52899169921875
1663860787467855000,6.950855224609375,0.9910888671875,-1.2798004150390625,-1.2728118896484375
1663860787477712400,6.96071240234375,0.8043365478515625,-1.4497833251953125,-1.363800048828125
1663860787487600000,6.97060009765625,0.002288818359375,-1.81610107421875,-1.598419189453125
1663860787497518300,6.980518310546875,-1.58746337890625,-2.8408203125,-1.7109527587890625
1663860787507375400,6.990375244140625,-4.8004913330078125,-5.012359619140625,-1.6726531982421875
1663860787517263000,7.00026318359375,-10.639938354492188,-8.213409423828125,-0.8825531005859375
1663860787527150800,7.01015087890625,-18.047607421875,-12.707321166992188,0.1397705078125
1663860787537038600,7.02003857421875,-21.53594970703125,-18.427078247070312,0.5108642578125
1663860787546895600,7.0298955078125,-19.01007080078125,-25.688690185546875,0.673675537109375
1663860787556813800,7.039813720703125,-21.13372802734375,-36.31175231933594,-3.3007049560546875
1663860787566671000,7.049671142578125,-29.33148193359375,-42.922149658203125,-8.10107421875
1663860787576558800,7.059558837890625,-23.154434204101562,-30.094009399414062,-5.69012451171875
1663860787586446600,7.069446533203125,-8.978363037109375,-13.475860595703125,-5.738006591796875
1663860787596334300,7.079334228515625,-0.57232666015625,-1.7562408447265625,-6.355712890625
1663860787606221800,7.089221923828125,2.5832366943359375,5.5939483642578125,-5.7092742919921875
1663860787616079000,7.0990791015625,5.1474151611328125,5.416778564453125,-7.3852081298828125
1663860787625997300,7.108997314453125,10.445785522460938,-1.045166015625,-6.932708740234375
1663860787635885000,7.118885009765625,6.722808837890625,-8.076934814453125,-1.5936431884765625
1663860787645742000,7.1287421875,-6.9049835205078125,-15.6689453125,-1.2776031494140625
1663860787655629800,7.1386298828125,-16.831344604492188,-21.580230712890625,1.3009490966796875
1663860787665517600,7.148517578125,-7.6974639892578125,-22.2386474609375,7.161956787109375
1663860787675405300,7.1584052734375,10.017227172851562,-13.044906616210938,5.8643035888671875
1663860787685293000,7.16829296875,13.397842407226562,-2.826446533203125,0.292999267578125
1663860787695180500,7.1781806640625,9.377975463867188,-0.178466796875,-6.81060791015625
1663860787705068300,7.188068359375,-4.4844512939453125,-4.4449310302734375,-15.647598266601562
1663860787714925600,7.197925537109375,-14.633468627929688,-7.8470916748046875,-15.767318725585938
1663860787724813300,7.207813232421875,3.584014892578125,-8.27325439453125,-5.2830963134765625
1663860787734670300,7.21767041015625,15.691482543945312,-8.251708984375,3.6927642822265625
1663860787744588500,7.227588623046875,9.366012573242188,-10.478317260742188,4.1309051513671875
1663860787754476300,7.237476318359375,0.8665924072265625,-13.420791625976562,1.3847503662109375
1663860787764364000,7.247364013671875,-2.109405517578125,-14.919570922851562,0.66888427734375
1663860787774251800,7.257251708984375,-2.1692657470703125,-15.5516357421875,0.410308837890625
1663860787784108800,7.26710888671875,-2.3583984375,-15.123077392578125,0.2379302978515625
1663860787793996500,7.27699658203125,-2.2913665771484375,-13.51177978515625,0.4246673583984375
1663860787803884300,7.28688427734375,-1.403106689453125,-11.562896728515625,0.8364715576171875
1663860787813741300,7.2967412109375,-0.799774169921875,-10.083282470703125,0.4510040283203125
1663860787823629000,7.306629150390625,0.09326171875,-9.130386352539062,-0.3055572509765625
1663860787833547300,7.31654736328125,0.4140777587890625,-8.426483154296875,-0.52581787109375
1663860787843404500,7.326404541015625,0.0741119384765625,-8.19903564453125,-0.9017181396484375
1663860787853322800,7.33632275390625,0.155517578125,-8.15594482421875,-1.51702880859375
1663860787863180000,7.346179931640625,-0.81414794921875,-8.067367553710938,-1.3350677490234375
1663860787873067500,7.356067626953125,-0.9027252197265625,-8.436065673828125,-1.4140777587890625
1663860787882955300,7.365955322265625,-0.45501708984375,-8.9268798828125,-1.265625
1663860787892843000,7.375843017578125,-0.387969970703125,-9.252487182617188,-0.6527099609375
1663860787902730800,7.385730712890625,-0.0791168212890625,-9.410507202148438,-0.075714111328125
1663860787912587800,7.395587890625,-0.112640380859375,-9.597259521484375,0.166107177734375
1663860787922475500,7.4054755859375,-0.134185791015625,-9.757659912109375,-0.140350341796875
1663860787932393700,7.415393798828125,-0.1150360107421875,-9.87738037109375,-0.16668701171875
1663860787942281500,7.425281494140625,-0.3161468505859375,-9.84625244140625,0.0104827880859375
1663860787952169200,7.435169189453125,-0.5531768798828125,-9.290802001953125,0.0391998291015625
1663860787962026200,7.445026123046875,-0.8332977294921875,-8.7042236328125,-0.3055572509765625
1663860787971914000,7.4549140625,-0.3831787109375,-9.005889892578125,-1.99346923828125
1663860787981801700,7.4648017578125,-0.5340118408203125,-9.101654052734375,-3.413238525390625
1663860787991689500,7.474689453125,-1.644927978515625,-9.242919921875,-3.288726806640625
1663860788001577200,7.4845771484375,-1.802947998046875,-9.393753051757812,-2.0126190185546875
1663860788011434200,7.494434326171875,-1.1756591796875,-9.688232421875,-0.63116455078125
1663860788021322000,7.504322021484375,-0.4334564208984375,-10.202987670898438,0.1852569580078125
1663860788031209700,7.514209716796875,-0.5962677001953125,-10.765625,0.8843536376953125
1663860788041097500,7.524097412109375,-1.3791656494140625,-11.151092529296875,1.3536224365234375
1663860788050985200,7.533985107421875,-2.5379638671875,-11.534164428710938,0.9561920166015625
1663860788060872700,7.543872802734375,-3.6823883056640625,-11.773590087890625,0.3073577880859375
1663860788070760400,7.553760498046875,-4.1468658447265625,-11.598800659179688,-0.48272705078125
1663860788080648200,7.563648193359375,-3.7087249755859375,-11.136734008789062,-0.9017181396484375
1663860788090536000,7.573535888671875,-2.245880126953125,-10.758438110351562,-0.4013214111328125
1663860788100423700,7.583423583984375,-0.6752777099609375,-10.851821899414062,0.5970611572265625
1663860788110311200,7.593311279296875,0.0789031982421875,-11.701751708984375,1.245880126953125
1663860788120168400,7.60316845703125,-1.0176544189453125,-13.07843017578125,1.3847503662109375
1663860788130056200,7.61305615234375,-2.2769927978515625,-13.985824584960938,0.80535888671875
1663860788139944000,7.62294384765625,-1.8101348876953125,-13.602752685546875,-0.2696380615234375
1663860788149831400,7.63283154296875,-1.78857421875,-12.714508056640625,-0.456390380859375
1663860788159688700,7.642688720703125,-3.471710205078125,-12.654647827148438,-0.1451416015625
1663860788169576400,7.652576416015625,-4.0941925048828125,-13.334609985351562,0.5252227783203125
1663860788179464200,7.662464111328125,-2.7845611572265625,-14.34735107421875,1.41827392578125
1663860788189351700,7.6723515625,-3.505218505859375,-15.45587158203125,0.9322509765625
1663860788199239400,7.682239501953125,-6.114898681640625,-16.085540771484375,-1.4954833984375
1663860788209127200,7.692127197265625,-6.7972564697265625,-16.097518920898438,-2.982269287109375
1663860788218984400,7.701984375,-5.2075042724609375,-16.612258911132812,-3.360565185546875
1663860788228902700,7.711902587890625,-4.51318359375,-16.710433959960938,-3.9519195556640625
1663860788238790100,7.7217900390625,-3.12933349609375,-15.43670654296875,-4.2895050048828125
1663860788248678000,7.731677978515625,2.432403564453125,-14.857315063476562,-3.5329437255859375
1663860788258565600,7.741565673828125,7.821746826171875,-15.623458862304688,-2.6710357666015625
1663860788268453400,7.751453369140625,7.7235870361328125,-16.976181030273438,-2.8098907470703125
1663860788278310400,7.761310302734375,5.3102264404296875,-18.249893188476562,-4.3924560546875
1663860788288198100,7.7711982421875,3.4547271728515625,-18.937042236328125,-5.7475738525390625
1663860788298086000,7.7810859375,0.004669189453125,-18.187652587890625,-4.459503173828125
1663860788307973600,7.7909736328125,-3.093414306640625,-16.7152099609375,-1.8474273681640625
1663860788317861400,7.800861328125,-2.858795166015625,-16.437484741210938,-0.623992919921875
1663860788327749000,7.8107490234375,-0.1365814208984375,-16.746337890625,-0.609619140625
1663860788337636600,7.82063671875,1.261627197265625,-16.7152099609375,-1.0597381591796875
1663860788347524400,7.8305244140625,1.1371307373046875,-15.927520751953125,-1.1722564697265625
1663860788357412000,7.840412109375,0.3709869384765625,-14.694503784179688,-1.6199798583984375
1663860788367269400,7.850269287109375,-0.567535400390625,-13.23883056640625,-2.041351318359375
1663860788377156900,7.860156982421875,-0.6393585205078125,-11.311508178710938,-2.6518707275390625
1663860788387044600,7.870044677734375,0.4332427978515625,-9.132781982421875,-2.7524261474609375
1663860788396902000,7.87990185546875,1.0629119873046875,-6.745758056640625,-1.883331298828125
1663860788406789600,7.88978955078125,1.25445556640625,-5.371490478515625,-1.6367340087890625
1663860788416677000,7.899677001953125,1.12994384765625,-4.33001708984375,-2.12994384765625
1663860788426534400,7.909534423828125,1.208953857421875,-3.4082489013671875,-1.9288330078125
1663860788436452600,7.91945263671875,1.3310699462890625,-2.9701080322265625,-0.9543914794921875
1663860788446310000,7.929309814453125,1.3909149169921875,-3.0203857421875,-0.552154541015625
1663860788456197400,7.939197265625,1.244873046875,-3.0443267822265625,-0.3271026611328125
1663860788466054700,7.9490546875,1.2305145263671875,-3.058685302734375,-0.329498291015625
1663860788475972900,7.958972900390625,1.3262786865234375,-2.9892578125,-0.4324493408203125
1663860788485860600,7.968860595703125,1.568084716796875,-2.867156982421875,-0.6431427001953125
1663860788495748400,7.978748291015625,1.788360595703125,-2.6229400634765625,-0.877777099609375
1663860788505635800,7.9886357421875,2.1403045654296875,-2.19677734375,-1.1507110595703125
1663860788515523600,7.998523681640625,2.339019775390625,-1.7610321044921875,-1.749267578125
1663860788525411300,8.008411376953125,2.322265625,-1.404296875,-2.39569091796875
1663860788535299000,8.018299072265625,2.1570587158203125,-1.1912078857421875,-2.7955322265625
1663860788545186800,8.028186767578125,2.0134124755859375,-1.1313629150390625,-2.6734161376953125
1663860788555074600,8.038074462890625,1.7380828857421875,-1.330078125,-2.3909149169921875
1663860788564962000,8.047962158203125,0.976715087890625,-1.705963134765625,-2.2568359375
1663860788574849800,8.057849853515625,-0.7135772705078125,-2.3619842529296875,-2.1826171875
1663860788584737500,8.067737548828125,-3.17242431640625,-3.5830230712890625,-2.0222015380859375
1663860788594625300,8.077625244140625,-6.8044281005859375,-5.56781005859375,-1.6989898681640625
1663860788604482300,8.087482421875,-11.197799682617188,-8.167922973632812,-1.5265960693359375
1663860788614370000,8.0973701171875,-15.095550537109375,-11.55810546875,-1.81390380859375
1663860788624257800,8.1072578125,-18.272659301757812,-15.88922119140625,-1.617584228515625
1663860788634145500,8.1171455078125,-20.176055908203125,-21.008026123046875,-1.0669097900390625
1663860788644033300,8.127033203125,-22.694747924804688,-27.137176513671875,-2.1850128173828125
1663860788653920800,8.136920654296874,-18.634185791015625,-32.212890625,-4.8234100341796875
1663860788663808500,8.14680859375,-14.5496826171875,-25.403778076171875,-2.3813323974609375
1663860788673696300,8.1566962890625,-11.027801513671875,-13.49261474609375,-0.497100830078125
1663860788683553500,8.166553466796875,-6.5338897705078125,-4.9261627197265625,-1.0860748291015625
1663860788693441000,8.17644091796875,-6.579376220703125,2.055328369140625,-0.8753814697265625
1663860788703328800,8.186328857421875,-6.7876739501953125,4.971466064453125,-2.010223388671875
1663860788713186000,8.19618603515625,-0.0479888916015625,0.35064697265625,-3.8034820556640625
1663860788723073800,8.20607373046875,12.0115966796875,-7.2126312255859375,-2.115570068359375
1663860788732961300,8.215961181640624,12.595779418945312,-13.071243286132812,-1.945587158203125
1663860788742849000,8.22584912109375,0.5553436279296875,-18.20440673828125,-4.5576629638671875
1663860788752736800,8.23573681640625,-12.009429931640625,-23.579391479492188,-3.214508056640625
1663860788762624500,8.24562451171875,-16.012527465820312,-26.675094604492188,1.1692657470703125
1663860788772512300,8.25551220703125,2.1977691650390625,-19.612197875976562,0.611419677734375
1663860788782400000,8.26539990234375,12.526351928710938,-6.1448211669921875,-1.9288330078125
1663860788792287500,8.27528759765625,7.8265380859375,-0.1760711669921875,-8.941436767578125
1663860788802175200,8.28517529296875,-6.2441864013671875,-1.3899383544921875,-15.441696166992188
1663860788812063000,8.29506298828125,-8.389389038085938,-3.9373626708984375,-13.8160400390625
1663860788821950700,8.30495068359375,8.226364135742188,-5.634857177734375,-3.1522674560546875
1663860788831807700,8.314807861328125,16.347503662109375,-7.083343505859375,4.6552276611328125
1663860788841695500,8.324695556640625,8.09228515625,-8.965179443359375,4.8659210205078125
1663860788851583200,8.334583251953125,-0.778228759765625,-11.85260009765625,2.292144775390625
1663860788861471000,8.344470947265625,-4.8651275634765625,-14.510162353515625,1.8228912353515625
1663860788871358700,8.354358642578125,-2.944976806640625,-15.726409912109375,3.094207763671875
1663860788881246200,8.36424609375,-0.13897705078125,-15.81500244140625,3.94415283203125
1663860788891134000,8.374134033203125,-0.51007080078125,-15.496566772460938,2.945770263671875
1663860788900991200,8.3839912109375,-0.5483856201171875,-14.560440063476562,1.6696624755859375
1663860788910848300,8.39384814453125,0.5864715576171875,-12.590011596679688,0.652130126953125
1663860788920705500,8.40370556640625,1.45556640625,-10.619583129882812,-0.3414764404296875
1663860788930623700,8.413623779296875,1.2305145263671875,-9.06573486328125,-1.902496337890625
1663860788940511500,8.423511474609375,-0.2634735107421875,-7.7824554443359375,-3.2216949462890625
1663860788950368500,8.433368408203124,-2.0064544677734375,-6.9277191162109375,-4.3996429443359375
1663860788960256300,8.44325634765625,-2.6576690673828125,-6.649993896484375,-5.4363250732421875
1663860788970144000,8.45314404296875,-1.41748046875,-6.7601318359375,-4.8114471435546875
1663860788980031700,8.46303173828125,-0.00250244140625,-7.2677001953125,-3.0948028564453125
1663860788989919500,8.47291943359375,0.4332427978515625,-7.9955291748046875,-2.1538848876953125
1663860788999807200,8.48280712890625,0.4978790283203125,-8.84307861328125,-1.0764923095703125
1663860789009694700,8.49269482421875,0.162689208984375,-10.126373291015625,0.108642578125
1663860789019582500,8.50258251953125,0.584075927734375,-10.99786376953125,0.568328857421875
1663860789029470200,8.51247021484375,0.7468719482421875,-10.643524169921875,0.5108642578125
1663860789039358000,8.52235791015625,-0.2467193603515625,-9.558944702148438,0.060760498046875
1663860789049245700,8.53224560546875,-1.328887939453125,-8.395370483398438,-1.2225341796875
1663860789059133200,8.54213330078125,-0.9721527099609375,-8.15594482421875,-3.1331024169921875
1663860789069021000,8.55202099609375,-0.79498291015625,-8.2828369140625,-4.4307708740234375
1663860789078908700,8.56190869140625,-1.8747711181640625,-8.390579223632812,-4.651031494140625
1663860789088796400,8.57179638671875,-2.69598388671875,-8.922088623046875,-3.68377685546875
1663860789098684200,8.58168408203125,-1.9441986083984375,-9.5086669921875,-1.8665771484375
1663860789108571600,8.591571533203124,-0.6968231201171875,-10.325088500976562,0.082305908203125
1663860789118459400,8.60145947265625,0.0741119384765625,-11.11517333984375,1.7175445556640625
1663860789128316700,8.611316650390625,-0.641754150390625,-11.775985717773438,2.419036865234375
1663860789138173700,8.621173583984374,-2.099822998046875,-12.175811767578125,2.122161865234375
1663860789148061400,8.6310615234375,-3.7925262451171875,-12.3074951171875,1.38714599609375
1663860789157949200,8.64094921875,-4.7789459228515625,-12.166229248046875,0.8101348876953125
1663860789167837000,8.6508369140625,-3.821258544921875,-11.8741455078125,1.0088653564453125
1663860789177724700,8.660724609375,-1.5323944091796875,-11.615570068359375,1.7223358154296875
1663860789187612200,8.670612060546874,-0.43585205078125,-12.396072387695312,2.184417724609375
1663860789197500000,8.6805,-1.465362548828125,-14.359329223632812,1.9234466552734375
1663860789207387600,8.6903876953125,-2.70794677734375,-15.431930541992188,1.16448974609375
1663860789217275400,8.700275390625,-2.2650299072265625,-14.814224243164062,0.17327880859375
1663860789227132700,8.710132568359375,-2.1860198974609375,-14.012161254882812,-0.2409210205078125
1663860789237020200,8.720020263671875,-2.8204803466796875,-13.981033325195312,0.261871337890625
1663860789246908000,8.729907958984375,-2.7725982666015625,-14.5484619140625,0.6138153076171875
1663860789256795600,8.739795654296875,-3.778167724609375,-15.269119262695312,0.1493377685546875
1663860789266653000,8.74965283203125,-6.3543243408203125,-15.61627197265625,-1.253662109375
1663860789276540400,8.75954052734375,-6.8978118896484375,-15.0751953125,-2.208953857421875
1663860789286397700,8.769397705078125,-4.9034423828125,-15.039276123046875,-2.9583282470703125
1663860789296316000,8.77931591796875,-4.46051025390625,-15.431930541992188,-4.3828887939453125
1663860789306203600,8.78920361328125,-5.0063934326171875,-14.850128173828125,-6.6406097412109375
1663860789316091400,8.79909130859375,-1.1972198486328125,-13.389663696289062,-7.6270294189453125
1663860789325948400,8.808948486328125,5.93511962890625,-12.661834716796875,-5.9223480224609375
1663860789335866600,8.81886669921875,8.087493896484375,-13.921188354492188,-4.2368316650390625
1663860789345724000,8.828723876953125,5.00616455078125,-16.4925537109375,-4.6965179443359375
1663860789355581000,8.838580810546874,1.515411376953125,-18.91070556640625,-5.8002471923828125
1663860789365499100,8.8484990234375,0.4236602783203125,-19.842041015625,-5.6781463623046875
1663860789375387000,8.858386962890625,-0.7135772705078125,-18.379180908203125,-3.109161376953125
1663860789385274600,8.868274658203125,-1.6736602783203125,-16.600296020507812,-0.635955810546875
1663860789395162400,8.878162353515625,-1.7095794677734375,-16.245956420898438,0.0056915283203125
1663860789405050000,8.888050048828125,-1.570709228515625,-16.822952270507812,-0.8346710205078125
1663860789414937600,8.8979375,-0.196441650390625,-16.751129150390625,-1.96234130859375
1663860789424825300,8.907825439453125,1.52978515625,-15.810211181640625,-1.67742919921875
1663860789434713000,8.917713134765625,0.9934844970703125,-14.416778564453125,-0.920867919921875
1663860789444600800,8.927600830078125,-1.22833251953125,-12.91082763671875,-1.12677001953125
1663860789454488600,8.937488525390625,-1.64013671875,-11.491073608398438,-2.208953857421875
1663860789464376300,8.947376220703125,-0.10784912109375,-9.479934692382812,-2.558502197265625
1663860789474263800,8.957263916015625,0.7516632080078125,-7.0977020263671875,-1.976715087890625
1663860789484151600,8.967151611328125,0.947998046875,-5.002777099609375,-1.7899627685546875
1663860789494008800,8.9770087890625,1.1467132568359375,-3.860748291015625,-2.0054473876953125
1663860789503865900,8.986865966796875,1.41485595703125,-3.130523681640625,-1.5481414794921875
1663860789513723100,8.99672314453125,1.735687255859375,-2.4745025634765625,-0.856231689453125
1663860789523641300,9.006641357421875,1.8386383056640625,-2.287750244140625,-0.5641326904296875
1663860789533529000,9.016529052734375,1.7596282958984375,-2.4050750732421875,-0.6814422607421875
1663860789543416800,9.026416748046875,1.6279449462890625,-2.5439300537109375,-0.889739990234375
1663860789553304300,9.03630419921875,1.3382415771484375,-2.5487213134765625,-0.858612060546875
1663860789563192000,9.046192138671875,1.3382415771484375,-2.4170379638671875,-0.82989501953125
1663860789573079800,9.056079833984375,1.7021636962890625,-1.99566650390625,-0.9136810302734375
1663860789582967600,9.065967529296875,2.233673095703125,-1.3803558349609375,-1.258453369140625
1663860789592855300,9.075855224609375,2.528167724609375,-0.650115966796875,-1.7732086181640625
1663860789602742800,9.08574267578125,2.422821044921875,-0.034820556640625,-2.1586761474609375
1663860789612630500,9.095630615234375,1.9918670654296875,0.0465850830078125,-2.45794677734375
1663860789622518300,9.105518310546875,1.915252685546875,-0.3508453369140625,-2.3454132080078125
1663860789632406000,9.115406005859375,1.5896453857421875,-1.061920166015625,-2.062896728515625
1663860789642263000,9.125262939453124,0.4069061279296875,-2.1656494140625,-1.914459228515625
1663860789652150800,9.13515087890625,-1.707183837890625,-3.891876220703125,-1.8378448486328125
1663860789662038500,9.14503857421875,-5.71746826171875,-6.4416961669921875,-1.5409698486328125
1663860789671926300,9.15492626953125,-11.492279052734375,-9.673873901367188,-0.9878997802734375
1663860789681814000,9.16481396484375,-17.094711303710938,-13.784713745117188,-0.48272705078125
1663860789691701800,9.17470166015625,-19.3787841796875,-19.288986206054688,-0.4947052001953125
1663860789701589200,9.18458935546875,-21.131332397460938,-26.066970825195312,-0.9256591796875
1663860789711446500,9.194446533203125,-23.029937744140625,-33.99656677246094,-3.6813812255859375
1663860789721303800,9.2043037109375,-20.74346923828125,-34.0635986328125,-4.1314849853515625
1663860789731191300,9.21419140625,-15.595947265625,-21.652053833007812,-1.7947540283203125
1663860789741048600,9.224048583984375,-8.954421997070312,-10.006668090820312,-3.6981353759765625
1663860789750966800,9.233966796875,-4.4150238037109375,-0.9422149658203125,-3.509002685546875
1663860789760854500,9.2438544921875,-2.2291107177734375,5.8716888427734375,-1.4954833984375
1663860789770742300,9.2537421875,-2.279388427734375,8.05279541015625,-1.0717010498046875
1663860789780629800,9.263629638671874,1.3310699462890625,2.7448577880859375,-2.2065582275390625
1663860789790517500,9.273517578125,8.053985595703125,-5.2781219482421875,-0.51385498046875
1663860789800405200,9.2834052734375,8.212005615234375,-10.770416259765625,0.7024078369140625
1663860789810293000,9.29329296875,3.0644683837890625,-14.627471923828125,0.6042327880859375
1663860789820150000,9.30314990234375,-3.124542236328125,-18.111038208007812,0.2714385986328125
1663860789830037800,9.313037841796875,-11.997451782226562,-22.55706787109375,-2.536956787109375
1663860789839925500,9.322925537109375,-9.782821655273438,-24.276107788085938,-5.8409576416015625
1663860789849813200,9.332813232421875,2.3318328857421875,-16.837326049804688,-5.654205322265625
1663860789859701000,9.342700927734375,5.0731964111328125,-9.029830932617188,-9.425079345703125
1663860789869588500,9.35258837890625,-1.496490478515625,-5.507965087890625,-14.256576538085938
1663860789879476200,9.362476318359375,-1.0439910888671875,-2.804901123046875,-11.678009033203125
1663860789889364000,9.372364013671875,6.0644073486328125,-2.6277313232421875,-5.3094329833984375
1663860789899251700,9.382251708984375,11.195175170898438,-4.653228759765625,0.9322509765625
1663860789909139500,9.392139404296875,9.315719604492188,-6.9588470458984375,3.6041717529296875
1663860789919027200,9.402027099609375,4.218475341796875,-9.791183471679688,3.7526092529296875
1663860789928884200,9.41188427734375,0.054962158203125,-12.736053466796875,4.3751068115234375
1663860789938772000,9.42177197265625,-3.239471435546875,-15.348129272460938,5.4046173095703125
1663860789948659700,9.43165966796875,-3.6177520751953125,-16.921112060546875,5.4955902099609375
1663860789958547500,9.44154736328125,-2.08306884765625,-17.493331909179688,3.3958740234375
1663860789968435000,9.45143505859375,-0.7399139404296875,-16.339324951171875,1.868377685546875
1663860789978322700,9.46132275390625,0.3063507080078125,-14.055252075195312,1.4493865966796875
1663860789988210400,9.47121044921875,0.5385894775390625,-11.914840698242188,0.04638671875
1663860789998098200,9.48109814453125,0.5912628173828125,-9.906112670898438,-2.0605010986328125
1663860790007955200,9.490955078125,-0.5866851806640625,-8.062576293945312,-3.276763916015625
1663860790017843000,9.500843017578125,-1.939422607421875,-6.6116790771484375,-4.069244384765625
1663860790027730700,9.510730712890625,-1.3863525390625,-6.0179290771484375,-5.718841552734375
1663860790037618400,9.520618408203125,-0.42388916015625,-5.8120269775390625,-5.7140655517578125
1663860790047506200,9.530506103515625,0.3015594482421875,-5.874267578125,-4.090789794921875
1663860790057393700,9.5403935546875,0.615203857421875,-6.6571807861328125,-2.8841094970703125
1663860790067251000,9.5502509765625,0.7301177978515625,-7.8782196044921875,-2.06768798828125
1663860790077108200,9.560108154296875,0.18902587890625,-9.405715942382812,-1.2608489990234375
1663860790086995700,9.56999560546875,0.045379638671875,-10.799148559570312,-0.5641326904296875
1663860790096883500,9.579883544921875,0.342254638671875,-11.175033569335938,0.4294586181640625
1663860790106771200,9.589771240234375,-0.335296630859375,-10.509445190429688,0.865203857421875
1663860790116659000,9.599658935546875,-1.1732635498046875,-9.5086669921875,0.1445465087890625
1663860790126516000,9.609515869140624,-0.895538330078125,-8.613235473632812,-1.46435546875
1663860790136434400,9.619434326171875,-0.6489410400390625,-8.062576293945312,-2.8506011962890625
1663860790146291500,9.62929150390625,-1.47015380859375,-8.074539184570312,-3.4515380859375
1663860790156179200,9.63917919921875,-2.2865753173828125,-8.32354736328125,-3.2216949462890625
1663860790166067000,9.64906689453125,-2.013641357421875,-8.634780883789062,-2.2257080078125
1663860790175924000,9.658924072265625,-0.8452606201171875,-9.27642822265625,-0.5593414306640625
1663860790185811700,9.668811767578125,0.193817138671875,-10.3753662109375,0.9370269775390625
1663860790195730000,9.67872998046875,-0.3712158203125,-11.3043212890625,1.7965545654296875
1663860790205617700,9.68861767578125,-1.9849090576171875,-11.986663818359375,1.7654266357421875
1663860790215505400,9.69850537109375,-3.5076141357421875,-12.257217407226562,1.1788482666015625
1663860790225362400,9.708362548828125,-4.805267333984375,-12.37213134765625,0.781402587890625
1663860790235250200,9.718250244140625,-4.740631103515625,-12.4248046875,1.0304107666015625
1663860790245138000,9.728137939453125,-2.6935882568359375,-12.082443237304688,1.978515625
1663860790255025700,9.738025634765625,-1.0032806396484375,-11.986663818359375,2.6369171142578125
1663860790264913400,9.747913330078125,-1.5108489990234375,-13.19573974609375,2.3927001953125
1663860790274801000,9.75780078125,-3.41424560546875,-14.988998413085938,1.67205810546875
1663860790284688600,9.767688720703125,-4.4629058837890625,-15.427139282226562,0.992095947265625
1663860790294546000,9.7775458984375,-3.694366455078125,-14.89801025390625,0.8699951171875
1663860790304433700,9.78743359375,-1.2666473388671875,-15.127853393554688,1.858795166015625
1663860790314321200,9.797321044921874,-0.84765625,-15.666549682617188,2.8212738037109375
1663860790324209000,9.807208984375,-3.00244140625,-15.87005615234375,1.56671142578125
1663860790334096600,9.8170966796875,-5.4612884521484375,-15.379257202148438,-0.99029541015625
1663860790343954000,9.826953857421875,-6.65838623046875,-15.082366943359375,-1.75164794921875
1663860790353841400,9.83684130859375,-5.4541015625,-15.807815551757812,-2.199371337890625
1663860790363729200,9.846729248046875,-5.8443603515625,-16.320175170898438,-4.497802734375
1663860790373617000,9.856616943359375,-6.263336181640625,-14.7591552734375,-7.1625518798828125
1663860790383504600,9.866504638671875,-1.666473388671875,-12.506210327148438,-8.479354858398438
1663860790393362000,9.87636181640625,4.96307373046875,-11.5269775390625,-7.1577606201171875
1663860790403249400,9.88624951171875,7.0053253173828125,-12.841400146484375,-4.2033233642578125
1663860790413137200,9.89613720703125,6.06201171875,-16.31298828125,-3.657440185546875
1663860790423025000,9.90602490234375,3.4283905029296875,-19.061538696289062,-4.87847900390625
1663860790432912600,9.91591259765625,1.884124755859375,-19.751068115234375,-5.050872802734375
1663860790442800400,9.92580029296875,0.4284515380859375,-18.108642578125,-3.3581695556640625
1663860790452688000,9.93568798828125,-1.2307281494140625,-16.109481811523438,-2.0796661376953125
1663860790462575600,9.94557568359375,-1.8795623779296875,-15.522903442382812,-1.576873779296875
1663860790472463400,9.95546337890625,-3.138916015625,-15.724014282226562,-0.772430419921875
1663860790482351000,9.96535107421875,-3.397491455078125,-16.092727661132812,-0.128387451171875
1663860790492238800,9.97523876953125,-0.5699310302734375,-16.056808471679688,0.5850830078125
1663860790502096000,9.985095947265625,2.44915771484375,-15.872451782226562,1.049560546875
1663860790511983600,9.994983642578125,0.9910888671875,-15.338546752929688,1.0471649169921875
1663860790521871400,10.004871337890625,-1.14215087890625,-13.897247314453125,-0.7867889404296875
1663860790531759000,10.014759033203125,-1.3935394287109375,-11.47430419921875,-2.2879638671875
1663860790541646600,10.024646484375,-0.038421630859375,-8.4312744140625,-2.082061767578125
1663860790551534300,10.034534423828125,0.80194091796875,-5.7569580078125,-1.76123046875
1663860790561391600,10.0443916015625,1.4364013671875,-3.6692047119140625,-1.91925048828125
1663860790571279400,10.054279296875,1.946380615234375,-2.2279052734375,-2.1060028076171875
1663860790581197600,10.064197509765625,1.8697662353515625,-1.4186553955078125,-1.6534881591796875
1663860790591054600,10.0740546875,1.7285003662109375,-1.3540191650390625,-1.2345123291015625
1663860790600942300,10.0839423828125,1.915252685546875,-1.5120391845703125,-0.7556610107421875
1663860790610799600,10.093799560546875,1.9439849853515625,-1.7969512939453125,-0.4683685302734375
1663860790620717800,10.1037177734375,1.620758056640625,-2.0243988037109375,-0.5545501708984375
1663860790630605600,10.11360546875,1.599212646484375,-2.060302734375,-0.88494873046875
1663860790640493000,10.1234931640625,1.874542236328125,-1.811309814453125,-1.2728118896484375
1663860790650380800,10.133380859375,2.4036712646484375,-1.3013458251953125,-1.7157440185546875
1663860790660268500,10.1432685546875,2.94476318359375,-0.8105316162109375,-2.1131744384765625
1663860790670156300,10.15315625,3.1291046142578125,-0.405914306640625,-2.3980865478515625
1663860790680013300,10.163013427734375,3.03094482421875,-0.1928253173828125,-2.620758056640625
1663860790689870600,10.17287060546875,2.834625244140625,-0.6932220458984375,-2.7931365966796875
1663860790699788800,10.182788818359375,2.6215362548828125,-1.5072479248046875,-2.7835540771484375
1663860790709676500,10.192676513671875,2.054107666015625,-2.3021240234375,-2.790740966796875
1663860790719564300,10.202564208984375,0.4954833984375,-3.422607421875,-2.5824432373046875
1663860790729421300,10.21242138671875,-2.5068359375,-5.3523406982421875,-2.8362274169921875
1663860790739309000,10.22230908203125,-7.6687469482421875,-7.705841064453125,-2.833831787109375
1663860790749196800,10.23219677734375,-13.764373779296875,-10.772811889648438,-2.6351165771484375
1663860790759053800,10.2420537109375,-17.736358642578125,-14.80224609375,-2.0964202880859375
1663860790768972000,10.251971923828124,-19.120208740234375,-19.973724365234375,-1.05255126953125
1663860790778859800,10.26185986328125,-25.187118530273438,-26.732559204101562,-1.1722564697265625
1663860790788747500,10.27174755859375,-30.301132202148438,-35.73236083984375,-4.73004150390625
1663860790798635300,10.28163525390625,-18.435470581054688,-33.29026794433594,-3.4323883056640625
1663860790808523000,10.29152294921875,-9.694229125976562,-18.565933227539062,-0.8801727294921875
1663860790818380000,10.301380126953125,-4.7286529541015625,-7.17431640625,-3.425201416015625
1663860790828267800,10.311267822265625,-2.0854644775390625,1.035400390625,-3.20733642578125
1663860790838125000,10.321125,-4.192352294921875,5.4024200439453125,-3.985443115234375
1663860790848043300,10.331043212890625,-2.346435546875,1.5836639404296875,-6.2024688720703125
1663860790857931000,10.340930908203125,5.9638519287109375,-7.85906982421875,-4.052490234375
1663860790867818500,10.350818603515625,5.190521240234375,-16.162155151367188,-0.623992919921875
1663860790877675800,10.36067578125,-8.801193237304688,-23.79248046875,-1.957550048828125
1663860790887594000,10.370593994140625,-17.461029052734375,-28.580886840820312,2.46453857421875
1663860790897451300,10.380451171875,-2.4876861572265625,-22.401443481445312,10.50665283203125
1663860790907338800,10.3903388671875,17.278839111328125,-7.7752685546875,5.3040618896484375
1663860790917196000,10.400196044921875,18.483123779296875,3.1518707275390625,-3.19775390625
1663860790927114200,10.4101142578125,7.7403411865234375,3.841400146484375,-13.550277709960938
1663860790936971500,10.419971435546875,-22.112960815429688,-2.7642059326171875,-24.60430908203125
1663860790946889700,10.4298896484375,-15.186538696289062,-5.9245452880859375,-18.429656982421875
1663860790956746800,10.439746826171875,19.103225708007812,-6.0849609375,0.6305694580078125
1663860790966634500,10.449634521484375,21.387298583984375,-8.3450927734375,8.174697875976562
1663860790976522200,10.459522216796875,5.9806060791015625,-11.871749877929688,5.155609130859375
1663860790986410000,10.469409912109375,-3.7829437255859375,-15.695281982421875,2.5148162841796875
1663860790996297500,10.47929736328125,-5.3487548828125,-17.850067138671875,2.8212738037109375
1663860791006185200,10.489185302734375,-2.2913665771484375,-17.87640380859375,3.7621917724609375
1663860791016042500,10.49904248046875,-0.0886993408203125,-16.018508911132812,4.097381591796875
1663860791025930200,10.50893017578125,-1.1038360595703125,-13.949920654296875,3.25701904296875
1663860791035817700,10.518817626953124,-1.2618560791015625,-11.974700927734375,1.308135986328125
1663860791045675000,10.528675048828125,0.32550048828125,-9.987503051757812,-0.6215972900390625
1663860791055593200,10.53859326171875,0.986297607421875,-8.321151733398438,-1.311126708984375
1663860791065481000,10.54848095703125,0.1866302490234375,-7.43768310546875,-1.787567138671875
1663860791075338200,10.558338134765625,-1.56591796875,-7.274871826171875,-3.0852203369140625
1663860791085225700,10.568225830078125,-2.93780517578125,-7.28924560546875,-4.2847137451171875
1663860791095144000,10.57814404296875,-2.9258270263671875,-7.2245941162109375,-4.2727508544921875
1663860791105001200,10.588001220703125,-1.369598388671875,-7.4496612548828125,-3.1905670166015625
1663860791114889000,10.597888916015625,-0.0001068115234375,-8.079330444335938,-2.0150146484375
1663860791124776700,10.607776611328125,0.110015869140625,-8.869415283203125,-1.481109619140625
1663860791134664200,10.617664306640625,-0.42388916015625,-9.664291381835938,-1.3877410888671875
1663860791144552000,10.627552001953125,-0.8787841796875,-10.011459350585938,-1.09564208984375
1663860791154439700,10.637439697265625,-0.9721527099609375,-9.922866821289062,-0.8969268798828125
1663860791164327400,10.647327392578125,-0.830902099609375,-9.247695922851562,-0.609619140625
1663860791174215200,10.657215087890625,-0.8189239501953125,-8.44085693359375,-0.6024322509765625
1663860791184102700,10.6671025390625,-1.0080718994140625,-7.9691925048828125,-0.81072998046875
1663860791193990400,10.676990478515625,-1.132568359375,-8.012298583984375,-1.8115081787109375
1663860791203878100,10.686878173828125,-0.830902099609375,-8.433670043945312,-2.9942474365234375
1663860791213766000,10.696765869140625,-1.1660919189453125,-8.673095703125,-3.90643310546875
1663860791223653600,10.706653564453125,-2.3344573974609375,-9.02264404296875,-4.2679595947265625
1663860791233541000,10.716541015625,-2.94976806640625,-8.972366333007812,-3.446746826171875
1663860791243428900,10.726428955078125,-2.41107177734375,-8.924484252929688,-1.6415252685546875
1663860791253316600,10.736316650390625,-1.0463714599609375,-9.448822021484375,0.19244384765625
1663860791263174000,10.746173828125,-0.344879150390625,-10.351425170898438,1.3632049560546875
1663860791273061600,10.7560615234375,-0.842864990234375,-11.3043212890625,1.8444366455078125
1663860791282918700,10.765918701171875,-2.6624603271484375,-11.950759887695312,1.985687255859375
1663860791292806400,10.775806396484375,-3.9601287841796875,-12.247634887695312,2.057525634765625
1663860791302694100,10.785694091796875,-3.5483245849609375,-12.463119506835938,2.270599365234375
1663860791312582000,10.795581787109375,-2.966522216796875,-12.436782836914062,2.7901458740234375
1663860791322469400,10.805469482421875,-2.5020599365234375,-13.0377197265625,3.0343475341796875
1663860791332357000,10.815357177734375,-2.5619049072265625,-14.617889404296875,2.5267791748046875
1663860791342244900,10.825244873046875,-2.87554931640625,-15.60430908203125,1.8540191650390625
1663860791352132600,10.835132568359375,-2.5283966064453125,-15.834152221679688,1.0352020263671875
1663860791362020400,10.845020263671875,-1.66168212890625,-16.114273071289062,0.6449432373046875
1663860791371907800,10.854907958984375,-2.0639190673828125,-16.664932250976562,0.9681549072265625
1663860791381795600,10.864795654296875,-3.768585205078125,-17.0743408203125,0.8556365966796875
1663860791391683300,10.874683349609375,-5.5570526123046875,-16.66015625,-0.1619110107421875
1663860791401540600,10.88454052734375,-6.5554351806640625,-15.999343872070312,-1.112396240234375
1663860791411428000,10.894427978515624,-5.2865142822265625,-15.96343994140625,-1.59124755859375
1663860791421285400,10.904285400390625,-5.1141204833984375,-16.58831787109375,-3.18817138671875
1663860791431173000,10.914173095703125,-6.610504150390625,-15.958648681640625,-6.2264251708984375
1663860791441030100,10.924030029296874,-4.3575592041015625,-13.918792724609375,-8.496124267578125
1663860791450948400,10.9339482421875,1.778778076171875,-12.250030517578125,-8.189666748046875
1663860791460836000,10.943836181640625,6.9215240478515625,-12.53973388671875,-5.3836669921875
1663860791470723800,10.953723876953125,7.113067626953125,-15.60430908203125,-3.693359375
1663860791480581000,10.9635810546875,5.602325439453125,-18.968154907226562,-4.619903564453125
1663860791490468600,10.973468505859374,4.4267730712890625,-20.203567504882812,-6.0420684814453125
1663860791500356400,10.9833564453125,1.862579345703125,-19.118988037109375,-5.6996917724609375
1663860791510244000,10.993244140625,-1.0248260498046875,-16.655364990234375,-4.01177978515625
1663860791520101400,11.003101318359375,-2.221923828125,-15.31939697265625,-2.7021484375
1663860791530019600,11.01301953125,-2.4781036376953125,-15.27630615234375,-1.9384002685546875
1663860791539907300,11.0229072265625,-2.691192626953125,-15.24517822265625,-0.8346710205078125
1663860791549794800,11.032794921875,-1.2235565185546875,-15.197296142578125,-0.12359619140625
1663860791559682600,11.0426826171875,1.082061767578125,-14.974624633789062,0.3552398681640625
1663860791569570300,11.0525703125,1.2568511962890625,-14.754364013671875,0.9729461669921875
1663860791579458000,11.0624580078125,0.1052398681640625,-13.59796142578125,-0.1259918212890625
1663860791589345800,11.072345703125,-1.0727081298828125,-11.543746948242188,-1.797149658203125
1663860791599233300,11.0822333984375,-0.481353759765625,-8.68505859375,-2.417236328125
1663860791609121000,11.09212109375,0.031005859375,-5.9125823974609375,-1.8593902587890625
1663860791619008800,11.1020087890625,0.83306884765625,-3.798492431640625,-1.7277069091796875
1663860791628866000,11.111865966796875,1.7955322265625,-2.0315704345703125,-1.428436279296875
1663860791638753500,11.12175341796875,2.09002685546875,-1.06671142578125,-0.8705902099609375
1663860791648641300,11.131641357421875,1.94158935546875,-0.8153228759765625,-0.6742706298828125
1663860791658529000,11.141529052734375,1.6183624267578125,-0.9565887451171875,-0.698211669921875
1663860791668416800,11.151416748046875,1.6494903564453125,-1.251068115234375,-0.72454833984375
1663860791678273800,11.161273681640624,1.7548370361328125,-1.478515625,-0.5784912109375
1663860791688161500,11.17116162109375,1.778778076171875,-1.737091064453125,-0.8705902099609375
1663860791698049300,11.18104931640625,2.01580810546875,-1.7969512939453125,-1.3302764892578125
1663860791707937000,11.19093701171875,2.3414154052734375,-1.6078033447265625,-1.8689727783203125
1663860791717824800,11.20082470703125,2.497039794921875,-1.229522705078125,-2.388519287109375
1663860791727681800,11.210681884765625,2.5736541748046875,-0.848846435546875,-2.6997528076171875
1663860791737569500,11.220569580078125,2.2839508056640625,-0.8775787353515625,-2.917633056640625
1663860791747457300,11.230457275390625,1.8338470458984375,-1.1959991455078125,-2.812286376953125
1663860791757345000,11.240344970703125,1.5441436767578125,-1.7514495849609375,-2.5968017578125
1663860791767232800,11.250232666015625,1.1467132568359375,-2.519989013671875,-2.4770965576171875
1663860791777120300,11.260120361328125,0.268035888671875,-3.2981109619140625,-2.4076690673828125
1663860791787008000,11.270008056640625,-1.71435546875,-4.47845458984375,-2.4364013671875
1663860791796895700,11.279895751953125,-5.43255615234375,-6.4105682373046875,-2.410064697265625
1663860791806783500,11.289783447265625,-11.0948486328125,-8.919692993164062,-2.189788818359375
1663860791816671200,11.299671142578125,-17.48736572265625,-12.10638427734375,-2.029388427734375
1663860791826558700,11.309558837890625,-20.43701171875,-16.672119140625,-2.326263427734375
1663860791836446500,11.319446533203125,-21.346817016601562,-23.155624389648438,-2.094024658203125
1663860791846303700,11.3293037109375,-24.844741821289062,-31.91839599609375,-3.236053466796875
1663860791856191500,11.33919140625,-23.429763793945312,-36.26866149902344,-3.71490478515625
1663860791866079000,11.349078857421874,-16.402786254882812,-25.434906005859375,0.834075927734375
1663860791875966700,11.358966796875,-9.78521728515625,-12.6043701171875,-0.434844970703125
1663860791885854500,11.3688544921875,-4.35516357421875,-3.068267822265625,-2.0437469482421875
1663860791895742200,11.3787421875,-4.529937744140625,3.238067626953125,-1.703765869140625
1663860791905630000,11.3886298828125,-4.3144683837890625,2.266021728515625,-3.9399566650390625
1663860791915517400,11.398517333984374,6.016510009765625,-6.0825653076171875,-4.3038787841796875
1663860791925374700,11.408374755859375,11.331649780273438,-13.993011474609375,-1.8043212890625
1663860791935232000,11.41823193359375,-0.5843048095703125,-20.471725463867188,-3.2121124267578125
1663860791945089000,11.428089111328125,-14.46588134765625,-24.4173583984375,-3.26239013671875
1663860791955007200,11.43800732421875,-12.62713623046875,-22.72467041015625,3.6927642822265625
1663860791964864500,11.447864501953125,9.397125244140625,-12.448745727539062,5.153228759765625
1663860791974782700,11.45778271484375,18.061752319335938,0.1064453125,0.738311767578125
1663860791984640000,11.467639892578125,14.2406005859375,4.825408935546875,-6.573577880859375
1663860791994527500,11.477527587890625,-3.5219879150390625,-0.1233978271484375,-16.634017944335938
1663860792004415200,11.487415283203125,-22.314071655273438,-5.428955078125,-19.102432250976562
1663860792014272500,11.4972724609375,1.73089599609375,-6.5733795166015625,-6.013336181640625
1663860792024160300,11.50716015625,24.207656860351562,-7.6627349853515625,6.1300506591796875
1663860792034078500,11.517078369140625,14.12567138671875,-10.550140380859375,6.3287811279296875
1663860792043966000,11.526966064453125,-0.174896240234375,-14.016952514648438,1.9713287353515625
1663860792053853700,11.536853759765625,-5.2745361328125,-15.896392822265625,1.499664306640625
1663860792063741400,11.546741455078125,-3.17242431640625,-16.921112060546875,2.2083587646484375
1663860792073629200,11.556629150390625,-0.2060089111328125,-16.770278930664062,1.889923095703125
1663860792083517000,11.566516845703125,0.308746337890625,-15.187713623046875,1.6385345458984375
1663860792093404400,11.576404296875,-0.5579681396484375,-13.25799560546875,1.20758056640625
1663860792103292200,11.586292236328125,-0.6656951904296875,-11.390518188476562,0.146942138671875
1663860792113180000,11.596179931640625,0.4380340576171875,-9.4775390625,-0.9926910400390625
1663860792123067600,11.606067626953125,1.0677032470703125,-7.93328857421875,-1.9862823486328125
1663860792132955400,11.615955322265625,0.7037811279296875,-7.1240386962890625,-2.9679107666015625
1663860792142812400,11.6258125,-0.821319580078125,-6.7433624267578125,-3.552093505859375
1663860792152700200,11.6357001953125,-1.776611328125,-6.946868896484375,-3.9136199951171875
1663860792162588000,11.645587890625,-1.49169921875,-7.5142974853515625,-3.18817138671875
1663860792172475600,11.6554755859375,-0.45501708984375,-8.196640014648438,-1.51702880859375
1663860792182363100,11.665363037109374,0.3326873779296875,-9.044189453125,-0.6527099609375
1663860792192251000,11.6752509765625,0.31591796875,-9.865402221679688,-0.1571197509765625
1663860792202138600,11.685138671875,-0.4573974609375,-10.598037719726562,0.4342498779296875
1663860792212026400,11.6950263671875,-0.835693359375,-10.724929809570312,0.3719940185546875
1663860792221853000,11.70485302734375,-1.0296173095703125,-10.092849731445312,0.0391998291015625
1663860792231740700,11.71474072265625,-1.561126708984375,-9.027435302734375,-0.5952606201171875
1663860792241598000,11.724597900390625,-1.9441986083984375,-7.897369384765625,-1.428436279296875
1663860792251516200,11.73451611328125,-0.67767333984375,-7.559783935546875,-2.6710357666015625
1663860792261404000,11.74440380859375,-0.3065643310546875,-7.8351287841796875,-3.5113983154296875
1663860792271261000,11.754260986328125,-1.3743896484375,-8.242141723632812,-3.298309326171875
1663860792281179100,11.76417919921875,-1.7263336181640625,-8.644363403320312,-2.690185546875
1663860792291067000,11.77406689453125,-1.285797119140625,-9.207000732421875,-1.924041748046875
1663860792300954600,11.78395458984375,-0.9027252197265625,-10.0162353515625,-0.8634033203125
1663860792310842400,11.79384228515625,-0.545989990234375,-11.100814819335938,0.0391998291015625
1663860792320729900,11.803729736328124,-0.7925872802734375,-11.704147338867188,0.8508453369140625
1663860792330617600,11.81361767578125,-1.6114044189453125,-11.670639038085938,0.8292999267578125
1663860792340475000,11.823474853515625,-3.2801666259765625,-11.404876708984375,0.082305908203125
1663860792350362600,11.833362548828125,-5.1452484130859375,-11.421630859375,-0.3749847412109375
1663860792360250000,11.84325,-5.3391876220703125,-11.862167358398438,-0.6407470703125
1663860792370137900,11.853137939453125,-3.1939697265625,-11.878936767578125,-0.1523284912109375
1663860792380025600,11.863025634765625,-0.821319580078125,-11.804702758789062,1.1620941162109375
1663860792389913300,11.872913330078125,-0.3089599609375,-12.87969970703125,2.239471435546875
1663860792399801000,11.882801025390625,-2.073486328125,-15.046463012695312,2.25384521484375
1663860792409688600,11.8926884765625,-3.96490478515625,-16.332138061523438,1.6121978759765625
1663860792419545900,11.9025458984375,-3.5746612548828125,-16.210037231445312,1.571502685546875
1663860792429433600,11.91243359375,-1.702392578125,-15.824569702148438,2.227508544921875
1663860792439321300,11.9223212890625,-1.19482421875,-15.599517822265625,2.6656494140625
1663860792449209000,11.932208984375,-2.48529052734375,-15.532485961914062,1.858795166015625
1663860792459096600,11.9420966796875,-4.5371246337890625,-15.510940551757812,-0.2169647216796875
1663860792468984300,11.951984375,-6.0861663818359375,-15.458267211914062,-2.2400665283203125
1663860792478872000,11.9618720703125,-5.691131591796875,-16.3441162109375,-3.6741943359375
1663860792488759800,11.971759765625,-5.7078857421875,-16.95703125,-5.4195709228515625
1663860792498647600,11.9816474609375,-6.0789947509765625,-15.879638671875,-7.7108306884765625
1663860792508504600,11.991504638671875,-0.6680908203125,-13.7440185546875,-8.378799438476562
1663860792518361900,12.00136181640625,7.56317138671875,-12.135101318359375,-6.3748626708984375
1663860792528249600,12.01124951171875,8.86322021484375,-13.267562866210938,-4.3733062744140625
1663860792538137000,12.02113720703125,5.6478118896484375,-16.763107299804688,-4.9910125732421875
1663860792548024800,12.03102490234375,3.014190673828125,-19.6505126953125,-6.5400543212890625
1663860792557882000,12.040882080078125,1.809906005859375,-20.536361694335938,-6.499359130859375
1663860792567800300,12.05080029296875,-1.137359619140625,-18.726348876953125,-3.62152099609375
1663860792577688000,12.06068798828125,-2.4828948974609375,-16.499740600585938,-0.212188720703125
1663860792587575600,12.070575439453124,-1.4246673583984375,-15.977798461914062,0.726348876953125
1663860792597463300,12.08046337890625,-0.78302001953125,-16.456649780273438,-0.37738037109375
1663860792607351000,12.09035107421875,-0.1461639404296875,-16.360870361328125,-0.9065093994140625
1663860792617208300,12.100208251953125,1.524993896484375,-15.716827392578125,-0.561737060546875
1663860792627095800,12.110095703125,1.6063995361328125,-14.672958374023438,-0.9376220703125
1663860792636953000,12.119953125,-0.239532470703125,-12.987442016601562,-1.8641815185546875
1663860792646871300,12.129871337890625,-1.2977752685546875,-10.425643920898438,-2.833831787109375
1663860792656728600,12.139728515625,-0.6920318603515625,-7.6890716552734375,-1.7995452880859375
1663860792666613800,12.14961376953125,0.2536773681640625,-5.98919677734375,-1.165069580078125
1663860792676501500,12.15950146484375,1.1730499267578125,-4.7250518798828125,-1.1363525390625
1663860792686389000,12.169388916015626,1.6016082763671875,-3.422607421875,-0.9232635498046875
1663860792696246300,12.179246337890625,1.9870758056640625,-2.38592529296875,-0.425262451171875
1663860792706164500,12.18916455078125,2.05889892578125,-1.674835205078125,-0.0733184814453125
1663860792716021800,12.199021728515625,2.0134124755859375,-1.3851470947265625,-0.011077880859375
1663860792725940000,12.20893994140625,1.884124755859375,-1.45697021484375,-0.00628662109375
1663860792735797000,12.218796875,1.874542236328125,-1.473724365234375,-0.1355743408203125
1663860792745684700,12.228684814453125,2.334228515625,-1.430633544921875,-0.33428955078125
1663860792755572500,12.238572509765625,2.719696044921875,-1.21514892578125,-0.72454833984375
1663860792765460200,12.248460205078125,3.11474609375,-0.7291259765625,-1.2153472900390625
1663860792775347700,12.25834765625,3.39007568359375,-0.2766265869140625,-1.6678619384765625
1663860792785205000,12.268205078125,3.3038787841796875,-0.068328857421875,-1.90966796875
1663860792795123200,12.278123291015625,2.9543304443359375,-0.204803466796875,-1.7684173583984375
1663860792804980500,12.28798046875,2.44915771484375,-0.638153076171875,-1.354217529296875
1663860792814837500,12.29783740234375,2.1235504150390625,-1.1959991455078125,-1.0717010498046875
1663860792824725200,12.307725341796875,1.481903076171875,-1.6987762451171875,-0.930450439453125
1663860792834613000,12.317613037109375,-0.42388916015625,-2.7019500732421875,-0.951995849609375
1663860792844500700,12.327500732421875,-3.2682037353515625,-4.674774169921875,-1.33746337890625
1663860792854388200,12.33738818359375,-8.06378173828125,-7.452056884765625,-1.5840606689453125
1663860792864276000,12.34727587890625,-15.126678466796875,-10.803939819335938,-1.46435546875
1663860792874163700,12.357163818359375,-21.04754638671875,-14.955474853515625,-2.3861236572265625
1663860792884051500,12.367051513671875,-21.217529296875,-20.428619384765625,-3.26239013671875
1663860792893939200,12.376939208984375,-23.7745361328125,-28.623977661132812,-4.3948516845703125
1663860792903796200,12.386796142578126,-28.58209228515625,-38.02122497558594,-6.56878662109375
1663860792913684000,12.39668408203125,-20.56390380859375,-34.10670471191406,-2.9319915771484375
1663860792923571700,12.40657177734375,-11.212158203125,-18.5731201171875,-0.803558349609375
1663860792933490000,12.416489990234375,-4.3336181640625,-7.0570068359375,-3.5999755859375
1663860792943377700,12.426377685546875,-1.479736328125,2.1654510498046875,-2.3813323974609375
1663860792953234700,12.436234619140626,-4.675994873046875,6.9514617919921875,-2.7835540771484375
1663860792963122400,12.446122314453126,-1.146942138671875,3.14947509765625,-4.1314849853515625
1663860792972979700,12.455979736328125,12.351577758789062,-5.48162841796875,-0.5760955810546875
1663860792982898000,12.46589794921875,10.101028442382812,-12.616348266601562,2.543548583984375
1663860792992785700,12.47578564453125,-2.62176513671875,-18.364822387695312,0.1014556884765625
1663860793002642700,12.485642578125,-11.458755493164062,-23.620101928710938,0.0320281982421875
1663860793012561000,12.495560791015626,-7.3551025390625,-23.59136962890625,1.351226806640625
1663860793022418200,12.505418212890625,5.90399169921875,-13.16461181640625,-0.497100830078125
1663860793032306000,12.515305908203125,13.280517578125,-2.9293975830078125,-4.459503173828125
1663860793042193400,12.525193359375,3.92877197265625,-1.5096435546875,-12.592605590820312
1663860793052081200,12.5350810546875,-14.406021118164062,-4.5335235595703125,-17.570144653320312
1663860793061938400,12.5449384765625,-6.4117889404296875,-6.396209716796875,-11.366775512695312
1663860793071826200,12.554826171875,14.001174926757812,-7.1767120361328125,0.1230010986328125
1663860793081744400,12.564744384765625,16.134414672851562,-8.488739013671875,4.95928955078125
1663860793091632000,12.574632080078125,6.248748779296875,-10.530990600585938,3.316864013671875
1663860793101489200,12.5844892578125,-1.058349609375,-12.786331176757812,1.679229736328125
1663860793111346400,12.594346435546875,-2.8372344970703125,-14.179763793945312,2.292144775390625
1663860793121234200,12.604234130859375,-0.704010009765625,-14.790283203125,3.4198150634765625
1663860793131152400,12.61415234375,0.1172027587890625,-15.2978515625,2.6009979248046875
1663860793141039900,12.624039794921876,-0.873992919921875,-14.912384033203125,1.693603515625
1663860793150927600,12.633927734375,-1.221160888671875,-13.621902465820312,1.3488311767578125
1663860793160815400,12.6438154296875,-0.2682647705078125,-11.869354248046875,0.716766357421875
1663860793170703000,12.653703125,0.9982757568359375,-10.202987670898438,-0.391754150390625
1663860793180590800,12.6635908203125,0.995880126953125,-8.814346313476562,-1.31591796875
1663860793190478300,12.673478271484376,-0.0479888916015625,-7.892578125,-2.314300537109375
1663860793200366000,12.683365966796876,-1.5036773681640625,-7.48077392578125,-3.4275970458984375
1663860793210253800,12.69325390625,-2.4182586669921875,-7.368255615234375,-3.9232025146484375
1663860793220111000,12.703111083984375,-1.6305694580078125,-7.5238800048828125,-3.3031005859375
1663860793229998600,12.71299853515625,-0.414306640625,-7.8997650146484375,-2.474700927734375
1663860793239886300,12.72288623046875,0.596038818359375,-8.225372314453125,-2.115570068359375
1663860793249774000,12.732774169921875,0.806732177734375,-8.898147583007812,-0.9232635498046875
1663860793259661800,12.742661865234375,0.382965087890625,-9.760055541992188,-0.34625244140625
1663860793269549600,12.752549560546875,0.0214385986328125,-9.997085571289062,-0.4468231201171875
1663860793279437000,12.76243701171875,-0.7399139404296875,-9.611618041992188,-0.983123779296875
1663860793289324800,12.77232470703125,-1.1732635498046875,-8.893356323242188,-1.7109527587890625
1663860793299212500,12.782212646484375,-0.4909210205078125,-8.160736083984375,-2.39569091796875
1663860793309100300,12.792100341796875,-0.323333740234375,-7.60528564453125,-3.8106689453125
1663860793318957600,12.80195751953125,-1.5994415283203125,-7.7106170654296875,-4.5265350341796875
1663860793328845000,12.811844970703126,-2.320098876953125,-7.9428558349609375,-3.9782562255859375
1663860793338732800,12.82173291015625,-1.68084716796875,-8.194259643554688,-2.3621826171875
1663860793348620500,12.83162060546875,-0.0743255615234375,-8.773651123046875,-0.312744140625
1663860793358508300,12.84150830078125,1.22332763671875,-9.896530151367188,1.023223876953125
1663860793368396000,12.85139599609375,0.268035888671875,-10.98828125,1.466156005859375
