time,seconds_elapsed,z,y,x
1663860957363969800,0.2309697265625,3.7422633171081543,-1.1489415168762207,1.3111903667449951
1663860957373857500,0.240857421875,2.269613742828369,-0.7131514549255371,0.3626847267150879
1663860957383745300,0.250745361328125,2.69796085357666,-0.7293734550476074,-0.2004082202911377
1663860957393633000,0.260633056640625,1.198432445526123,-0.6625311374664307,-0.1258080005645752
1663860957403520800,0.270520751953125,0.49463319778442383,-0.6060640811920166,0.3682987689971924
1663860957413408500,0.280408447265625,0.8433318138122559,-0.4592578411102295,1.37257981300354
1663860957423296000,0.2902958984375,0.9108490943908691,-0.05224204063415527,1.8061069250106812
1663860957433183700,0.300183837890625,0.6363964080810547,0.2500920295715332,1.8715488910675049
1663860957443071500,0.310071533203125,0.7805900573730469,0.4032576084136963,1.9747499227523804
1663860957452959200,0.319959228515625,1.1056718826293945,0.5084059238433838,1.6561875343322754
1663860957462847000,0.329846923828125,1.0865278244018555,0.49337291717529297,0.8834333419799805
1663860957472734500,0.339734375,0.41512203216552734,0.2793142795562744,0.6677758693695068
1663860957482591700,0.349591796875,-0.08936500549316406,0.14667773246765137,1.2829835414886475
1663860957492479500,0.3594794921875,0.3848762512207031,0.127272367477417,1.1042001247406006
1663860957502367200,0.3693671875,1.3279094696044922,0.21227693557739258,-0.5712314248085022
1663860957512254700,0.379254638671875,1.887160301208496,0.06192159652709961,-2.697115182876587
1663860957522142500,0.389142578125,1.5841188430786133,-0.4638559818267822,-2.70281720161438
1663860957532030200,0.3990302734375,0.8972158432006836,-0.9591212272644043,-0.6331580877304077
1663860957541918000,0.40891796875,0.7653341293334961,-0.7777986526489258,0.4285740256309509
1663860957551805700,0.4188056640625,0.4597291946411133,0.08910179138183594,0.3403279185295105
1663860957561662700,0.428662841796875,0.38947582244873047,0.9024310111999512,0.6442183256149292
1663860957571550500,0.438550537109375,0.6500110626220703,0.8950691223144531,0.6884828209877014
1663860957581407700,0.44840771484375,1.4875144958496094,0.22035431861877441,0.21630001068115234
1663860957591264800,0.4582646484375,2.2513179779052734,-0.5228109359741211,-0.23333710432052612
1663860957601183000,0.468182861328125,1.9388647079467773,-0.8721046447753906,-0.4840890169143677
1663860957611070700,0.47807080078125,1.3880796432495117,-0.9039874076843262,-0.2511718273162842
1663860957620958500,0.48795849609375,0.8903093338012695,-0.6801588535308838,-0.15009111166000366
1663860957630846200,0.49784619140625,0.1364603042602539,-0.33702945709228516,0.13759687542915344
1663860957640734000,0.50773388671875,-0.5309743881225586,0.3066380023956299,0.5987716913223267
1663860957650621400,0.517621337890625,-0.6912660598754883,0.8030049800872803,0.822292685508728
1663860957660509200,0.52750927734375,-0.5810451507568359,0.7279632091522217,0.8076848387718201
1663860957670397000,0.53739697265625,-0.9793205261230469,0.35842061042785645,0.4087030291557312
1663860957680284700,0.54728466796875,-1.0339136123657227,-0.08726978302001953,-0.04838547110557556
1663860957690172400,0.55717236328125,-0.3132209777832031,-0.6180059909820557,-0.387514591217041
1663860957700029400,0.567029541015625,0.44124794006347656,-0.4796302318572998,-0.43709254264831543
1663860957709917200,0.576917236328125,1.0946025848388672,-0.22672533988952637,-0.32874596118927
1663860957719805000,0.586804931640625,1.1612110137939453,-0.22342348098754883,0.14406362175941467
1663860957729692700,0.596692626953125,0.555729866027832,0.04611468315124512,0.35258907079696655
1663860957739580200,0.606580078125,-0.12331485748291016,0.3318319320678711,0.11579175293445587
1663860957749468000,0.616468017578125,-0.5719442367553711,0.13413548469543457,-0.1310264766216278
1663860957759355600,0.626355712890625,-0.6547937393188477,-0.15395545959472656,-0.08705854415893555
1663860957769213000,0.636212890625,-0.6165533065795898,-0.029045820236206055,0.3166254162788391
1663860957779100400,0.646100341796875,-0.662968635559082,0.2357785701751709,0.37958982586860657
1663860957788988200,0.65598828125,-0.8380231857299805,0.4535036087036133,0.4691762626171112
1663860957798876000,0.6658759765625,-0.1592092514038086,0.3069472312927246,0.4822292625904083
1663860957808763600,0.675763671875,1.2823152542114258,0.006025075912475586,0.002500920556485653
1663860957818651400,0.6856513671875,1.9589576721191406,-0.29571986198425293,-0.228737473487854
1663860957828508400,0.69550830078125,1.4608736038208008,-0.42957305908203125,-0.1371757686138153
1663860957838396200,0.705396240234375,0.6463556289672852,-0.3275294303894043,-0.2529458999633789
1663860957848284000,0.715283935546875,0.13906478881835938,-0.2907443046569824,-0.33547383546829224
1663860957858171600,0.725171630859375,-0.025750160217285156,-0.21767568588256836,-0.1454927772283554
1663860957868028700,0.735028564453125,-0.2925081253051758,0.15436315536499023,0.5302191972732544
1663860957877886000,0.744885986328125,-0.4209165573120117,0.5415005683898926,0.7621363997459412
1663860957887804200,0.75480419921875,-0.2002248764038086,0.46140170097351074,0.3802998661994934
1663860957897692000,0.76469189453125,0.142791748046875,0.22455215454101562,-0.008548855781555176
1663860957907579600,0.77457958984375,0.6720075607299805,-0.02808403968811035,-0.2159576714038849
1663860957917467100,0.784467041015625,1.3362808227539062,-0.3097198009490967,-0.2910141944885254
1663860957927355000,0.79435498046875,1.6370697021484375,-0.39455270767211914,-0.35318103432655334
1663860957937242600,0.80424267578125,1.307042121887207,-0.20682954788208008,-0.11717207729816437
1663860957947130400,0.81413037109375,0.6009025573730469,0.2318861484527588,0.5322669744491577
1663860957956987400,0.8239873046875,-0.22502803802490234,0.5693881511688232,0.7147570252418518
1663860957966875100,0.833875244140625,-0.5357999801635742,0.5921623706817627,0.784500241279602
1663860957976732400,0.843732421875,-0.37812137603759766,0.6219589710235596,0.9563702344894409
1663860957986620200,0.8536201171875,-0.3970212936401367,0.5307867527008057,0.674217939376831
1663860957996466400,0.863466552734375,-0.5431890487670898,0.22389936447143555,0.48794031143188477
1663860958006384600,0.873384521484375,-0.04590320587158203,-0.2766549587249756,-0.27211564779281616
1663860958016242000,0.883241943359375,0.9477577209472656,-0.7252159118652344,-0.6561257839202881
1663860958026129700,0.893129638671875,1.654585838317871,-0.9042835235595703,-0.8117194771766663
1663860958036017400,0.903017333984375,0.6943235397338867,-0.692889928817749,-0.5383754968643188
1663860958045905000,0.91290478515625,0.3942079544067383,-0.2943289279937744,0.2667613923549652
1663860958055792600,0.922792724609375,0.6565828323364258,0.0023186206817626953,0.6812063455581665
1663860958065650000,0.93264990234375,0.1950845718383789,-0.21904444694519043,0.1554318070411682
1663860958075568000,0.942568115234375,-0.21125221252441406,-0.5191774368286133,-0.3568395674228668
1663860958085456000,0.952455810546875,-0.3155698776245117,-0.33728861808776855,-0.4221227169036865
1663860958095343400,0.96234326171875,-0.2226572036743164,-0.0780634880065918,-0.0218428373336792
1663860958105231000,0.972231201171875,-0.33173370361328125,0.09511852264404297,0.33466652035713196
1663860958115118800,0.982118896484375,-0.4877023696899414,0.1267681121826172,0.28124386072158813
1663860958124976000,0.99197607421875,-0.2015514373779297,-0.11321067810058594,-0.028601795434951782
1663860958134863600,1.001863525390625,0.1550607681274414,-0.29833292961120605,-0.2191942036151886
1663860958144751400,1.01175146484375,0.32236480712890625,-0.2598438262939453,-0.16644704341888428
1663860958154639000,1.02163916015625,0.1833658218383789,-0.046437978744506836,0.06743204593658447
1663860958164526800,1.03152685546875,-0.20551013946533203,0.19842815399169922,0.23447155952453613
1663860958174414600,1.04141455078125,-0.33292102813720703,0.4093031883239746,0.3821556568145752
1663860958184302000,1.051302001953125,-0.47954654693603516,0.18352079391479492,0.3890199661254883
1663860958194189800,1.06118994140625,-0.42989063262939453,0.05256009101867676,0.14654219150543213
1663860958204077600,1.07107763671875,0.02777862548828125,-0.03068256378173828,0.015194952487945557
1663860958213934800,1.080934814453125,0.3195381164550781,-0.11993527412414551,0.11983370780944824
1663860958223822600,1.090822509765625,0.2757225036621094,-0.15464568138122559,-0.0692746639251709
1663860958233710000,1.1007099609375,0.14760303497314453,-0.19259953498840332,-0.23081636428833008
1663860958243597800,1.110597900390625,0.11945915222167969,-0.14802265167236328,-0.09579294919967651
1663860958253485600,1.120485595703125,0.2733039855957031,-0.13827848434448242,-0.008379638195037842
1663860958263342800,1.1303427734375,0.30101585388183594,-0.22360730171203613,-0.03488057851791382
1663860958273199900,1.140199951171875,0.46605777740478516,-0.24691438674926758,0.00614321231842041
1663860958283118000,1.1501181640625,0.5582733154296875,-0.18977093696594238,0.014620780944824219
1663860958293005800,1.160005859375,0.18030261993408203,-0.17895936965942383,-0.009621679782867432
1663860958302893600,1.1698935546875,-0.011668205261230469,-0.0605769157409668,-0.05558371543884277
1663860958312781300,1.17978125,0.06598663330078125,-0.04432392120361328,0.040979862213134766
1663860958322668800,1.189668701171875,0.09343147277832031,0.025813579559326172,0.28164541721343994
1663860958332556500,1.199556640625,0.5288619995117188,0.24397826194763184,0.51149582862854
1663860958342444300,1.2094443359375,0.8286619186401367,-0.043993234634399414,0.34107428789138794
1663860958352332000,1.21933203125,0.7694978713989258,-0.1970226764678955,0.20658838748931885
1663860958362219800,1.2292197265625,0.2888774871826172,-0.09749364852905273,-0.13822519779205322
1663860958372107300,1.239107177734375,-0.30610179901123047,-0.3364105224609375,-0.34284913539886475
1663860958381964500,1.248964599609375,-0.7627086639404297,-0.4572727680206299,-0.22512507438659668
1663860958391852300,1.258852294921875,-1.504063606262207,-0.8254914283752441,0.02249091863632202
1663860958401740000,1.268739990234375,-2.260525703430176,-1.5952215194702148,-0.11992418766021729
1663860958411627500,1.27862744140625,-3.109522819519043,-2.0343217849731445,0.15216481685638428
1663860958421515300,1.288515380859375,-4.016008377075195,-1.8991248607635498,0.5889630317687988
1663860958431403000,1.298403076171875,-3.125899314880371,-1.80126953125,0.2654600143432617
1663860958441290800,1.308290771484375,-1.9033184051513672,-1.514049768447876,0.54502272605896
1663860958451148000,1.31814794921875,-4.514827728271484,-1.1535437107086182,2.1461236476898193
1663860958461035500,1.328035400390625,-6.488012313842773,-0.7863876819610596,2.118286609649658
1663860958470923300,1.33792333984375,-3.1050500869750977,-0.051930904388427734,-0.580049991607666
1663860958480780500,1.347780517578125,-0.3518953323364258,-1.0662968158721924,-3.7235941886901855
1663860958490637600,1.357637451171875,2.5102624893188477,-1.7233796119689941,-4.063775062561035
1663860958500525300,1.367525390625,1.840813159942627,-1.6436538696289062,-1.9621825218200684
1663860958510382600,1.377382568359375,-0.9704041481018066,-2.4740610122680664,-0.34694910049438477
1663860958520300800,1.38730078125,-2.093564987182617,-4.081877708435059,-0.8088712692260742
1663860958530188500,1.3971884765625,-4.317072868347168,-5.058859825134277,-3.5264639854431152
1663860958540076000,1.407075927734375,-5.441608905792236,-5.933266639709473,-7.760323524475098
1663860958549963800,1.4169638671875,-6.936891078948975,-7.2786712646484375,-10.933109283447266
1663860958559821000,1.426821044921875,-8.899662971496582,-9.315244674682617,-10.193806648254395
1663860958569739300,1.4367392578125,-8.12351131439209,-10.769472122192383,-7.231655120849609
1663860958579596300,1.44659619140625,-5.749190330505371,-12.171493530273438,-5.850893497467041
1663860958589484000,1.456484130859375,-5.552641868591309,-12.814935684204102,-6.154047012329102
1663860958599341300,1.46634130859375,-6.165609359741211,-13.460235595703125,-8.075409889221191
1663860958609259500,1.476259521484375,-6.522324085235596,-14.324722290039062,-10.498697280883789
1663860958619147300,1.486147216796875,-7.0735626220703125,-15.16062068939209,-12.038158416748047
1663860958629034800,1.49603466796875,-6.9515790939331055,-16.640438079833984,-11.937447547912598
1663860958638922500,1.505922607421875,-5.17587423324585,-17.85623550415039,-9.345906257629395
1663860958648810200,1.515810302734375,-4.040312767028809,-17.788009643554688,-4.095285892486572
1663860958658698000,1.525697998046875,-3.246558666229248,-16.548315048217773,1.6945157051086426
1663860958668585700,1.535585693359375,-3.1053879261016846,-15.058003425598145,5.441585540771484
1663860958678473200,1.54547314453125,-2.1782331466674805,-14.18333625793457,6.955813407897949
1663860958688330500,1.55533056640625,-1.8227643966674805,-13.696969032287598,6.5304484367370605
1663860958698187800,1.565187744140625,-1.82955002784729,-13.029850959777832,5.2969231605529785
1663860958708075500,1.575075439453125,-1.7044048309326172,-12.712435722351074,5.0307207107543945
1663860958717963000,1.584962890625,-1.917464017868042,-12.221511840820312,6.868141174316406
1663860958727820300,1.5948203125,-1.5340574979782104,-11.572340965270996,9.946755409240723
1663860958737708000,1.6047080078125,0.477176308631897,-10.499540328979492,14.135143280029297
1663860958747626200,1.614626220703125,1.5154271125793457,-9.52466106414795,16.938154220581055
1663860958757514000,1.624513916015625,1.5457295179367065,-8.503105163574219,17.513973236083984
1663860958767401500,1.6344013671875,1.9463579654693604,-7.579880714416504,17.065248489379883
1663860958777289200,1.644289306640625,1.4298927783966064,-6.80501127243042,16.942543029785156
1663860958787177000,1.654177001953125,0.48707783222198486,-5.547562122344971,17.306034088134766
1663860958797064700,1.664064697265625,-0.41821765899658203,-4.0741286277771,18.74517059326172
1663860958806952400,1.673952392578125,-2.2359914779663086,-1.9418292045593262,21.494464874267578
1663860958816840000,1.68383984375,-6.2421793937683105,1.1219968795776367,24.934965133666992
1663860958826727700,1.693727783203125,-10.407517433166504,4.367859840393066,27.781661987304688
1663860958836615400,1.703615478515625,-10.194169998168945,5.783624172210693,26.246856689453125
1663860958846503200,1.713503173828125,-7.713512420654297,6.169484615325928,23.323116302490234
1663860958856360200,1.723360107421875,-8.850523948669434,6.96979284286499,21.90871238708496
1663860958866248000,1.733248046875,-8.711326599121094,7.699766635894775,18.878013610839844
1663860958876105200,1.743105224609375,-9.424151420593262,7.600492477416992,14.846107482910156
1663860958885993000,1.752992919921875,-11.173015594482422,7.886326313018799,11.17715835571289
1663860958895850000,1.76285009765625,-11.812573432922363,8.47758960723877,8.980602264404297
1663860958905768200,1.772768310546875,-13.993778228759766,8.662497520446777,6.335018634796143
1663860958915625500,1.78262548828125,-13.851194381713867,8.00523853302002,2.846512794494629
1663860958925513200,1.79251318359375,-11.578600883483887,7.150529861450195,0.8143830299377441
1663860958935370200,1.802370361328125,-8.3696928024292,6.626735687255859,0.21609163284301758
1663860958945288400,1.812288330078125,-5.455387115478516,5.9227471351623535,-1.2107138633728027
1663860958955176200,1.82217626953125,-3.38147234916687,4.746844291687012,-4.266128063201904
1663860958965064000,1.83206396484375,-2.003955841064453,1.8222265243530273,-10.157400131225586
1663860958974951700,1.84195166015625,-1.5696115493774414,1.628312110900879,-10.12578010559082
1663860958984839400,1.85183935546875,-1.5323467254638672,-1.9092621803283691,-10.977248191833496
1663860958994727000,1.861726806640625,-1.9866399765014648,-2.4379096031188965,-10.367449760437012
1663860959004614700,1.87161474609375,-7.4606614112854,4.849033355712891,-0.9773740768432617
1663860959014502400,1.88150244140625,-3.5994386672973633,3.1128058433532715,0.8113155364990234
1663860959024390100,1.89139013671875,1.1150599718093872,0.4483184814453125,-3.8775339126586914
1663860959034247200,1.9012470703125,4.173570156097412,2.155668258666992,-2.879127025604248
1663860959044135000,1.911135009765625,8.247794151306152,0.0750279426574707,-0.45348596572875977
1663860959054022700,1.921022705078125,14.37281608581543,-0.190521240234375,-1.9830846786499023
1663860959063910400,1.930910400390625,11.698864936828613,-0.14707565307617188,-0.42707395553588867
1663860959073798100,1.940798095703125,3.2361884117126465,0.7347664833068848,0.8593606948852539
1663860959083685600,1.950685546875,0.003101930022239685,0.4237380027770996,1.8353829383850098
1663860959093573400,1.960573486328125,2.439997911453247,-1.4538378715515137,0.30672359466552734
1663860959103461000,1.970461181640625,-0.812920868396759,-3.7442808151245117,-2.9554848670959473
1663860959113348900,1.980348876953125,-3.567410469055176,-6.775545597076416,-2.158602714538574
1663860959123236600,1.990236572265625,-2.9774742126464844,-8.557609558105469,-2.8653860092163086
1663860959133093600,2.00009375,-2.015044927597046,-10.243756294250488,-5.685201644897461
1663860959142951000,2.009950927734375,-0.45883437991142273,-10.787176132202148,-5.448600769042969
1663860959152838700,2.019838623046875,0.8852150440216064,-9.69049072265625,-3.004192352294922
1663860959162726400,2.029726318359375,-0.7071526050567627,-8.551691055297852,-1.0559868812561035
1663860959172614000,2.03961376953125,-1.0256413221359253,-6.578543186187744,0.824732780456543
1663860959182471200,2.04947119140625,-1.3262226581573486,-3.7597270011901855,1.2567005157470703
1663860959192389400,2.059389404296875,-2.144686698913574,-2.9521942138671875,-0.15685081481933594
1663860959202277000,2.069277099609375,-2.8558151721954346,-1.6957464218139648,-2.892782211303711
1663860959212164900,2.079164794921875,-3.8841750621795654,-1.681267261505127,-6.090816020965576
1663860959222052400,2.08905224609375,-3.548537492752075,-1.2788982391357422,-8.572887420654297
1663860959231940000,2.098940185546875,-2.8033335208892822,-0.9630775451660156,-6.292736053466797
1663860959241797400,2.10879736328125,0.38052845001220703,-0.8511533737182617,0.051456451416015625
1663860959251685000,2.11868505859375,10.87041187286377,1.49619722366333,11.075865745544434
1663860959261572600,2.128572509765625,13.156414031982422,3.37441349029541,10.441606521606445
1663860959271460400,2.13846044921875,5.008413314819336,2.453566074371338,2.77034330368042
1663860959281317600,2.148317626953125,-4.777155876159668,0.493807315826416,0.30353641510009766
1663860959291205400,2.158205322265625,-10.48382568359375,-2.6392812728881836,2.733368396759033
1663860959301092900,2.1680927734375,-3.805131673812866,-3.769472122192383,4.0798020362854
1663860959310980600,2.177980712890625,0.564752995967865,-2.0505027770996094,4.297759532928467
1663860959320868400,2.187868408203125,-1.5613491535186768,-2.7318859100341797,4.986387252807617
1663860959330756000,2.197756103515625,-2.0571799278259277,-3.394197940826416,5.401264667510986
1663860959340643800,2.207643798828125,-0.6433517932891846,-2.456453323364258,5.446855545043945
1663860959350531300,2.21753125,1.2160837650299072,-2.002432346343994,4.812887191772461
1663860959360388600,2.227388671875,4.550702095031738,-1.6964073181152344,3.792668342590332
1663860959370276400,2.2372763671875,10.43558120727539,-0.18185901641845703,3.5575318336486816
1663860959380164000,2.2471640625,11.521773338317871,2.3314380645751953,1.3602185249328613
1663860959390021000,2.257021240234375,10.938592910766602,3.613666534423828,-4.141205787658691
1663860959399939300,2.266939208984375,-14.781189918518066,2.6879372596740723,-11.591499328613281
1663860959409796600,2.276796630859375,-25.018190383911133,-1.3440899848937988,-12.719182968139648
1663860959419684400,2.286684326171875,-4.629583835601807,-2.8275012969970703,-5.495394229888916
1663860959429572000,2.296572021484375,9.516680717468262,-1.2397336959838867,1.0688738822937012
1663860959439459600,2.30645947265625,-0.23199421167373657,-1.4442710876464844,2.2960777282714844
1663860959449316900,2.31631689453125,-5.7810378074646,-3.7343997955322266,-3.2021021842956543
1663860959459204600,2.32620458984375,3.651122808456421,-1.0877799987792969,1.4756927490234375
1663860959469092400,2.33609228515625,7.08299446105957,1.4827165603637695,2.80802059173584
1663860959478979800,2.345979736328125,-5.8611297607421875,-0.11301040649414062,-3.9744410514831543
1663860959488837000,2.355837158203125,-0.7926148176193237,-0.7334270477294922,-0.7986507415771484
1663860959498755300,2.36575537109375,0.5479083061218262,0.754150390625,1.6377439498901367
1663860959508643000,2.37564306640625,0.19267940521240234,-0.6283044815063477,-1.0034160614013672
1663860959518530800,2.38553076171875,0.6529750823974609,-0.7080535888671875,-1.6050753593444824
1663860959528418300,2.395418212890625,-0.14954352378845215,-0.43181896209716797,-1.0752830505371094
1663860959538306000,2.40530615234375,-0.9505596160888672,1.6895837783813477,-0.28268003463745117
1663860959548193800,2.41519384765625,-2.26251220703125,6.389589309692383,-2.644583225250244
1663860959558081500,2.42508154296875,0.1709437370300293,5.8363142013549805,-5.967705249786377
1663860959567969300,2.43496923828125,1.1186628341674805,3.777585983276367,-4.567009925842285
1663860959577826300,2.444826416015625,-2.2512617111206055,2.529574394226074,-0.8203067779541016
1663860959587683600,2.45468359375,-2.0704433917999268,1.4982843399047852,-0.0043582916259765625
1663860959597571300,2.4645712890625,0.018285751342773438,-0.3000354766845703,-0.9343156814575195
1663860959607458800,2.474458740234375,0.10987061262130737,-1.692408561706543,-0.5923452377319336
1663860959617346600,2.4843466796875,-0.978865921497345,-1.6089906692504883,1.9469127655029297
1663860959627203800,2.494203857421875,-0.6194714307785034,-0.043206214904785156,2.264986515045166
1663860959637091600,2.504091552734375,-0.506445050239563,-0.49262523651123047,0.9606523513793945
1663860959646979300,2.513979248046875,-1.367797613143921,-0.7707290649414062,0.12655925750732422
1663860959656897500,2.5238974609375,-0.3134151101112366,-0.3249025344848633,-0.48183488845825195
1663860959666754600,2.533754638671875,0.9532366991043091,1.6457414627075195,-1.2731952667236328
1663860959676642300,2.543642333984375,0.938242495059967,1.9030570983886719,-1.3450536727905273
1663860959686530000,2.553530029296875,0.6311874389648438,1.4924917221069336,-0.6916446685791016
1663860959696417800,2.563417724609375,0.7997881174087524,1.1508731842041016,1.3374996185302734
1663860959706305300,2.57330517578125,0.1629703938961029,-0.01565265655517578,2.7708520889282227
1663860959716162600,2.58316259765625,0.24932122230529785,-0.3653888702392578,3.6356704235076904
1663860959726080800,2.593080810546875,-1.7367571592330933,-0.10927104949951172,1.286513328552246
1663860959735938000,2.60293798828125,-0.20205116271972656,-5.448685646057129,0.7733006477355957
1663860959745825500,2.612825439453125,1.3632190227508545,-6.159719467163086,0.1838827133178711
1663860959755713300,2.62271337890625,-1.3816769123077393,-7.3555097579956055,0.12446737289428711
1663860959765601000,2.63260107421875,-0.011378921568393707,-5.734192848205566,-0.6567349433898926
1663860959775488800,2.64248876953125,0.4228847622871399,-3.8032188415527344,-1.5676367282867432
1663860959785376500,2.65237646484375,-0.5873000621795654,-1.8685503005981445,-2.5325982570648193
1663860959795233500,2.662233642578125,-1.0949532985687256,-0.6761808395385742,-2.9438514709472656
1663860959805151700,2.67215185546875,-2.3900694847106934,-0.1514596939086914,-2.6788852214813232
1663860959815009000,2.682009033203125,-0.7163140773773193,-0.07456588745117188,-2.253488063812256
1663860959824896800,2.691896728515625,0.02489115670323372,0.3255796432495117,-1.7739784717559814
1663860959834784300,2.7017841796875,-2.1938793659210205,3.058382987976074,-2.74796199798584
1663860959844672000,2.711672119140625,-0.6608116626739502,7.744834899902344,-4.80081033706665
1663860959854559700,2.721559814453125,1.4605662822723389,8.379194259643555,-5.422316551208496
1663860959864447500,2.731447509765625,1.8096561431884766,5.672595024108887,-4.343270301818848
1663860959874335200,2.741335205078125,-0.027907371520996094,2.262899398803711,-3.8251914978027344
1663860959884192300,2.751192138671875,0.10969652235507965,0.4665946960449219,-4.818944931030273
1663860959894080000,2.761080078125,-0.5453393459320068,-0.6398468017578125,-5.424934387207031
1663860959903967700,2.7709677734375,-0.5474952459335327,-9.663885116577148,1.0169365406036377
1663860959913855500,2.78085546875,-0.12423411011695862,-23.679426193237305,8.712427139282227
1663860959923743200,2.7907431640625,-1.3877861499786377,-17.082841873168945,11.499560356140137
1663860959933600300,2.800600341796875,-3.249687910079956,-2.380767822265625,11.891190528869629
1663860959943518500,2.8105185546875,-1.9276154041290283,4.373339653015137,6.09043025970459
1663860959953406200,2.82040625,5.518701553344727,2.4050235748291016,1.4098033905029297
1663860959963294000,2.8302939453125,3.4921138286590576,-2.9534988403320312,-1.6073076725006104
1663860959973181700,2.840181640625,-1.4069151878356934,-5.013200759887695,-3.377990245819092
1663860959983069200,2.850069091796875,-0.015445917844772339,-4.426311492919922,-2.36487078666687
1663860959992957000,2.85995703125,-0.28369593620300293,-2.7288551330566406,-0.3646552562713623
1663860960002844700,2.8698447265625,-0.8492645025253296,-2.2637529373168945,-0.7672978639602661
1663860960012732400,2.879732421875,-1.1170456409454346,-2.1265573501586914,-3.012871265411377
1663860960022589400,2.88958935546875,-1.1180188655853271,-1.9047603607177734,-5.234246730804443
1663860960032477200,2.899477294921875,-1.48554265499115,-2.217111587524414,-4.575234889984131
1663860960042365000,2.909364990234375,-1.9011225700378418,-2.594118118286133,-2.2405638694763184
1663860960052252700,2.919252685546875,-2.469208240509033,-3.3349037170410156,-0.3313373327255249
1663860960062140400,2.929140380859375,-3.237208127975464,-3.7133703231811523,0.1870720386505127
1663860960072028200,2.939028076171875,-4.669792175292969,-2.7189321517944336,0.7522616982460022
1663860960081915600,2.94891552734375,-4.383021354675293,-0.49173736572265625,1.0789947509765625
1663860960091773000,2.95877294921875,0.5056577920913696,2.108551025390625,0.8017385601997375
1663860960101660700,2.96866064453125,7.225627899169922,5.338950157165527,0.6271855235099792
1663860960111548400,2.97854833984375,8.183792114257812,6.043094635009766,1.8204879760742188
1663860960121436000,2.988435791015625,1.835378646850586,2.942718505859375,2.3202719688415527
1663860960131323600,2.99832373046875,-1.5084980726242065,-0.8493204116821289,0.08285874128341675
1663860960141211400,3.00821142578125,-0.6685659885406494,-1.2139720916748047,-0.38970237970352173
1663860960151099100,3.01809912109375,0.9752309918403625,-1.2410774230957031,-0.19134294986724854
1663860960160956200,3.0279560546875,1.3567100763320923,-1.024704933166504,-0.04869341850280762
1663860960170844000,3.037843994140625,0.9629641771316528,-1.3864059448242188,-0.398804247379303
1663860960180701200,3.047701171875,0.17283162474632263,-1.443831443786621,-0.5141356587409973
1663860960190589000,3.0575888671875,-0.4430360496044159,-1.0308609008789062,-1.03976571559906
1663860960200476400,3.067476318359375,-0.6254916191101074,-0.6549406051635742,-1.8383913040161133
1663860960210364200,3.0773642578125,-0.7685965895652771,-0.6622228622436523,-2.382875442504883
1663860960220252000,3.087251953125,-0.8296948671340942,-0.3357858657836914,-2.3112804889678955
1663860960230139600,3.0971396484375,-0.6088234186172485,-0.005984306335449219,-1.841784119606018
1663860960240027400,3.10702734375,-0.4607788622379303,1.095590591430664,-0.8698427677154541
1663860960249915000,3.116914794921875,-0.029974162578582764,5.986260414123535,0.737774670124054
1663860960259802600,3.126802734375,-1.3764950037002563,4.296354293823242,2.901431083679199
1663860960269690400,3.1366904296875,-3.1244406700134277,-4.651703834533691,4.711350917816162
1663860960279547600,3.146547607421875,-3.193345308303833,-10.179925918579102,2.440941572189331
1663860960289435100,3.15643505859375,-3.406187057495117,-7.766186714172363,2.7420880794525146
1663860960299323000,3.166322998046875,-1.6736215353012085,-3.709665298461914,2.2707462310791016
1663860960309210600,3.176210693359375,0.03155545890331268,-1.4467744827270508,1.154494285583496
1663860960319098400,3.186098388671875,0.8928645253181458,-0.32611656188964844,0.8499026298522949
1663860960328986000,3.195986083984375,2.371028423309326,-0.6030912399291992,0.9249413013458252
1663860960338873900,3.205873779296875,2.9009714126586914,-2.517780303955078,1.4433162212371826
1663860960348761300,3.21576123046875,-2.4014177322387695,-2.949997901916504,4.133516311645508
1663860960358649000,3.225649169921875,-2.489076614379883,-1.679941177368164,4.658421993255615
1663860960368506400,3.23550634765625,1.735105037689209,0.4647064208984375,2.957648277282715
1663860960378394000,3.24539404296875,3.558964252471924,2.940089225769043,0.925452470779419
1663860960388281600,3.255281494140625,5.194328308105469,4.753503799438477,-1.2270326614379883
1663860960398169300,3.26516943359375,5.421536445617676,6.46982479095459,-2.9692037105560303
1663860960408057000,3.27505712890625,5.25363826751709,3.3646841049194336,-6.016291618347168
1663860960417944800,3.28494482421875,-4.069983005523682,-3.9360742568969727,-12.056852340698242
1663860960427832600,3.29483251953125,-6.323880195617676,-5.526078224182129,-6.404268264770508
1663860960437689600,3.304689697265625,-0.5121052265167236,-4.5277509689331055,3.3669092655181885
1663860960447547000,3.314546875,4.175901412963867,-3.3754730224609375,6.013036727905273
1663860960457434600,3.3244345703125,2.8270626068115234,-1.2858314514160156,4.226553916931152
1663860960467322000,3.334322021484375,0.6911264657974243,1.3703012466430664,3.079901933670044
1663860960477179400,3.344179443359375,1.1477047204971313,2.2614898681640625,0.3442234992980957
1663860960487067100,3.354067138671875,-0.0049942731857299805,1.0606975555419922,-4.260693550109863
1663860960496955000,3.363954833984375,-1.8910590410232544,-0.06986522674560547,-6.613185882568359
1663860960506842400,3.37384228515625,-2.230865001678467,-0.7564678192138672,-6.474217891693115
1663860960516730000,3.383730224609375,-2.222923517227173,-0.9621801376342773,-4.725203514099121
1663860960526617900,3.393617919921875,-1.8763551712036133,-0.4511709213256836,-2.337493896484375
1663860960536505600,3.403505615234375,-1.0925347805023193,0.11626911163330078,-0.8678045272827148
1663860960546362600,3.413362548828125,-0.4560632109642029,0.3850259780883789,-0.12233257293701172
1663860960556250400,3.42325048828125,-0.01266545057296753,0.28603076934814453,0.26169824600219727
1663860960566138000,3.43313818359375,0.04339742660522461,0.2047901153564453,0.42984867095947266
1663860960576025900,3.44302587890625,0.3391391932964325,-0.12807941436767578,0.2034616470336914
1663860960585913600,3.45291357421875,0.3340437412261963,-1.0024099349975586,0.25119566917419434
1663860960595770600,3.4627705078125,0.17312517762184143,-1.0656700134277344,0.5388791561126709
1663860960605658400,3.472658447265625,0.8396313190460205,-0.20905208587646484,0.5803132057189941
1663860960615546000,3.482546142578125,1.447138786315918,0.2721977233886719,0.02956223487854004
1663860960625433900,3.492433837890625,1.005746841430664,0.4040098190307617,-0.26336240768432617
1663860960635321600,3.502321533203125,0.06147366762161255,0.3867912292480469,0.27780842781066895
1663860960645209000,3.512208984375,0.09200140833854675,0.3778839111328125,0.2989821434020996
1663860960655096800,3.522096923828125,0.1025112122297287,0.36899471282958984,0.31844043731689453
1663860960664984600,3.531984619140625,0.10157260298728943,0.35854244232177734,0.3409116268157959
1663860960674872300,3.541872314453125,0.10697083175182343,0.34826183319091797,0.3632078170776367
1663860960684729300,3.551729248046875,0.09527218341827393,0.3404684066772461,0.37810492515563965
1663860960704504800,3.5715048828125,-0.7091229557991028,-1.8439273834228516,0.38094496726989746
1663860960714392600,3.581392578125,-0.5277369022369385,-1.989593505859375,0.004183530807495117
1663860960724249600,3.59124951171875,-1.2052814960479736,-2.372910499572754,-0.5494353771209717
1663860960734137300,3.601137451171875,-1.241969347000122,-2.592740058898926,-0.1449589729309082
1663860960744025000,3.611025146484375,-0.7598789930343628,-2.3816003799438477,0.45597028732299805
1663860960763800600,3.630800537109375,1.535758137702942,-3.0825767517089844,-0.3525810241699219
1663860960773688000,3.64068798828125,1.865436315536499,-2.493478775024414,-0.4025599956512451
1663860960783575800,3.650575927734375,2.2112715244293213,-2.324005126953125,-1.2888679504394531
1663860960793463600,3.660463623046875,2.580190420150757,-2.63230037689209,-2.5399959087371826
1663860960803351300,3.670351318359375,3.062399387359619,-2.6611881256103516,-2.9908828735351562
1663860960813239000,3.680239013671875,3.848855972290039,-2.161235809326172,-2.9182796478271484
1663860960823096000,3.690095947265625,4.487543106079102,-1.9160642623901367,-3.04164981842041
1663860960832983800,3.69998388671875,4.5567755699157715,-1.6532306671142578,-2.6515884399414062
1663860960842871600,3.70987158203125,4.417726993560791,-1.2958135604858398,-2.165139675140381
1663860960852759300,3.71975927734375,4.039363384246826,-0.7909708023071289,-2.0300445556640625
1663860960862616300,3.7296162109375,3.3839099407196045,-0.37558841705322266,-2.173419952392578
1663860960872473600,3.7394736328125,2.7271456718444824,-0.4788990020751953,-2.933725357055664
1663860960882391800,3.749391845703125,1.8422635793685913,-0.7476615905761719,-3.246234893798828
1663860960892249000,3.7592490234375,-0.09290918707847595,-0.7195596694946289,-2.700252056121826
1663860960902167300,3.769167236328125,-2.617929697036743,-0.8291759490966797,-1.8548083305358887
1663860960912054800,3.7790546875,-4.633693695068359,-1.8903474807739258,-1.5039358139038086
1663860960921942500,3.788942626953125,-6.011085033416748,-3.305455207824707,-1.12235689163208
1663860960931830300,3.798830322265625,-7.0108137130737305,-4.236483573913574,-1.0319538116455078
1663860960941718000,3.808718017578125,-8.24722671508789,-4.713443756103516,-1.3924570083618164
1663860960951605800,3.818605712890625,-9.316311836242676,-4.685701370239258,-1.8756623268127441
1663860960961462800,3.828462890625,-9.354713439941406,-4.710145950317383,-1.8146963119506836
1663860960971350500,3.8383505859375,-9.371395111083984,-4.741935729980469,-1.7407379150390625
1663860960981238300,3.84823828125,-9.362249374389648,-4.778810501098633,-1.657339096069336
1663860960991095300,3.85809521484375,-9.328986167907715,-4.819786071777344,-1.566755771636963
1663860961000983000,3.867983154296875,-9.2857666015625,-4.866159439086914,-1.469027042388916
1663860961010870800,3.877870849609375,5.0166015625,3.6663923263549805,-5.26999568939209
1663860961020758500,3.887758544921875,2.435405731201172,2.4110326766967773,-5.840795516967773
1663860961030646300,3.897646240234375,0.04698425531387329,1.088343620300293,-6.180782794952393
1663860961040534000,3.907533935546875,-0.7158352732658386,0.31949853897094727,-4.52468729019165
1663860961050421500,3.91742138671875,0.5508850812911987,-0.16315269470214844,-1.5875802040100098
1663860961060309200,3.927309326171875,1.5904773473739624,-0.7109308242797852,0.2023944854736328
1663860961070197000,3.937197021484375,1.120626449584961,-1.114121913909912,1.1081275939941406
1663860961080084700,3.947084716796875,0.05206108093261719,-1.4782657623291016,1.8444828987121582
1663860961089941800,3.956941650390625,-0.48018407821655273,-1.5933423042297363,1.8995165824890137
1663860961099860000,3.96685986328125,-0.187941312789917,-1.4207186698913574,1.6582603454589844
1663860961109747700,3.976747802734375,-0.38778412342071533,-1.270155429840088,0.7681550979614258
1663860961119635500,3.986635498046875,-1.4528852701187134,-1.2311534881591797,-0.9048972129821777
1663860961129523200,3.996523193359375,-2.1028859615325928,-1.266200065612793,-2.757078170776367
1663860961139380200,4.006380126953125,-2.0058045387268066,-1.350407600402832,-4.198164939880371
1663860961149237500,4.016237548828125,-2.538750171661377,-1.5562248229980469,-5.124743938446045
1663860961159125200,4.026125244140625,-2.893214464187622,-2.034022808074951,-5.720341205596924
1663860961169043500,4.03604345703125,-2.498962879180908,-2.6856770515441895,-6.161075115203857
1663860961178931200,4.04593115234375,-2.4651081562042236,-2.8322176933288574,-5.4918928146362305
1663860961188818700,4.055818603515625,-2.018059730529785,-2.898005962371826,-3.8938493728637695
1663860961198706400,4.06570654296875,-1.7677669525146484,-3.335336208343506,-2.0210928916931152
1663860961208594200,4.07559423828125,-2.2481350898742676,-3.5151801109313965,-0.27385425567626953
1663860961218482000,4.08548193359375,-2.0448577404022217,-3.4462881088256836,0.7296323776245117
1663860961228369700,4.09536962890625,-1.7882156372070312,-3.183094024658203,0.9756298065185547
1663860961238257200,4.105257080078125,-1.9708518981933594,-3.1498918533325195,1.7189531326293945
1663860961248145000,4.115144775390625,-1.491502285003662,-3.2108330726623535,2.1452817916870117
1663860961258032600,4.12503271484375,-1.2777771949768066,-3.144897937774658,2.46829891204834
1663860961277759000,4.144759033203125,-1.659510850906372,-3.0853614807128906,2.393474578857422
1663860961287646500,4.154646484375,-1.8710920810699463,-2.772609233856201,2.1944198608398438
1663860961297534200,4.1645341796875,-2.4369380474090576,-2.7548863887786865,1.4002504348754883
1663860961307422000,4.174421875,-2.0832479000091553,-2.991624116897583,1.0845279693603516
1663860961317279200,4.184279296875,-2.29610538482666,-3.201685905456543,1.0904226303100586
1663860961327166700,4.194166748046875,-2.5906755924224854,-3.2784929275512695,1.2903709411621094
1663860961337024000,4.20402392578125,-2.042276620864868,-3.2874228954315186,1.7073745727539062
1663860961346942200,4.213942138671875,-2.1206939220428467,-2.950052499771118,2.0994787216186523
1663860961356830000,4.223829833984375,-2.6500720977783203,-2.348773956298828,2.755901336669922
1663860961366717700,4.2337177734375,-3.033827781677246,-1.8974101543426514,3.0033397674560547
1663860961376605200,4.243605224609375,-3.3751614093780518,-1.4564144611358643,3.862227439880371
1663860961386432000,4.253431884765625,-3.014176607131958,-1.0696475505828857,4.638784408569336
1663860961396319700,4.26331982421875,-2.8946475982666016,-0.5481536388397217,4.1869611740112305
1663860961406207200,4.273207275390625,-3.1786949634552,0.3314487934112549,3.4801549911499023
1663860961416095000,4.283094970703125,-3.43165922164917,0.5619337558746338,3.252011299133301
1663860961425982700,4.292982666015625,-3.6612472534179688,-0.2014634609222412,2.92606258392334
1663860961435870500,4.302870361328125,-2.8854494094848633,-0.7342023849487305,2.71285343170166
1663860961445727700,4.312727783203125,-2.2611165046691895,-0.6470084190368652,2.457158088684082
1663860961455615200,4.322615234375,-2.505563735961914,-0.8621070384979248,1.7959070205688477
1663860961465503000,4.3325029296875,-2.4674034118652344,-0.916511058807373,1.8052606582641602
1663860961475390700,4.342390625,-2.4303481578826904,-0.9663102626800537,1.8132333755493164
1663860961485309000,4.352308837890625,-2.3797216415405273,-1.005488634109497,1.8201141357421875
1663860961495196700,4.36219677734375,-2.314070701599121,-1.025976538658142,1.8245315551757812
1663860961505053700,4.3720537109375,-2.239671230316162,-1.0263564586639404,1.8256235122680664
1663860961514941400,4.38194140625,-2.165048122406006,-1.0072442293167114,1.8227758407592773
1663860961534717000,4.401717041015625,-4.704977035522461,-0.6168017387390137,3.6290416717529297
1663860961544604700,4.411604736328125,-4.668115139007568,-0.8870165348052979,3.703333854675293
1663860961554492200,4.4214921875,-3.7819643020629883,-0.8235092163085938,3.77239990234375
1663860961564349400,4.431349365234375,-2.612485885620117,-0.489316463470459,3.824146270751953
1663860961574237200,4.4412373046875,-1.591193675994873,-0.31569886207580566,3.6715574264526367
1663860961584125000,4.451125,-0.7133365273475647,-0.37012457847595215,3.4560728073120117
1663860961594012400,4.461012451171875,-0.9146943688392639,-0.4274303913116455,3.5310258865356445
1663860961603900200,4.470900146484375,-2.453226089477539,-0.5385992527008057,3.427117347717285
1663860961613757400,4.48075732421875,-3.461954116821289,-0.8269214630126953,3.173482894897461
1663860961623645200,4.490645263671875,-3.060129165649414,-1.129354476928711,2.758556365966797
1663860961633532700,4.50053271484375,-1.4866440296173096,-1.623157262802124,2.010976791381836
1663860961643420400,4.51042041015625,0.16611722111701965,-2.30287766456604,1.193772315979004
1663860961653338600,4.520338623046875,0.19009888172149658,-2.897538423538208,0.3860158920288086
1663860961663196000,4.53019580078125,-0.5584527254104614,-3.527017831802368,-0.5955514907836914
1663860961673083600,4.540083740234375,-1.8316380977630615,-3.972403049468994,-1.0891876220703125
1663860961682971400,4.549971435546875,-3.0144455432891846,-4.309019565582275,-0.9879884719848633
1663860961692828400,4.559828369140625,-2.444404363632202,-4.875405788421631,-0.943425178527832
1663860961702716200,4.569716064453125,-0.6285216808319092,-5.412981033325195,-1.0182628631591797
1663860961712634400,4.57963427734375,0.2841142416000366,-5.698289394378662,-1.253244400024414
1663860961722522000,4.589522216796875,0.28883183002471924,-5.70228910446167,-1.907576560974121
1663860961732409900,4.599409912109375,0.3673825263977051,-5.36965274810791,-2.7201528549194336
1663860961742297300,4.60929736328125,0.9555323123931885,-4.936912536621094,-3.643463134765625
1663860961752185000,4.61918505859375,1.1990731954574585,-4.495209217071533,-4.493962287902832
1663860961762072800,4.62907275390625,0.688657283782959,-4.098396301269531,-5.104314804077148
1663860961771960600,4.638960693359375,0.711378812789917,-4.043972492218018,-5.1002702713012695
1663860961781848300,4.648848388671875,0.8895373344421387,-4.05834436416626,-4.295984268188477
1663860961791705300,4.658705322265625,2.3133888244628906,-3.9290771484375,-3.3432655334472656
1663860961801562600,4.668562744140625,2.704911947250366,-3.8957247734069824,-2.998720169067383
1663860961811450400,4.678450439453125,2.7909560203552246,-3.6482558250427246,-3.15488338470459
1663860961821337900,4.688337890625,3.655071258544922,-2.906035900115967,-3.302814483642578
1663860961831195100,4.698195068359375,3.4367921352386475,-1.9612622261047363,-3.278874397277832
1663860961841113300,4.70811328125,4.733572959899902,-0.37499046325683594,-2.349043846130371
1663860961851001000,4.7180009765625,7.131317138671875,1.285080909729004,-1.281646728515625
1663860961860888800,4.727888916015625,7.888097763061523,2.17246150970459,0.10746288299560547
1663860961870745900,4.737745849609375,5.076521396636963,1.520911693572998,0.7761745452880859
1663860961880633600,4.747633544921875,2.1413486003875732,0.3431835174560547,0.13135910034179688
1663860961890521300,4.757521240234375,0.4323720932006836,-0.2400679588317871,-0.9388437271118164
1663860961900378600,4.767378662109375,-0.16877222061157227,0.016540050506591797,-0.6654462814331055
1663860961910296800,4.777296875,0.15055513381958008,0.9358625411987305,0.8561620712280273
1663860961920184300,4.787184326171875,0.6381888389587402,2.166116237640381,2.5146665573120117
1663860961930041600,4.79704150390625,1.096818447113037,3.2375683784484863,3.6078290939331055
1663860961939959800,4.806959716796875,1.347179651260376,3.765103340148926,3.4532032012939453
1663860961949847600,4.81684765625,0.7590384483337402,3.5378870964050293,2.0897836685180664
1663860961959735300,4.8267353515625,0.45609450340270996,2.9698596000671387,0.8849964141845703
1663860961969622800,4.836622802734375,1.646193504333496,2.8630566596984863,0.9338407516479492
1663860961979510500,4.846510498046875,3.4895665645599365,2.7646870613098145,2.007510185241699
1663860961989398300,4.856398193359375,3.9511492252349854,2.1838669776916504,2.7389678955078125
1663860961999286000,4.8662861328125,2.2251503467559814,1.2069382667541504,2.2400808334350586
1663860962009143000,4.87614306640625,-0.2560877799987793,0.21376419067382812,1.6014108657836914
1663860962019030800,4.88603076171875,-2.380080223083496,-0.37461137771606445,1.3332452774047852
1663860962028918500,4.89591845703125,-3.6070683002471924,-0.6608710289001465,1.0584149360656738
1663860962038806300,4.90580615234375,-3.3154001235961914,-0.952888011932373,0.6526718139648438
1663860962048663300,4.915663330078125,-2.8790180683135986,-0.8252682685852051,0.3827500343322754
1663860962058551000,4.925551025390625,-2.713010311126709,-0.538571834564209,0.21217727661132812
1663860962068408300,4.935408203125,-2.5067334175109863,-0.6897673606872559,0.1739811897277832
1663860962078326500,4.945326416015625,-1.3422365188598633,-1.517470359802246,-0.6116237640380859
1663860962088183600,4.95518359375,0.25447726249694824,-1.8106250762939453,-2.0106449127197266
1663860962098040800,4.965040771484375,2.599921464920044,-1.115828514099121,-3.372903823852539
1663860962107959000,4.974958984375,4.5361714363098145,-0.2465066909790039,-3.8450779914855957
1663860962117846800,4.9848466796875,3.349025249481201,0.17535972595214844,-3.659641742706299
1663860962127734500,4.994734619140625,-0.5972881317138672,-1.5477056503295898,-4.634108066558838
1663860962137622300,5.004622314453125,-3.335392475128174,-3.9035048484802246,-4.754514694213867
1663860962147509800,5.014509765625,-5.244418621063232,-4.898517608642578,-3.784994602203369
1663860962157397500,5.0243974609375,-6.194581508636475,-4.737218856811523,-2.4509634971618652
1663860962167285200,5.03428515625,-4.360625267028809,-4.032264232635498,-0.5018668174743652
1663860962177173000,5.044173095703125,-2.2977352142333984,-2.8086633682250977,0.9293656349182129
1663860962187060700,5.054060791015625,-1.6347012519836426,-1.1606416702270508,1.2787189483642578
1663860962196948200,5.0639482421875,-0.6641459465026855,0.14141368865966797,1.3404884338378906
1663860962206836000,5.0738359375,0.260875940322876,1.2436127662658691,1.362187385559082
1663860962216723700,5.0837236328125,-0.28090786933898926,2.015939235687256,1.1009092330932617
1663860962226611500,5.093611572265625,-0.5384557247161865,2.099465847015381,1.0460810661315918
1663860962246325800,5.11332568359375,-1.0483875274658203,0.9820270538330078,1.0919742584228516
1663860962256213500,5.123213623046875,-1.3086779117584229,0.31212377548217773,1.1945724487304688
1663860962266101200,5.133101318359375,-1.5406317710876465,-0.05134391784667969,0.8812251091003418
1663860962275988700,5.14298876953125,-1.612501859664917,-0.24891424179077148,0.05637550354003906
1663860962285876500,5.15287646484375,-1.2423791885375977,-0.1514883041381836,-0.5425562858581543
1663860962295733800,5.162733642578125,-0.5016303062438965,0.2217116355895996,-0.7046298980712891
1663860962305621500,5.17262158203125,-0.19180583953857422,0.6843576431274414,-0.6555476188659668
1663860962315509000,5.182509033203125,-0.3937208652496338,1.186098575592041,-0.47899675369262695
1663860962325396700,5.192396728515625,-0.664900541305542,1.4748501777648926,-0.4199976921081543
1663860962335284500,5.202284423828125,-0.8033862113952637,1.3934507369995117,-0.44827842712402344
1663860962345172200,5.212172119140625,-1.1532299518585205,1.176687240600586,-0.4553108215332031
1663860962355029500,5.222029541015625,-1.7734155654907227,1.074552059173584,-0.35776567459106445
1663860962364917000,5.2319169921875,-2.2888824939727783,1.0556979179382324,-0.3466215133666992
1663860962374804700,5.2418046875,-2.3301382064819336,0.9628391265869141,-0.4853367805480957
1663860962384692500,5.2516923828125,-1.9615399837493896,0.7504901885986328,-0.7180171012878418
1663860962394580200,5.261580322265625,-1.463965892791748,0.6163158416748047,-1.0711922645568848
1663860962404468000,5.271468017578125,-0.9118785858154297,0.6684699058532715,-1.2170443534851074
1663860962414325000,5.281324951171875,0.09806680679321289,1.0504393577575684,-0.7120676040649414
1663860962424212700,5.291212646484375,1.564021110534668,1.8522648811340332,0.0509796142578125
1663860962434100500,5.3011005859375,1.5752997398376465,1.857645034790039,0.032659053802490234
1663860962443988200,5.31098828125,1.5657048225402832,1.8821907043457031,0.009353160858154297
1663860962453875700,5.320875732421875,1.5453548431396484,1.9237151145935059,-0.023352622985839844
1663860962463763500,5.330763427734375,1.5163488388061523,1.976527214050293,-0.06193208694458008
1663860962473651200,5.340651123046875,1.4818902015686035,2.032191276550293,-0.10073471069335938
1663860962483508500,5.350508544921875,1.4485650062561035,2.085747241973877,-0.13906145095825195
1663860962503283700,5.37028369140625,-2.0536394119262695,1.0158939361572266,-3.2001876831054688
1663860962513171500,5.38017138671875,-2.846632957458496,-0.04473400115966797,-1.6025896072387695
1663860962523028700,5.39002880859375,-2.598182201385498,-1.1826286315917969,-0.19745302200317383
1663860962532916200,5.399916259765625,-2.0170788764953613,-1.9171481132507324,-0.09061145782470703
1663860962542804000,5.409803955078125,-2.1993374824523926,-2.4267754554748535,-1.0440645217895508
1663860962552691700,5.419691650390625,-3.5765326023101807,-2.3986544609069824,-2.306607246398926
1663860962562579500,5.429579345703125,-5.048894882202148,-1.9446992874145508,-2.7202863693237305
1663860962572467200,5.43946728515625,-6.5267438888549805,-1.4717597961425781,-2.513152599334717
1663860962582355000,5.44935498046875,-7.108902931213379,-1.1446566581726074,-2.168888568878174
1663860962592212000,5.4592119140625,-6.639542102813721,-0.6902694702148438,-2.2397351264953613
1663860962602130200,5.469130126953125,-6.294957160949707,-0.3336024284362793,-3.395852565765381
1663860962612018000,5.479017822265625,-6.863269329071045,-0.3524751663208008,-4.0208539962768555
1663860962621905700,5.48890576171875,-3.7371792793273926,1.0188651084899902,-3.575796127319336
1663860962631793400,5.49879345703125,-1.1937999725341797,3.419651985168457,-2.231295108795166
1663860962641650400,5.508650390625,-2.038461685180664,4.483137130737305,-0.06040668487548828
1663860962651538200,5.5185380859375,-3.4033074378967285,3.481255054473877,1.4538774490356445
1663860962661395500,5.5283955078125,-3.131485939025879,2.175724506378174,2.3654112815856934
1663860962671313700,5.538313720703125,-1.0378084182739258,1.621263027191162,3.289229393005371
1663860962681201200,5.548201171875,2.0636987686157227,1.9635915756225586,3.476027488708496
1663860962691089000,5.5580888671875,2.624703884124756,2.5996055603027344,2.4474635124206543
1663860962700976600,5.5679765625,1.156782627105713,2.957353115081787,1.3278160095214844
1663860962710864400,5.577864501953125,-0.21015596389770508,2.5852952003479004,0.5888018608093262
1663860962720752000,5.587752197265625,-0.7341361045837402,1.6920485496520996,0.4166440963745117
1663860962730639600,5.5976396484375,-1.2090754508972168,0.5264091491699219,0.027972698211669922
1663860962740527400,5.60752734375,-1.6434316635131836,-0.6371293067932129,-0.0864419937133789
1663860962750415000,5.6174150390625,-1.644357681274414,-1.7846035957336426,0.10396289825439453
1663860962760302800,5.627302734375,-2.2951459884643555,-3.0230002403259277,0.23611688613891602
1663860962770190600,5.637190673828125,-2.994896411895752,-4.463203430175781,-0.029448986053466797
1663860962780047600,5.647047607421875,-2.1646547317504883,-5.588118076324463,-1.0524392127990723
1663860962789935400,5.656935302734375,-2.106019973754883,-5.932063102722168,-1.956942081451416
1663860962799823000,5.666822998046875,-2.9620165824890137,-5.50539493560791,-1.5686240196228027
1663860962809680400,5.676680419921875,-2.3070578575134277,-4.611182689666748,-1.115091323852539
1663860962819537400,5.686537353515625,-1.4751882553100586,-3.512460231781006,-0.6997065544128418
1663860962829455600,5.69645556640625,-1.1893749237060547,-2.3493871688842773,-0.38252878189086914
1663860962839343400,5.70634326171875,1.0174484252929688,-1.3671598434448242,-0.39374494552612305
1663860962849231000,5.716231201171875,1.7571120262145996,-0.41356468200683594,-0.8117885589599609
1663860962859118800,5.726118896484375,-0.7089643478393555,0.1364574432373047,-0.562401294708252
1663860962868975900,5.735975830078125,0.14005136489868164,-0.06843852996826172,0.3347358703613281
1663860962878863600,5.745863525390625,3.9905917644500732,-0.36689186096191406,0.46686744689941406
1663860962888721000,5.755720947265625,1.8931810855865479,-0.5135622024536133,-0.08683967590332031
1663860962898639000,5.76563916015625,-1.7374184131622314,-0.9836091995239258,-0.7647004127502441
1663860962908526600,5.775526611328125,0.5265038013458252,-1.3743152618408203,-1.0822701454162598
1663860962918414300,5.785414306640625,3.4506821632385254,-1.0405683517456055,-0.9548625946044922
1663860962928302000,5.795302001953125,2.634166955947876,-0.6581745147705078,-0.7732071876525879
1663860962938189800,5.80518994140625,0.7740676403045654,-0.718592643737793,-0.7689414024353027
1663860962948077600,5.81507763671875,-0.45608091354370117,-1.026123046875,-0.49767255783081055
1663860962957965000,5.824965087890625,0.6565201282501221,-1.4364519119262695,-0.40901756286621094
1663860962967852800,5.834852783203125,2.7171363830566406,-1.5207061767578125,-0.41374945640563965
1663860962977740500,5.844740478515625,2.1581826210021973,-1.3720359802246094,-0.7327995300292969
1663860962987597800,5.854597900390625,-0.24649429321289062,-1.4385967254638672,-1.3891754150390625
1663860962997485300,5.8644853515625,-0.6038374900817871,-1.5649375915527344,-1.6095695495605469
1663860963007373000,5.874373046875,0.40116024017333984,-1.581965446472168,-1.4964466094970703
1663860963017260800,5.8842607421875,-0.4059417247772217,-1.6164636611938477,-1.8490958213806152
1663860963027148500,5.8941484375,-1.112818956375122,-1.7225332260131836,-2.412134885787964
1663860963037036300,5.904036376953125,-0.5889041423797607,-1.5288286209106445,-2.384305953979492
1663860963046924000,5.913924072265625,0.24283456802368164,-1.1756610870361328,-2.0979809761047363
1663860963056811500,5.9238115234375,0.5666635036468506,-0.8934555053710938,-2.0992558002471924
1663860963066699300,5.93369921875,0.6502962112426758,-0.5769405364990234,-2.0739552974700928
1663860963076556500,5.943556640625,0.4633171558380127,-0.058315277099609375,-1.6787288188934326
1663860963086413600,5.95341357421875,0.5173120498657227,0.523655891418457,-1.2431209087371826
1663860963096301300,5.96330126953125,1.3566415309906006,0.9552202224731445,-1.0843605995178223
1663860963106158600,5.97315869140625,1.8382072448730469,1.2328834533691406,-0.7647824287414551
1663860963116076800,5.983076904296875,1.4006788730621338,1.3867483139038086,-0.28772902488708496
1663860963125964500,5.992964599609375,0.6743614673614502,1.514784812927246,0.12443423271179199
1663860963135852000,6.00285205078125,-0.1615898609161377,1.399374008178711,0.48778510093688965
1663860963145739800,6.01273974609375,-0.08858823776245117,0.9649467468261719,0.9784765243530273
1663860963155627500,6.02262744140625,0.41933727264404297,0.45770263671875,1.5741984844207764
1663860963165484800,6.03248486328125,0.6768417358398438,0.210052490234375,1.5679404735565186
1663860963175372300,6.042372314453125,-0.2192845344543457,0.1702585220336914,0.9898335933685303
1663860963185229600,6.0522294921875,-1.2904624938964844,-0.04819488525390625,0.35004162788391113
1663860963195147800,6.062147705078125,-1.076297402381897,-0.4594392776489258,0.10336470603942871
1663860963205035500,6.072035400390625,-0.4560431241989136,-0.517827033996582,0.14668893814086914
1663860963214923300,6.08192333984375,-0.7245297431945801,-0.23760986328125,-0.0745859146118164
1663860963224810800,6.091810791015625,-1.5083744525909424,-0.07040023803710938,-0.595069169998169
1663860963234668000,6.10166796875,-2.1221096515655518,0.06633377075195312,-0.5891222953796387
1663860963244555800,6.1115556640625,-2.247767925262451,0.25473976135253906,0.0047702789306640625
1663860963254443500,6.121443603515625,-1.9443061351776123,0.1436443328857422,0.41567182540893555
1663860963264331300,6.131331298828125,-1.9988391399383545,-0.06744003295898438,0.45490407943725586
1663860963274188300,6.141188232421875,-2.3711624145507812,-0.1272897720336914,0.2923550605773926
1663860963284076000,6.151075927734375,-2.4314472675323486,0.0899190902709961,0.09536433219909668
1663860963293963800,6.1609638671875,-1.9774926900863647,0.4756145477294922,0.05657672882080078
1663860963303820800,6.17082080078125,-1.7699025869369507,0.7195940017700195,0.052811384201049805
1663860963313708500,6.18070849609375,-1.7713069915771484,0.5551414489746094,0.009369850158691406
1663860963323626800,6.190626708984375,-1.7391670942306519,0.3775606155395508,0.07703208923339844
1663860963333514500,6.200514404296875,-1.803017258644104,0.36447715759277344,0.15649080276489258
1663860963343402200,6.21040234375,-1.826823353767395,0.2867145538330078,0.09511756896972656
1663860963353259300,6.22025927734375,-1.9456579685211182,0.24910449981689453,0.22751092910766602
1663860963363116500,6.230116455078125,-1.870772123336792,0.310882568359375,0.7060482501983643
1663860963373004300,6.24000439453125,-1.0538957118988037,0.12848472595214844,1.042426586151123
1663860963382922500,6.249922607421875,-0.27472472190856934,-0.01892566680908203,1.200300693511963
1663860963392810200,6.259810302734375,-0.502716064453125,0.011040687561035156,0.9512503147125244
1663860963402697700,6.26969775390625,-1.2595024108886719,0.2653055191040039,0.4280891418457031
1663860963412585500,6.27958544921875,-1.2443230152130127,0.6367816925048828,0.21892499923706055
1663860963422473200,6.28947314453125,-0.3267233371734619,0.9434404373168945,0.2675049304962158
1663860963432361000,6.29936083984375,0.23798060417175293,1.00457763671875,-0.09344244003295898
1663860963442218000,6.309218017578125,0.21458768844604492,1.0736408233642578,-0.6082308292388916
1663860963452105700,6.319105712890625,0.06703400611877441,1.3650712966918945,-0.953728199005127
1663860963461963000,6.328962890625,-0.21258902549743652,1.5461320877075195,-1.1645376682281494
1663860963471881200,6.338881103515625,0.0986635684967041,1.1296958923339844,-1.2950575351715088
1663860963481738200,6.34873828125,0.6113708019256592,0.5362911224365234,-1.1197175979614258
1663860963491626000,6.3586259765625,-0.5318496227264404,0.010791778564453125,-0.7483704090118408
1663860963501513700,6.368513671875,-2.61739444732666,-0.4364967346191406,-0.4523482322692871
1663860963511371000,6.37837109375,-2.9916040897369385,-0.8745031356811523,-0.551293134689331
1663860963521289200,6.388289306640625,-0.8419439792633057,-1.3790960311889648,-0.20792937278747559
1663860963531177000,6.398177001953125,0.18588590621948242,-1.8599672317504883,0.2656271457672119
1663860963541064400,6.408064453125,-0.2899113893508911,-1.8105154037475586,0.6861147880554199
1663860963550952200,6.4179521484375,-0.5432453155517578,-1.409195899963379,0.8128402233123779
1663860963560840000,6.42783984375,-0.7962421178817749,-1.2731781005859375,0.7377898693084717
1663860963570697200,6.437697265625,-0.8168145418167114,-1.286442756652832,0.8862628936767578
1663860963580584700,6.447584716796875,-0.1723184585571289,-0.8915948867797852,1.4061832427978516
1663860963590472400,6.457472412109375,0.8237359523773193,-0.11031913757324219,1.857339859008789
1663860963600360200,6.467360107421875,0.9084022045135498,0.4556760787963867,1.9445595741271973
1663860963610248000,6.477248046875,0.3006761074066162,0.4852638244628906,1.8325297832489014
1663860963620135700,6.4871357421875,0.27286791801452637,0.19700336456298828,1.9026820659637451
1663860963630023200,6.497023193359375,0.759398341178894,-0.09493637084960938,1.8421359062194824
1663860963639880400,6.50688037109375,0.5307401418685913,-0.26707935333251953,1.228088140487671
1663860963649737700,6.51673779296875,0.6805038452148438,-0.18620967864990234,0.286440372467041
1663860963659625200,6.526625244140625,3.360189437866211,-0.28000736236572266,-1.1906287670135498
1663860963669543400,6.53654345703125,5.091687202453613,0.20898914337158203,-2.132390260696411
1663860963679431200,6.54643115234375,3.7240326404571533,1.2542619705200195,-2.717794418334961
1663860963689319000,6.55631884765625,1.4543631076812744,1.3922033309936523,-4.866844177246094
1663860963699206700,6.56620654296875,-1.2602531909942627,0.8852987289428711,-7.2414703369140625
1663860963709063700,6.576063720703125,-5.312781810760498,-0.23738765716552734,-7.37985897064209
1663860963718951400,6.585951416015625,-2.52987003326416,-1.747868537902832,-5.836644172668457
1663860963728808700,6.59580859375,2.3964004516601562,-1.6377067565917969,-1.437633991241455
1663860963738696400,6.605696533203125,2.4880459308624268,-0.8193759918212891,2.9524567127227783
1663860963748584200,6.615584228515625,0.6843591332435608,-0.6505212783813477,4.074977397918701
1663860963758502400,6.62550244140625,-0.9346994161605835,-0.3333406448364258,3.0122439861297607
1663860963768390000,6.635389892578125,-1.6320645809173584,0.5181446075439453,1.2079269886016846
1663860963778247200,6.6452470703125,-1.2789610624313354,0.8734655380249023,-0.672187089920044
1663860963788135000,6.655135009765625,-1.1504794359207153,0.9682645797729492,-1.3065240383148193
1663860963798022700,6.665022705078125,-0.8941619396209717,1.0883169174194336,-0.6902194023132324
1663860963807910100,6.67491015625,-0.5882763266563416,1.3187427520751953,0.15507745742797852
1663860963817767400,6.684767333984375,-0.6353479027748108,1.3167858123779297,0.5596604347229004
1663860963827655200,6.6946552734375,-0.8234349489212036,0.8132991790771484,0.4433591365814209
1663860963837543000,6.70454296875,-1.0888689756393433,0.32783985137939453,0.09000468254089355
1663860963847430400,6.714430419921875,-1.7132458686828613,-0.22173309326171875,-0.009702920913696289
1663860963857287700,6.72428759765625,-2.220376968383789,-1.0127830505371094,0.08188390731811523
1663860963867175400,6.734175537109375,-1.7091612815856934,-1.3974218368530273,0.33989500999450684
1663860963877093600,6.74409375,-0.7652957439422607,-1.3253440856933594,0.7137451171875
1663860963886981400,6.7539814453125,-0.5429284572601318,-1.1997222900390625,0.8703134059906006
1663860963896868900,6.763868896484375,-0.6350441575050354,-1.046259880065918,0.5408070087432861
1663860963906756600,6.773756591796875,-0.44286680221557617,-0.8223409652709961,-0.012075424194335938
1663860963916644400,6.783644287109375,-0.2540189325809479,-0.6267690658569336,-0.5558702945709229
1663860963926532000,6.793531982421875,-0.29894912242889404,-0.4697237014770508,-1.0946924686431885
1663860963936419800,6.803419921875,-0.426107794046402,-0.3446836471557617,-1.3886630535125732
1663860963946307300,6.813307373046875,-0.531323254108429,-0.32849597930908203,-1.3546791076660156
1663860963956195000,6.823195068359375,-0.7056843638420105,-0.3948631286621094,-1.0303289890289307
1663860963966082800,6.833082763671875,-0.8580418825149536,-0.6125049591064453,-0.6018898487091064
1663860963975940000,6.842940185546875,-0.831315279006958,-1.001997947692871,-0.38244080543518066
1663860963985827800,6.852827880859375,-0.8414535522460938,-1.3643674850463867,-0.3642106056213379
1663860964005572600,6.872572509765625,-1.475064992904663,-1.919968605041504,-1.0367882251739502
1663860964015460400,6.88246044921875,-1.5114202499389648,-2.071660041809082,-1.7833406925201416
1663860964025317400,6.8923173828125,-0.6443710923194885,-1.954843521118164,-2.015399694442749
1663860964035205000,6.902205078125,0.7978976964950562,-1.7058820724487305,-1.787165880203247
1663860964045092900,6.9120927734375,1.4255383014678955,-1.219029426574707,-1.475095510482788
1663860964054980600,6.921980712890625,0.533035397529602,-0.32751941680908203,-1.426687479019165
1663860964064868400,6.931868408203125,-1.5524548292160034,0.7403230667114258,-1.050015926361084
1663860964074755800,6.941755859375,-3.5857677459716797,1.2085800170898438,-0.12049198150634766
1663860964084613000,6.951613037109375,-3.496574640274048,0.5373258590698242,0.7248237133026123
1663860964094500900,6.9615009765625,-2.1109113693237305,-0.41625404357910156,1.6702511310577393
1663860964104388600,6.971388671875,-1.5539743900299072,-0.7103071212768555,2.555100202560425
1663860964114276000,6.981276123046875,-1.764500379562378,-0.5530319213867188,2.366697072982788
1663860964124163800,6.991163818359375,-2.1000821590423584,0.034862518310546875,1.130998134613037
1663860964134051600,7.001051513671875,-1.8257876634597778,1.3893709182739258,0.006029367446899414
1663860964143908900,7.010908935546875,-0.6988525986671448,2.510136604309082,-0.21315431594848633
1663860964153796400,7.02079638671875,-0.20806342363357544,2.735292434692383,-0.4624941349029541
1663860964163684000,7.03068408203125,-0.9872551560401917,2.24881649017334,-1.0542306900024414
1663860964173571800,7.04057177734375,-1.9768097400665283,1.3974332809448242,-1.2291412353515625
1663860964183459600,7.05045947265625,-2.2146530151367188,0.3821897506713867,-1.2980847358703613
1663860964193347300,7.060347412109375,-2.4201974868774414,-0.4503774642944336,-1.3728351593017578
1663860964203235000,7.070235107421875,-2.364330530166626,-0.45654773712158203,-1.3594350814819336
1663860964213122600,7.08012255859375,-2.288315534591675,-0.4650430679321289,-1.3469765186309814
1663860964222979800,7.089979736328125,-2.1879804134368896,-0.4767313003540039,-1.3358802795410156
1663860964232867600,7.09986767578125,-2.069052219390869,-0.49236392974853516,-1.322716474533081
1663860964242755300,7.10975537109375,-1.9454925060272217,-0.5120906829833984,-1.300948143005371
1663860964252642800,7.119642822265625,-1.829284906387329,-0.5354928970336914,-1.2653179168701172
1663860964262530600,7.129530517578125,-0.6379598379135132,1.3035755157470703,-0.19768118858337402
1663860964272387800,7.139387939453125,0.3323497772216797,2.0069313049316406,0.9660201072692871
1663860964282275600,7.149275634765625,0.6040209531784058,2.7699270248413086,1.702836036682129
1663860964292163000,7.1591630859375,0.508017897605896,3.6440114974975586,1.8070621490478516
1663860964302050800,7.16905078125,0.48340415954589844,4.430782318115234,1.3327226638793945
1663860964311938600,7.1789384765625,0.41558027267456055,4.521266937255859,0.7797362804412842
1663860964321826300,7.188826416015625,0.7032873630523682,3.469358444213867,0.35917067527770996
1663860964331683300,7.198683349609375,0.5823075771331787,1.8915824890136719,0.05023980140686035
1663860964341601500,7.2086015625,-0.1547715663909912,0.5355281829833984,-0.20624828338623047
1663860964351489300,7.2184892578125,-0.8065481185913086,-0.38455772399902344,-0.3643620014190674
1663860964361377000,7.228376953125,-1.366887092590332,-0.9350442886352539,-0.684988260269165
1663860964371234300,7.238234375,-1.9428365230560303,-1.0895261764526367,-0.9695146083831787
1663860964381121800,7.248121826171875,-2.4326586723327637,-0.9510011672973633,-1.0771453380584717
1663860964391040000,7.2580400390625,-2.4353866577148438,-0.6405181884765625,-1.2730543613433838
1663860964400927700,7.267927734375,-1.8773341178894043,-0.35413169860839844,-1.4354588985443115
1663860964410815500,7.2778154296875,-1.5482521057128906,-0.08687496185302734,-1.7497656345367432
1663860964420703200,7.287703125,-1.2436025142669678,0.30454349517822266,-2.4537127017974854
1663860964430591000,7.297591064453125,-1.6330265998840332,0.6736917495727539,-3.14622163772583
1663860964440478700,7.307478759765625,-2.503688335418701,0.24626636505126953,-3.6308655738830566
1663860964450335700,7.317335693359375,-2.710073232650757,-0.7652473449707031,-3.9255592823028564
1663860964460223500,7.327223388671875,-2.764280080795288,-1.5115737915039062,-3.5605318546295166
1663860964470111200,7.337111328125,-3.077880620956421,-1.9663057327270508,-2.474630117416382
1663860964479999000,7.3469990234375,-3.3293726444244385,-2.406656265258789,-1.103123426437378
1663860964489886500,7.356886474609375,-3.3205137252807617,-2.496988296508789,-0.11547708511352539
1663860964499774200,7.366774169921875,-3.14190673828125,-1.807011604309082,0.5479378700256348
1663860964509662000,7.376661865234375,-2.6645357608795166,-0.6126155853271484,1.0141150951385498
1663860964519519200,7.386519287109375,-1.9721579551696777,0.9372406005859375,1.5011930465698242
1663860964529376300,7.396376220703125,-1.149390697479248,2.2711315155029297,1.9757344722747803
1663860964539264000,7.406263916015625,-0.6228833198547363,2.6051626205444336,2.906327724456787
1663860964549121300,7.416121337890625,0.065093994140625,2.875020980834961,3.0888876914978027
1663860964559039500,7.42603955078125,0.19072484970092773,3.1325502395629883,3.029505729675293
1663860964568896500,7.435896484375,-0.3786916732788086,2.659140110015869,2.8851428031921387
1663860964578814700,7.445814697265625,-0.5943989753723145,1.7504692077636719,2.41733980178833
1663860964588702500,7.455702392578125,-0.33200693130493164,1.0111536979675293,1.7701640129089355
1663860964598590200,7.465590087890625,0.723762035369873,0.4686279296875,1.048417568206787
1663860964608447200,7.475447265625,1.5908665657043457,0.2852945327758789,0.7034974098205566
1663860964618335000,7.4853349609375,1.5910205841064453,0.3185577392578125,0.6698217391967773
1663860964628222700,7.49522265625,0.6818761825561523,0.2348036766052246,0.5707602500915527
1663860964638110500,7.5051103515625,-0.6853485107421875,-0.43703651428222656,-0.002216339111328125
1663860964647998200,7.514998291015625,-1.9545555114746094,-1.4911327362060547,-0.7822780609130859
1663860964657885700,7.5248857421875,-3.17303466796875,-2.3839073181152344,-1.2690401077270508
1663860964667773400,7.5347734375,-3.9593849182128906,-3.182929515838623,-1.4992456436157227
1663860964677661200,7.5446611328125,-4.422813415527344,-3.6342949867248535,-1.2512016296386719
1663860964687549000,7.554548828125,-4.242362976074219,-3.7932305335998535,-0.970494270324707
1663860964697436700,7.564436767578125,-2.870704174041748,-3.903468132019043,-1.104947566986084
1663860964707324400,7.574324462890625,-1.8828425407409668,-3.664376735687256,-1.5268616676330566
1663860964717212000,7.5842119140625,-1.542813777923584,-2.923337459564209,-1.6021614074707031
1663860964727069200,7.594069091796875,-0.6373729705810547,-1.465949535369873,-0.6760601997375488
1663860964736957000,7.60395703125,0.27277660369873047,0.19895648956298828,0.8084664344787598
1663860964746844700,7.6138447265625,1.11207914352417,1.484177589416504,1.9003610610961914
1663860964756732200,7.623732177734375,0.9765539169311523,1.4377131462097168,1.841555118560791
1663860964766620000,7.633619873046875,-0.1848001480102539,0.4416847229003906,1.1976289749145508
1663860964776507600,7.643507568359375,-0.48224401473999023,-0.7265157699584961,0.8378701210021973
1663860964786395400,7.6533955078125,-0.49436426162719727,-1.5325908660888672,0.8138737678527832
1663860964796283100,7.663283203125,-1.5876307487487793,-1.9647564888000488,0.8658671379089355
1663860964806140200,7.67314013671875,-2.031719207763672,-2.4124345779418945,0.4732799530029297
1663860964816028000,7.68302783203125,-1.3570685386657715,-2.813776969909668,-0.6301722526550293
1663860964825915600,7.69291552734375,-1.0006866455078125,-3.389545440673828,-1.5228676795959473
1663860964835803400,7.702803466796875,-1.0867929458618164,-3.6898341178894043,-1.9838533401489258
1663860964845691000,7.71269091796875,-0.7558550834655762,-3.0091612339019775,-1.0706872940063477
1663860964855578600,7.72257861328125,-0.5677313804626465,-1.9660508632659912,0.33104801177978516
1663860964865436000,7.732435791015625,-1.15142822265625,-1.6680171489715576,0.2610659599304199
1663860964875323600,7.74232373046875,-2.4553146362304688,-1.668172836303711,-0.20005273818969727
1663860964885180700,7.7521806640625,-1.6614503860473633,-2.1654653549194336,-0.7911229133605957
1663860964895068400,7.762068359375,0.5509738922119141,-2.302823305130005,-1.688302993774414
1663860964904956200,7.7719560546875,-0.9397697448730469,-2.1041417121887207,-1.8246231079101562
1663860964914844000,7.781843994140625,0.3775491714477539,-1.6868267059326172,-1.213860034942627
1663860964924731600,7.791731689453125,2.1001434326171875,-0.8418562412261963,-0.6162467002868652
1663860964934619100,7.801619140625,1.5397443771362305,-0.45300960540771484,-0.1411423683166504
1663860964944476400,7.811476318359375,1.2182369232177734,-0.4982028007507324,-0.5081391334533691
1663860964954394600,7.82139453125,1.360147476196289,-0.6575407981872559,-0.6167440414428711
1663860964964252000,7.831251953125,1.6316003799438477,-0.5508089065551758,0.17684507369995117
1663860964974139400,7.841139404296875,1.183732032775879,-0.3773989677429199,0.6609010696411133
1663860964984027100,7.851027099609375,2.2268295288085938,-0.12905645370483398,1.1300172805786133
1663860964993915000,7.860914794921875,2.3124523162841797,0.1520838737487793,1.2382874488830566
1663860965003802600,7.870802734375,3.052006721496582,0.49367499351501465,0.6365485191345215
1663860965013690400,7.8806904296875,3.9659786224365234,1.2195117473602295,0.9599246978759766
1663860965023577900,7.890577880859375,2.1380228996276855,1.8743369579315186,1.6587648391723633
1663860965033465600,7.900465576171875,2.18654727935791,2.048513174057007,2.3587279319763184
1663860965043353300,7.910353271484375,4.554111480712891,1.5276145935058594,2.51632022857666
1663860965053210600,7.920210693359375,4.952725410461426,0.6426444053649902,1.842298984527588
1663860965063067600,7.930067626953125,2.1667771339416504,0.2345271110534668,0.7976675033569336
1663860965072985900,7.93998583984375,0.378328800201416,0.34321022033691406,0.5436620712280273
1663860965082873600,7.94987353515625,1.0220451354980469,0.6536588668823242,1.6165080070495605
1663860965092731000,7.95973095703125,1.877819538116455,0.7811427116394043,3.034463405609131
1663860965102618400,7.969618408203125,1.1515779495239258,1.030623435974121,4.0559563636779785
1663860965112506000,7.979506103515625,0.13582801818847656,1.3466143608093262,4.223564624786377
1663860965122393900,7.989393798828125,-0.29126691818237305,1.5017752647399902,3.8510189056396484
1663860965132281600,7.999281494140625,0.4179973602294922,1.7854714393615723,3.6493916511535645
1663860965142169300,8.00916943359375,1.7671589851379395,2.2179694175720215,3.2632627487182617
1663860965152026400,8.0190263671875,2.269348621368408,2.6379852294921875,2.770261764526367
1663860965161944600,8.028944580078125,0.9156041145324707,2.9284114837646484,1.9627456665039062
1663860965171832300,8.038832275390625,-0.29382896423339844,2.7232747077941895,0.5583734512329102
1663860965181689600,8.048689697265624,0.9203886985778809,2.3607735633850098,-0.1949481964111328
1663860965191577300,8.058577392578124,2.58978271484375,2.2398762702941895,0.18376874923706055
1663860965201464800,8.06846484375,1.4678139686584473,2.2193665504455566,0.28771352767944336
1663860965211352600,8.0783525390625,-1.2968864440917969,1.7308177947998047,-0.6691126823425293
1663860965221240300,8.088240234375,-2.0720834732055664,0.8834700584411621,-1.633939266204834
1663860965231128000,8.098128173828124,-0.635887622833252,0.10259294509887695,-1.320683479309082
1663860965241015800,8.108015869140624,2.057957649230957,-0.1329197883605957,-0.47228336334228516
1663860965250903300,8.1179033203125,3.7102231979370117,0.41303300857543945,0.1296405792236328
1663860965260791000,8.127791015625,4.793529510498047,1.6866741180419922,0.6598286628723145
1663860965270648300,8.1376484375,4.4256181716918945,3.4078783988952637,1.0140910148620605
1663860965280536000,8.1475361328125,1.6167759895324707,5.060532569885254,0.7163293361663818
1663860965290423600,8.157423583984375,-2.7487316131591797,5.598549842834473,-0.6929082870483398
1663860965300280800,8.16728076171875,-5.360113143920898,4.178432464599609,-2.046938180923462
1663860965310168600,8.17716845703125,-2.8174033164978027,1.8023772239685059,-1.4002013206481934
1663860965320056300,8.187056396484374,1.0838384628295898,-0.3258647918701172,0.10780048370361328
1663860965329913300,8.196913330078125,-0.4680819511413574,-1.850728988647461,-0.6457517147064209
1663860965339831600,8.20683154296875,-5.106220722198486,-3.186720848083496,-2.8794758319854736
1663860965349719300,8.21671923828125,-7.0987772941589355,-5.445828437805176,-5.218640327453613
1663860965359607000,8.22660693359375,-4.5800981521606445,-7.368844032287598,-5.925778388977051
1663860965369494800,8.236494873046874,-2.438735008239746,-7.031900405883789,-3.644695997238159
1663860965379382500,8.246382568359374,-3.1763734817504883,-6.225761413574219,-2.195159435272217
1663860965389270000,8.25627001953125,-2.8052167892456055,-5.083071708679199,-1.7770848274230957
1663860965399157800,8.26615771484375,-1.732043743133545,-3.500234603881836,-0.24294519424438477
1663860965409045500,8.27604541015625,-2.9240784645080566,-2.4514780044555664,1.4266948699951172
1663860965418933200,8.285933349609374,-3.524904251098633,-2.1954498291015625,2.9953842163085938
1663860965428821000,8.295821044921874,-0.5024137496948242,-2.219923973083496,4.931183815002441
1663860965438678000,8.305677978515625,1.004629135131836,-1.937601089477539,5.8840861320495605
1663860965448565800,8.315565673828125,0.4571566581726074,-0.93609619140625,5.836538791656494
1663860965458453500,8.32545361328125,-1.7023241519927979,0.35921478271484375,5.54318904876709
1663860965468310500,8.335310546875,-2.9320976734161377,0.9897518157958984,5.160737037658691
1663860965478198300,8.3451982421875,-0.5778083801269531,0.08059024810791016,4.289443492889404
1663860965488055600,8.3550556640625,0.6988070011138916,-1.642481803894043,2.9543583393096924
1663860965497943300,8.364943359375,1.2300148010253906,-3.215951919555664,1.5530054569244385
1663860965507861500,8.374861572265624,2.0644564628601074,-4.257946968078613,-0.060656070709228516
1663860965517749000,8.3847490234375,0.5863242149353027,-4.056509971618652,-1.1985244750976562
1663860965527636700,8.39463671875,-3.4528720378875732,-2.715031623840332,-2.3170418739318848
1663860965537494000,8.404493896484375,-8.347196578979492,-1.715545654296875,-3.4438273906707764
1663860965547351000,8.41435107421875,-5.932159423828125,-2.906519889831543,-3.1595003604888916
1663860965557238800,8.42423876953125,4.745622634887695,-6.070467948913574,-1.9074680805206299
1663860965567157000,8.434156982421875,7.696098327636719,-6.437896728515625,-1.8852334022521973
1663860965577014300,8.44401416015625,4.0015668869018555,-5.173727035522461,-4.107148170471191
1663860965586902000,8.453902099609374,-2.926734209060669,-5.372183799743652,-7.14652156829834
1663860965596789800,8.463789794921874,-10.021904945373535,-7.97172737121582,-8.641153335571289
1663860965606646800,8.473646728515625,-5.220332622528076,-10.809929847717285,-6.888073921203613
1663860965616534500,8.483534423828125,2.1680588722229004,-9.807818412780762,-2.5879247188568115
1663860965626422300,8.49342236328125,2.2016942501068115,-8.141550064086914,-1.1060435771942139
1663860965636340500,8.503340576171874,-1.4470796585083008,-6.711023330688477,-2.1133968830108643
1663860965646197500,8.513197509765625,-5.057042598724365,-4.52886962890625,-2.5448594093322754
1663860965656115700,8.52311572265625,-6.01039981842041,-3.0645313262939453,-1.5434083938598633
1663860965665973000,8.532972900390625,-4.317596912384033,-2.4186744689941406,-0.22560572624206543
1663860965675860700,8.54286083984375,-2.775261640548706,-1.8852672576904297,0.7786672115325928
1663860965685748500,8.55274853515625,-2.7440173625946045,-1.1204261779785156,1.2601172924041748
1663860965695636000,8.562635986328125,-2.72865891456604,0.00641632080078125,1.3131697177886963
1663860965705493200,8.5724931640625,-2.5176548957824707,1.434408187866211,1.6445140838623047
1663860965715381000,8.582381103515624,-2.1580734252929688,2.960576057434082,2.2179980278015137
1663860965725268700,8.592268798828124,-0.28895139694213867,4.139015197753906,2.528449058532715
1663860965735125800,8.602125732421875,2.8404886722564697,4.618322372436523,2.1683311462402344
1663860965745044000,8.6120439453125,4.293693542480469,5.052434921264648,1.7492773532867432
1663860965754931700,8.621931640625,3.7264723777770996,5.886929512023926,1.3046882152557373
1663860965764789000,8.6317890625,2.973308801651001,6.599475860595703,0.3266792297363281
1663860965774707200,8.641707275390624,1.7688038349151611,7.495441436767578,0.08534884452819824
1663860965784564200,8.651564208984375,1.451568603515625,8.263023376464844,0.4749314785003662
1663860965794482400,8.661482421875,2.187979221343994,8.044937133789062,0.6108686923980713
1663860965804339700,8.671339599609375,2.526137590408325,6.976361274719238,0.9635679721832275
1663860965814196700,8.68119677734375,2.6573495864868164,5.425365447998047,1.4196820259094238
1663860965824084500,8.69108447265625,2.5882015228271484,3.965092658996582,1.6027681827545166
1663860965834002700,8.701002685546875,2.6958887577056885,2.7705678939819336,1.2861638069152832
1663860965843860000,8.71085986328125,2.897315740585327,2.0406856536865234,-0.12105751037597656
1663860965853778200,8.720778076171875,2.1050941944122314,2.1575984954833984,-2.5599019527435303
1663860965863666000,8.730666015625,0.012022256851196289,2.388561248779297,-4.707669258117676
1663860965873553700,8.7405537109375,-2.5524613857269287,1.619955062866211,-5.945782661437988
1663860965883410700,8.75041064453125,-4.732882499694824,-0.34537792205810547,-5.509596824645996
1663860965893298400,8.76029833984375,-5.708346366882324,-2.6535043716430664,-4.437821388244629
1663860965903155700,8.77015576171875,-5.633606910705566,-4.51220703125,-3.8282976150512695
1663860965913074000,8.780073974609374,-4.041816711425781,-4.918707847595215,-3.2909762859344482
1663860965922961400,8.78996142578125,-2.292213201522827,-3.3208484649658203,-2.0675833225250244
1663860965932849200,8.79984912109375,-1.0693154335021973,-1.1431245803833008,-0.5768585205078125
1663860965942706400,8.80970654296875,0.7153840065002441,-0.044086456298828125,0.12047481536865234
1663860965952563500,8.8195634765625,1.705277442932129,0.02211761474609375,0.3834047317504883
1663860965962451200,8.829451171875,1.148193359375,-0.3145284652709961,0.8314673900604248
1663860965972339000,8.8393388671875,0.4718818664550781,-1.3107786178588867,1.0290329456329346
1663860965982226700,8.849226806640624,0.6977930068969727,-2.6609745025634766,0.5628788471221924
1663860965992114400,8.859114501953124,1.2950820922851562,-3.694826126098633,-0.16498565673828125
1663860966002032600,8.86903271484375,1.439481258392334,-4.491181373596191,-0.5138161182403564
1663860966011889700,8.8788896484375,1.8522858619689941,-5.111372470855713,-0.6251378059387207
1663860966021747000,8.888746826171875,1.0939106941223145,-4.923737049102783,-0.7720475196838379
1663860966031634700,8.898634765625,0.11010551452636719,-4.012322902679443,-0.6604790687561035
1663860966041553000,8.908552978515624,-0.3321962356567383,-3.0772976875305176,-0.5046939849853516
1663860966051440400,8.9184404296875,-0.6983308792114258,-2.7393851280212402,-0.7154488563537598
1663860966061328100,8.928328125,-0.6859455108642578,-2.376307964324951,-0.8026690483093262
1663860966071185400,8.938185302734375,-0.8560972213745117,-2.2009029388427734,-0.6886358261108398
1663860966081073200,8.9480732421875,-1.820338249206543,-2.314157009124756,-1.0097179412841797
1663860966090930200,8.95793017578125,-3.1052417755126953,-2.5310168266296387,-1.3172578811645508
1663860966100848400,8.967848388671875,-2.7669615745544434,-3.118481159210205,-1.3685617446899414
1663860966110736100,8.977736083984375,-1.5778236389160156,-3.9184470176696777,-1.5435667037963867
1663860966120593400,8.987593505859374,-1.253087043762207,-4.2075090408325195,-1.9675016403198242
1663860966130511600,8.99751171875,-2.60953426361084,-3.626342296600342,-1.6688427925109863
1663860966140399400,9.0073994140625,-3.180142879486084,-3.0010886192321777,-0.8654508590698242
1663860966150256400,9.01725634765625,0.05836009979248047,-2.346409320831299,0.6833157539367676
1663860966160144100,9.02714404296875,2.833130359649658,-1.383681297302246,1.6156830787658691
1663860966170001400,9.03700146484375,0.5460262298583984,-0.5666303634643555,2.056428909301758
1663860966179919600,9.046919677734374,-1.2595977783203125,-0.7181549072265625,1.1085562705993652
1663860966189807000,9.05680712890625,-0.6330671310424805,-0.7669222354888916,-0.13895082473754883
1663860966199664400,9.066664306640625,-0.5664148330688477,-1.2138996124267578,-1.0906000137329102
1663860966209552100,9.07655224609375,2.042421340942383,-2.1720399856567383,-1.4759645462036133
1663860966219439900,9.08643994140625,3.9097299575805664,-2.6445438861846924,-0.7455334663391113
1663860966229327400,9.096327392578125,3.6982107162475586,-2.6270995140075684,-0.13798284530639648
1663860966239215000,9.106215087890625,2.794025421142578,-1.6424884796142578,1.3174171447753906
1663860966249072400,9.116072265625,2.264842987060547,-0.07289433479309082,2.9465441703796387
1663860966258990600,9.125990478515625,2.756540298461914,0.8460254669189453,2.9065961837768555
1663860966268878300,9.13587841796875,4.582773208618164,0.9628422260284424,2.031550407409668
1663860966278765800,9.145765869140625,5.668918609619141,1.132507562637329,1.7522048950195312
1663860966288623000,9.155623046875,5.355093002319336,1.6174979209899902,0.29021358489990234
1663860966298510800,9.1655107421875,5.575898170471191,2.4866905212402344,-0.39736223220825195
1663860966308398600,9.175398681640624,5.783388137817383,2.8516769409179688,0.6638355255126953
1663860966318286300,9.185286376953124,4.695998191833496,2.581400156021118,0.8149242401123047
1663860966328173800,9.195173828125,3.763880729675293,2.054560899734497,0.8336954116821289
1663860966338061600,9.2050615234375,2.8460769653320312,1.7769982814788818,1.9234819412231445
1663860966347949300,9.21494921875,2.972296714782715,1.739018201828003,2.74654483795166
1663860966357837000,9.224837158203124,4.847283363342285,1.9034004211425781,3.544219493865967
1663860966367694000,9.234694091796875,5.343386650085449,2.044398784637451,3.8521475791931152
1663860966377581800,9.244581787109375,4.610934257507324,2.000558376312256,3.2672119140625
1663860966387439000,9.254439208984374,4.353403091430664,1.6653094291687012,2.2757129669189453
1663860966397357300,9.264357421875,3.2094602584838867,1.4612188339233398,1.6568999290466309
1663860966407245000,9.2742451171875,3.395740509033203,1.3779616355895996,1.1918773651123047
1663860966417132500,9.284132568359375,4.88491678237915,1.3734469413757324,1.0977158546447754
1663860966427020300,9.294020263671875,3.229538917541504,1.4671058654785156,0.9482197761535645
1663860966436908000,9.303907958984375,1.2865443229675293,1.236884593963623,0.2419586181640625
1663860966446765300,9.313765380859374,2.864156723022461,0.8869986534118652,-0.2929513454437256
1663860966456622300,9.323622314453125,3.604233741760254,1.2060246467590332,0.04220271110534668
1663860966466510000,9.333510009765625,2.1410255432128906,1.7353544235229492,-0.0960547924041748
1663860966476428300,9.34342822265625,2.296751022338867,1.910588264465332,-1.0919544696807861
1663860966486285600,9.35328564453125,4.055239677429199,2.263148307800293,-1.5123496055603027
1663860966496173000,9.363173095703125,3.279508113861084,2.753509044647217,-1.3633832931518555
1663860966506030300,9.3730302734375,0.1775197982788086,2.762568473815918,-1.7393643856048584
1663860966515948500,9.382948486328125,-1.4985218048095703,2.234710216522217,-2.1803693771362305
1663860966525836300,9.392836181640625,0.2442021369934082,1.7429490089416504,-1.4574930667877197
1663860966535724000,9.40272412109375,3.0072154998779297,1.4787330627441406,-0.22504162788391113
1663860966545581000,9.4125810546875,3.1462488174438477,1.4927916526794434,0.04141998291015625
1663860966555499300,9.422499267578125,0.7209739685058594,1.7348475456237793,-0.542119026184082
1663860966565356500,9.4323564453125,-0.8904924392700195,1.7379307746887207,-1.3284552097320557
1663860966575213800,9.4422138671875,-0.17518329620361328,1.3136382102966309,-2.0010154247283936
1663860966585132000,9.452132080078124,0.8486394882202148,0.6807041168212891,-2.426379442214966
1663860966595019500,9.46201953125,0.6578488349914551,-0.18614673614501953,-2.5831151008605957
1663860966604907300,9.4719072265625,0.38527870178222656,-1.219080924987793,-2.3863091468811035
1663860966614764500,9.4817646484375,-0.11908435821533203,-2.359564781188965,-1.8316874504089355
1663860966624682800,9.491682861328124,-0.20000648498535156,-3.1178951263427734,-0.8503420352935791
1663860966634570500,9.501570556640624,0.02558135986328125,-3.169300079345703,0.09065890312194824
1663860966644427500,9.511427490234375,0.7778639793395996,-2.4570064544677734,0.25833559036254883
1663860966654284800,9.521284912109374,1.2519011497497559,-1.3426923751831055,-0.015382766723632812
1663860966664172500,9.531172607421874,0.6892738342285156,-0.43256568908691406,-0.3718850612640381
1663860966674090800,9.5410908203125,-0.26882076263427734,-0.12818241119384766,-0.9847605228424072
1663860966683978200,9.550978271484375,-1.1078910827636719,-0.7005586624145508,-1.8218417167663574
1663860966693866000,9.560865966796875,-0.48288440704345703,-2.000873565673828,-2.1622302532196045
1663860966703753700,9.570753662109375,0.966339111328125,-3.112942695617676,-2.1195335388183594
1663860966713641500,9.580641357421875,-0.0017762184143066406,-3.6553077697753906,-2.3800554275512695
1663860966723498500,9.59049853515625,-3.710508108139038,-4.506586074829102,-2.946207284927368
1663860966733355800,9.600355712890625,-5.739310264587402,-6.306989669799805,-3.0054068565368652
1663860966743274000,9.61027392578125,-2.357447624206543,-7.313584327697754,-1.3901941776275635
1663860966753161700,9.62016162109375,0.15872550010681152,-6.582731246948242,0.44356298446655273
1663860966763019000,9.63001904296875,-0.8849167823791504,-5.154071807861328,1.0231046676635742
1663860966772906500,9.639906494140625,-3.08564829826355,-4.018782615661621,0.4945857524871826
1663860966782794200,9.649794189453125,-3.4435789585113525,-2.911073684692383,-0.10111486911773682
1663860966792682000,9.659681884765625,-1.8497402667999268,-2.0357275009155273,-0.5974248647689819
1663860966802569700,9.66956982421875,-0.5299272537231445,-1.5437822341918945,-1.2750862836837769
1663860966812457500,9.67945751953125,-0.8014078140258789,-1.3109159469604492,-2.3181190490722656
1663860966822314500,9.689314453125,-2.3487513065338135,-1.7995061874389648,-3.2714953422546387
1663860966832232700,9.699232666015625,-3.6817996501922607,-2.7708520889282227,-3.7461042404174805
1663860966842090000,9.709090087890624,-4.623166084289551,-3.516608238220215,-3.5860207080841064
1663860966851977700,9.718977783203124,-4.3709611892700195,-3.4708871841430664,-3.4331297874450684
1663860966861834800,9.728834716796875,-3.3626041412353516,-2.3202571868896484,-3.3330068588256836
1663860966871722500,9.738722412109375,-3.536287784576416,-0.39327526092529297,-3.1514739990234375
1663860966881610200,9.7486103515625,-3.714761257171631,1.2373046875,-2.7522363662719727
1663860966891498000,9.758498046875,-3.3036446571350098,2.303050994873047,-2.199896812438965
1663860966901416200,9.768416259765624,-4.177652359008789,2.305500030517578,-1.8919470310211182
1663860966911273200,9.778273193359375,-3.0699596405029297,1.9267921447753906,-1.0726888179779053
1663860966921161000,9.788160888671875,-2.978642225265503,0.765833854675293,-0.6801966428756714
1663860966931048700,9.798048583984375,-4.47204065322876,-1.0062971115112305,-1.540168046951294
1663860966940905700,9.80790576171875,-3.304405450820923,-1.6605100631713867,-1.4634748697280884
1663860966950824000,9.817823974609375,1.019632339477539,-1.633875846862793,-0.363613486289978
1663860966960681200,9.82768115234375,3.5181045532226562,-1.4177961349487305,0.32194840908050537
1663860966970569000,9.83756884765625,2.022301197052002,-0.7355575561523438,-0.2123509645462036
1663860966980487200,9.847487060546875,-2.4970335960388184,-0.19492816925048828,-1.9641207456588745
1663860966990375000,9.857375,-3.3680357933044434,-0.5000486373901367,-3.6406149864196777
1663860967000262700,9.8672626953125,3.0493459701538086,-0.6943435668945312,-3.3700644969940186
1663860967010150100,9.877150146484375,5.682551860809326,-0.42645263671875,-1.6853134632110596
1663860967020038000,9.887037841796875,0.19925165176391602,-1.0791864395141602,-2.514850616455078
1663860967029925600,9.896925537109375,-5.55385160446167,-2.6871442794799805,-5.3020782470703125
1663860967039813400,9.9068134765625,-5.385171890258789,-3.385326385498047,-5.139473915100098
1663860967049670400,9.91667041015625,-0.5700397491455078,-3.4064626693725586,-2.6547014713287354
1663860967059558100,9.92655810546875,4.559320449829102,-3.0805349349975586,-0.9413530826568604
1663860967069415400,9.93641552734375,4.495602607727051,-2.2502641677856445,-0.08946371078491211
1663860967079303200,9.94630322265625,2.1898531913757324,-1.4790806770324707,-0.07474899291992188
1663860967089160200,9.95616015625,0.8556613922119141,-1.0117526054382324,-0.9267177581787109
1663860967099078400,9.966078369140625,-2.8775062561035156,-1.2952642440795898,-2.418828248977661
1663860967108966100,9.975966064453125,-6.304098606109619,-2.210580825805664,-3.504218578338623
1663860967118854000,9.98585400390625,-3.143141746520996,-2.6867966651916504,-3.2012617588043213
1663860967128711000,9.9957109375,-1.9538822174072266,-3.373671531677246,-3.5114359855651855
1663860967138598700,10.0055986328125,-3.7699756622314453,-4.161380290985107,-5.183587551116943
1663860967148486400,10.015486328125,-2.939389228820801,-4.164887428283691,-6.579259872436523
1663860967158374100,10.0253740234375,-1.187819480895996,-3.1285219192504883,-6.856204986572266
1663860967168262000,10.035261962890624,-0.027848243713378906,-2.2659668922424316,-5.406163215637207
1663860967178149400,10.0451494140625,0.7805299758911133,-1.6706061363220215,-1.435333490371704
1663860967188037000,10.055037109375,2.2993154525756836,-0.3876302242279053,0.6632132530212402
1663860967197924900,10.0649248046875,0.19012832641601562,1.0830941200256348,-0.21713781356811523
1663860967207812600,10.0748125,-1.0698356628417969,0.9297153949737549,0.25934290885925293
1663860967217700400,10.084700439453124,1.1852149963378906,0.44541430473327637,2.724769115447998
1663860967227588000,10.094588134765624,3.5168657302856445,0.5719079971313477,4.726516246795654
1663860967237475600,10.1044755859375,5.1214799880981445,-0.8036538362503052,7.972962379455566
1663860967247332900,10.114332763671875,5.621321678161621,-2.37131667137146,6.36924934387207
1663860967257220600,10.124220703125,5.586784362792969,-2.0123066902160645,-3.754162073135376
1663860967267077600,10.13407763671875,6.58217716217041,-0.7852424383163452,-3.415119171142578
1663860967276965400,10.14396533203125,10.716498374938965,-0.545587420463562,4.540377616882324
1663860967286853000,10.15385302734375,13.942621231079102,-0.7278951406478882,4.471417427062988
1663860967296740900,10.163740966796874,11.776839256286621,0.021024316549301147,-0.8378422260284424
1663860967306628600,10.173628662109374,7.872549057006836,0.6136137843132019,-4.074106216430664
1663860967316485600,10.183485595703125,3.5071563720703125,2.9330384731292725,-12.69896125793457
1663860967326403800,10.19340380859375,0.8739528656005859,1.0913156270980835,-2.7181615829467773
1663860967336291600,10.20329150390625,4.860967636108398,-0.8270460367202759,9.825353622436523
1663860967346179300,10.213179443359374,6.695664405822754,0.060040391981601715,1.1293799877166748
1663860967356067000,10.223067138671874,2.260709762573242,1.076723337173462,-5.839465618133545
1663860967365924000,10.232924072265625,0.6127080917358398,0.02137655019760132,0.6566998958587646
1663860967375781400,10.242781494140624,0.7011346817016602,-0.9945534467697144,5.735123157501221
1663860967385699600,10.252699462890625,4.733955383300781,1.4084607362747192,-2.054415225982666
1663860967395556600,10.262556640625,4.39952278137207,0.9420835375785828,-3.264617681503296
1663860967405444400,10.2724443359375,1.7028007507324219,-0.033773988485336304,-1.496391773223877
1663860967415332000,10.28233203125,-0.09263038635253906,0.15351217985153198,-1.634007453918457
1663860967425219800,10.2922197265625,0.8469696044921875,-0.3644758462905884,-0.8912472724914551
1663860967435107600,10.302107666015624,0.5867395401000977,-1.2210335731506348,0.9571106433868408
1663860967444995000,10.3119951171875,0.7231893539428711,-0.5182658433914185,-1.437537431716919
1663860967454852400,10.321852294921875,1.1564445495605469,0.7468917369842529,-4.503489971160889
1663860967464740000,10.331739990234375,0.7411966323852539,0.8108410239219666,-2.0974090099334717
1663860967474627800,10.3416279296875,-0.10002517700195312,-0.7385385036468506,1.6843292713165283
1663860967484515600,10.351515625,0.3266878128051758,-1.5405446290969849,0.3410069942474365
1663860967494403000,10.361403076171875,3.9719295501708984,-1.1411185264587402,-2.4873363971710205
1663860967504260400,10.37126025390625,3.6884765625,-0.1850135326385498,-3.910142183303833
1663860967514148000,10.381148193359374,0.6136445999145508,0.6005713939666748,-5.607011795043945
1663860967524035800,10.391035888671874,1.8328475952148438,0.12021064758300781,-2.916884183883667
1663860967533923300,10.40092333984375,7.148351669311523,0.5850021839141846,0.6251881122589111
1663860967543811000,10.41081103515625,6.95942497253418,2.116177558898926,-1.9411582946777344
1663860967553698800,10.42069873046875,-1.056523323059082,2.4068140983581543,-4.385040283203125
1663860967563556000,10.43055615234375,-3.2743425369262695,0.38393616676330566,0.7746138572692871
1663860967573443600,10.440443603515625,1.2423067092895508,-2.3382110595703125,6.7631330490112305
1663860967583331300,10.450331298828125,5.128171920776367,-1.6846692562103271,0.6344459056854248
1663860967593219000,10.460218994140625,5.011080741882324,-1.3790397644042969,0.5697307586669922
1663860967603106800,10.47010693359375,4.873117446899414,-1.069986343383789,0.5401209592819214
1663860967612994600,10.47999462890625,4.717379570007324,-0.7657279968261719,0.5455167293548584
1663860967622882000,10.489882080078125,4.56657600402832,-0.47031497955322266,0.4920111894607544
1663860967632769800,10.499769775390625,4.423274040222168,-0.19855880737304688,0.40790224075317383
1663860967642657500,10.509657470703125,4.279662132263184,0.043137550354003906,0.35808050632476807
1663860967652545300,10.519545166015625,4.128564834594727,0.2770676612854004,0.32299649715423584
1663860967662433000,10.52943310546875,7.8623552322387695,2.344572067260742,0.34465599060058594
1663860967672290000,10.5392900390625,3.9018611907958984,2.4405112266540527,-2.2624640464782715
1663860967682177800,10.549177734375,-3.743743419647217,1.715789794921875,-5.3285322189331055
1663860967692065500,10.5590654296875,-8.723506927490234,-0.05330514907836914,-7.314755916595459
1663860967701953300,10.568953369140624,-7.946433067321777,-1.7624869346618652,-3.861386299133301
1663860967711810300,10.578810302734375,-2.6822266578674316,-2.398242473602295,3.639749765396118
1663860967721698000,10.588697998046875,5.367661476135254,-4.860791206359863,-0.4808257818222046
1663860967731585800,10.598585693359375,2.388057231903076,-4.403230667114258,-7.153737545013428
1663860967741504000,10.60850390625,-9.806619644165039,-2.106078624725342,-5.025936126708984
1663860967751361300,10.618361328125,-15.108983993530273,-3.6241798400878906,-0.3416339159011841
1663860967761248800,10.628248779296875,-4.210690498352051,-5.602725982666016,0.7633225917816162
1663860967771136500,10.638136474609375,1.4128265380859375,-3.674755096435547,2.465663194656372
1663860967781024300,10.648024169921875,-0.6366734504699707,-1.9063529968261719,0.5409226417541504
1663860967790912000,10.657912109375,-0.9565315246582031,-1.6363606452941895,-3.326388120651245
1663860967800799700,10.6677998046875,-2.8146138191223145,-1.104466438293457,-2.3966827392578125
1663860967810656800,10.67765673828125,-4.331032752990723,-1.6137142181396484,-1.545212745666504
1663860967820544500,10.68754443359375,-5.353390693664551,-2.5471887588500977,-1.8043071031570435
1663860967830432300,10.697432373046874,-5.661215305328369,-2.6618404388427734,-1.1217199563980103
1663860967840289300,10.707289306640625,-4.5070600509643555,-2.2063283920288086,-0.262248158454895
1663860967850177000,10.717177001953125,-1.501716136932373,-1.7000837326049805,-1.3273017406463623
1663860967860095200,10.72709521484375,1.514688491821289,-0.8453941345214844,-3.7418441772460938
1663860967869983000,10.73698291015625,0.7793445587158203,0.38626956939697266,-3.7432291507720947
1663860967879870700,10.74687060546875,-2.9934816360473633,1.2671527862548828,-0.6919881105422974
1663860967889758500,10.756758544921874,-3.939462661743164,0.24472713470458984,-0.5125237703323364
1663860967899646000,10.76664599609375,-4.196321964263916,-1.5432720184326172,-1.3786541223526
1663860967909533700,10.77653369140625,-2.827517509460449,-2.515331745147705,-1.5703874826431274
1663860967919421400,10.78642138671875,-1.030268669128418,-2.4944190979003906,-1.2938928604125977
1663860967929309200,10.79630908203125,1.320174217224121,-1.805802345275879,-2.495863437652588
1663860967939197000,10.806197021484374,2.3522753715515137,0.17258214950561523,-4.685196399688721
1663860967949084700,10.816084716796874,2.060311794281006,2.540032386779785,-4.6541972160339355
1663860967958972200,10.82597216796875,1.7032551765441895,3.338256359100342,-1.7209091186523438
1663860967968829400,10.835829345703125,1.4558391571044922,3.4589786529541016,0.8060698509216309
1663860967978717200,10.84571728515625,3.462090492248535,2.56192684173584,1.0732207298278809
1663860967988605000,10.85560498046875,2.123084545135498,1.2073640823364258,0.4054863452911377
1663860967998492400,10.865492431640625,-3.2394814491271973,0.0535426139831543,0.7564470767974854
1663860968008380200,10.875380126953125,-7.2304205894470215,-2.68076753616333,4.886099815368652
1663860968018237400,10.885237548828124,-3.846301555633545,-5.67401123046875,3.482259750366211
1663860968028094500,10.895094482421875,-2.5174856185913086,-5.6259446144104,-0.46496737003326416
1663860968037982200,10.904982177734375,-2.0074729919433594,-4.281452178955078,-1.6080330610275269
1663860968047870000,10.914869873046875,-2.031087875366211,-2.406015396118164,0.3219015598297119
1663860968057757700,10.9247578125,-2.2766265869140625,-0.4490780830383301,0.8303453922271729
1663860968067614700,10.93461474609375,0.3918585777282715,0.9692020416259766,-1.1007440090179443
1663860968077533000,10.944532958984375,0.6282186508178711,1.501204490661621,-1.036665439605713
1663860968087390200,10.95439013671875,-0.6820783615112305,1.861250400543213,0.025571107864379883
1663860968097308400,10.964308349609375,-0.4197578430175781,1.9471921920776367,0.05867767333984375
1663860968107196200,10.974196044921875,0.07325267791748047,1.0387792587280273,-0.3968348503112793
1663860968117084000,10.984083984375,-0.0011577606201171875,0.1303701400756836,-0.9482119083404541
1663860968126971400,10.993971435546875,1.329965591430664,-0.3325824737548828,-2.5041611194610596
1663860968136859100,11.003859130859375,1.8703842163085938,-0.2539210319519043,-1.584291696548462
1663860968146747000,11.013746826171875,1.534881591796875,-0.2506260871887207,0.19796109199523926
1663860968156634600,11.023634521484375,1.746877670288086,-0.7224040031433105,-0.16556644439697266
1663860968166492000,11.033491943359374,1.9081611633300781,-0.9223475456237793,-3.143244981765747
1663860968176379400,11.04337939453125,-1.0671358108520508,-0.5641498565673828,-1.509455919265747
1663860968186267100,11.05326708984375,-2.5448198318481445,-0.6147050857543945,2.319084644317627
1663860968196124400,11.06312451171875,-0.8166170120239258,-1.0426855087280273,0.9581944942474365
1663860968205981400,11.0729814453125,-1.1538763046264648,-2.019949436187744,0.007317781448364258
1663860968215899600,11.082899658203125,-0.2930154800415039,-2.214256763458252,0.20243358612060547
1663860968225757000,11.0927568359375,0.608464241027832,-2.2832882404327393,-0.7273845672607422
1663860968235675100,11.102675048828125,-1.0183658599853516,-2.497857093811035,0.028745174407958984
1663860968245563000,11.11256298828125,-2.327993392944336,-2.739189624786377,0.922935962677002
1663860968255450600,11.12245068359375,-0.9039430618286133,-2.4201974868774414,-0.46277523040771484
1663860968265307600,11.1323076171875,0.5771732330322266,-1.4049568176269531,-1.5122926235198975
1663860968275195400,11.1421953125,0.6302270889282227,-1.5367586612701416,0.9732246398925781
1663860968285083100,11.152083251953124,3.8989362716674805,-2.0225532054901123,0.40532898902893066
1663860968294971000,11.161970947265624,3.1071367263793945,-1.0235668420791626,-2.4104816913604736
1663860968304858400,11.1718583984375,2.167473793029785,-0.9912751913070679,-0.661872386932373
1663860968314746000,11.18174609375,3.529550552368164,-0.5676673650741577,-1.3109116554260254
1663860968324633900,11.1916337890625,1.6900453567504883,-0.637723445892334,-1.043973684310913
1663860968334521600,11.201521484375,2.8939571380615234,-1.3768250942230225,-1.1876778602600098
1663860968344378600,11.211378662109375,3.2363624572753906,-0.7586501836776733,-2.968355178833008
1663860968354266400,11.221266357421875,2.472259521484375,-0.5256639719009399,-1.901085615158081
1663860968364123600,11.23112353515625,3.0569934844970703,-1.848448634147644,0.7613914012908936
1663860968374041900,11.241041748046875,3.9264965057373047,-2.856149673461914,1.651834487915039
1663860968383899100,11.250899169921874,5.883011817932129,-2.248530864715576,-0.5941765308380127
1663860968393786600,11.26078662109375,7.067925453186035,-0.8399595022201538,-0.6210012435913086
1663860968403674400,11.27067431640625,6.659887313842773,-0.11328145861625671,1.119811773300171
1663860968413562000,11.28056201171875,7.025371551513672,1.7446171045303345,-2.409972906112671
1663860968423419400,11.29041943359375,4.819709777832031,3.0613582134246826,-1.0009968280792236
1663860968433337600,11.300337646484374,6.512709617614746,1.9341518878936768,1.5126771926879883
1663860968443225000,11.31022509765625,5.345307350158691,1.5148900747299194,2.759190320968628
1663860968453112800,11.32011279296875,7.670896530151367,0.15889546275138855,4.204730987548828
1663860968462970000,11.32997021484375,8.406471252441406,2.8754940032958984,-4.377951145172119
1663860968472857900,11.33985791015625,3.2397537231445312,3.1871931552886963,-1.5048208236694336
1663860968482715000,11.34971484375,2.57132625579834,-0.24517123401165009,6.207453727722168
1663860968492602600,11.3596025390625,3.284609794616699,-0.9363412261009216,2.3308753967285156
1663860968502520800,11.369520751953125,1.628331184387207,2.0167479515075684,-4.739988327026367
1663860968512408600,11.37940869140625,0.28534984588623047,0.3510122001171112,1.6929600238800049
1663860968522296300,11.38929638671875,0.13324642181396484,-2.8631033897399902,4.328614234924316
1663860968532183800,11.399183837890625,-0.7066812515258789,-1.7861658334732056,-4.549829959869385
1663860968542071600,11.409071533203125,-2.716524124145508,-1.0424749851226807,-5.124154090881348
1663860968551959300,11.418959228515625,-1.1299333572387695,-2.2804532051086426,-0.1614217758178711
1663860968561816600,11.428816650390624,0.15423011779785156,-0.958528995513916,-2.7073206901550293
1663860968571673600,11.438673583984375,0.3995532989501953,-0.24279284477233887,-3.03312349319458
1663860968581591800,11.448591796875,3.9455718994140625,-0.4632072448730469,0.11746954917907715
1663860968591479600,11.4584794921875,5.594586372375488,0.3385787010192871,-0.5476360321044922
1663860968601367300,11.4683671875,1.507608413696289,1.0214581489562988,-4.396297454833984
1663860968611224300,11.478224365234375,1.2452421188354492,0.10595107078552246,-3.003643274307251
1663860968621112000,11.488112060546875,5.386310577392578,-0.36249470710754395,0.06496930122375488
1663860968630969300,11.49796923828125,6.708112716674805,0.36399269104003906,1.6270828247070312
1663860968640887600,11.507887451171875,5.161245346069336,1.0662305355072021,0.33567261695861816
1663860968650775300,11.517775390625,0.9084072113037109,-0.16996169090270996,-0.3794717788696289
1663860968660663000,11.5276630859375,-0.24396896362304688,-0.37353515625,-1.3042466640472412
1663860968670550500,11.537550537109375,0.7381620407104492,-0.42968034744262695,-2.83945894241333
1663860968680438300,11.547438232421875,0.16456985473632812,-0.9899101257324219,0.6336948871612549
1663860968690295600,11.557295654296874,2.2321224212646484,-0.8176455497741699,2.9027862548828125
1663860968700183300,11.567183349609374,3.1520395278930664,-0.17513513565063477,-2.2262179851531982
1663860968710040300,11.577040283203125,0.24602413177490234,-0.5960807800292969,-4.129443168640137
1663860968719958500,11.58695849609375,-1.8235902786254883,-0.6536436080932617,-3.5277607440948486
1663860968729846300,11.59684619140625,-1.8219184875488281,-0.4392380714416504,-4.1089348793029785
1663860968739703600,11.60670361328125,-1.689483642578125,-1.1995534896850586,-5.616988182067871
1663860968749591000,11.616591064453125,-5.825217247009277,-2.6026124954223633,-3.2049379348754883
1663860968759478800,11.626478759765625,-6.734745025634766,-4.7509918212890625,-3.0268890857696533
1663860968769366500,11.636366455078125,-3.211966037750244,-6.2005743980407715,-4.562640190124512
1663860968779254300,11.646254150390625,-4.711126327514648,-6.354278087615967,-1.996175765991211
1663860968789111300,11.656111328125,-5.832342624664307,-6.006303787231445,-1.6077367067337036
1663860968799029500,11.666029541015625,-2.139986991882324,-4.689454078674316,-3.817187786102295
1663860968808917200,11.675917236328125,-3.369563579559326,-2.7972002029418945,-2.063138961791992
1663860968818774500,11.6857744140625,-6.593092441558838,-1.237658977508545,0.2877945899963379
1663860968828631600,11.695631591796875,-3.804358959197998,-0.7837567329406738,-0.6497437953948975
1663860968838549800,11.7055498046875,-2.8958306312561035,-0.7208356857299805,0.9721673727035522
1663860968848437500,11.7154375,-2.782233715057373,-1.1366586685180664,1.4253544807434082
1663860968858325200,11.7253251953125,-0.9965734481811523,-2.0357608795166016,-0.7497994899749756
1663860968868182500,11.7351826171875,-2.4380130767822266,-2.7801733016967773,0.23755764961242676
1663860968878070300,11.7450703125,-3.1103153228759766,-3.57183837890625,-1.0042780637741089
1663860968887927300,11.75492724609375,-3.884108066558838,-3.635561943054199,-1.9550124406814575
1663860968897845500,11.764845458984375,-5.380741596221924,-3.700993537902832,-0.5416598320007324
1663860968907733200,11.774733154296875,-5.063210964202881,-3.661294460296631,-1.1512799263000488
1663860968917621000,11.78462109375,-4.462052822113037,-3.5030784606933594,-0.895971417427063
1663860968927478000,11.79447802734375,-2.401641845703125,-3.529345989227295,-1.8181325197219849
1663860968937365800,11.80436572265625,0.31109094619750977,-2.5483736991882324,-4.89450216293335
1663860968947253500,11.81425341796875,-1.2096872329711914,-1.3061084747314453,-2.136890172958374
1663860968957110800,11.82411083984375,0.37602710723876953,-1.0546703338623047,-2.72983980178833
1663860968966998300,11.833998291015625,1.9900918006896973,0.4733552932739258,-4.996966361999512
1663860968976916500,11.84391650390625,-0.346560001373291,1.4711298942565918,-1.3055013418197632
1663860968986804200,11.85380419921875,0.0054187774658203125,0.7725629806518555,0.577417254447937
1663860968996692000,11.86369189453125,2.3538308143615723,0.6686797142028809,-2.339056968688965
1663860969006579700,11.873579833984374,0.006544589996337891,1.337226390838623,0.12206709384918213
1663860969016467500,11.883467529296874,-0.3451046943664551,0.705721378326416,2.1320855617523193
1663860969026355000,11.89335498046875,2.2801618576049805,0.19562911987304688,-1.8833061456680298
1663860969036242700,11.90324267578125,-0.5935578346252441,0.8523039817810059,0.8276523351669312
1663860969046130400,11.91313037109375,-0.46756696701049805,0.06220102310180664,3.238858699798584
1663860969056018200,11.92301806640625,4.384335041046143,-0.3006296157836914,-1.4888951778411865
1663860969065875200,11.932875244140625,1.3550529479980469,1.002516746520996,-0.11821579933166504
1663860969075763000,11.942762939453125,-2.8835225105285645,0.3219776153564453,4.127248287200928
1663860969085620200,11.9526201171875,-1.9462242126464844,-1.708150863647461,2.4750685691833496
1663860969095508000,11.962508056640624,-3.074526786804199,-2.403374195098877,0.9737710952758789
1663860969105395700,11.972395751953124,-4.871598243713379,-2.9505863189697266,0.3308887481689453
1663860969115283200,11.982283203125,-5.809785842895508,-3.0826754570007324,-1.9248037338256836
1663860969125140500,11.992140380859375,-5.933568954467773,-2.456043243408203,-3.3087451457977295
1663860969135058700,12.00205859375,-5.208514213562012,-2.6581406593322754,-2.3293168544769287
1663860969144946400,12.011946533203124,-3.929025650024414,-3.2982778549194336,-1.1356744766235352
1663860969154834200,12.021834228515624,-1.901540756225586,-3.402863025665283,-1.4717247486114502
1663860969164691200,12.031691162109375,0.2847127914428711,-3.3806958198547363,-0.4818744659423828
1663860969174579000,12.041578857421875,2.353130340576172,-2.6723928451538086,1.2591073513031006
1663860969184466700,12.051466796875,1.9067621231079102,-1.9772319793701172,0.8346242904663086
1663860969194354400,12.0613544921875,-1.2211408615112305,-2.479684352874756,4.35250997543335
1663860969204242000,12.071241943359375,2.744478225708008,-3.6616296768188477,4.114876747131348
1663860969214129700,12.081129638671875,3.4102048873901367,-2.6201016902923584,-1.9061987400054932
1663860969223987000,12.090987060546874,-0.3631744384765625,-1.5188755989074707,-0.5697834491729736
1663860969233874700,12.100874755859374,2.5902767181396484,-0.906949520111084,1.6590931415557861
1663860969243762200,12.11076220703125,2.92537784576416,0.7550210952758789,0.45381689071655273
1663860969253619500,12.120619384765625,0.9117403030395508,0.48460888862609863,0.5802264213562012
1663860969263507200,12.130507080078125,1.2201604843139648,-0.7399992942810059,0.975184440612793
1663860969273425400,12.14042529296875,1.9550533294677734,-1.4461647272109985,0.5406346321105957
1663860969283282400,12.150282470703125,2.7381420135498047,-0.620369553565979,-0.7811558246612549
1663860969293200600,12.16020068359375,2.2543678283691406,0.5367590188980103,-0.025265216827392578
1663860969303058000,12.170057861328125,1.2114219665527344,-0.049080491065979004,1.3322551250457764
1663860969312945700,12.179945556640625,0.9325838088989258,-0.8387354016304016,-0.34122681617736816
1663860969322802700,12.189802734375,-0.20321273803710938,-1.5558254718780518,0.9475252628326416
1663860969332721200,12.19972119140625,1.5494890213012695,-3.335538625717163,4.096530437469482
1663860969342608600,12.209608642578125,4.133837699890137,-3.5471949577331543,1.7423787117004395
1663860969352496400,12.219496337890625,3.7593774795532227,-1.6743292808532715,0.6768403053283691
1663860969362384100,12.229384033203125,2.603632926940918,-0.9979565739631653,0.616100549697876
1663860969372241400,12.239241455078124,2.0581178665161133,-1.3013619184494019,0.43995213508605957
1663860969382098400,12.249098388671875,4.042197227478027,-3.0203990936279297,2.8266570568084717
1663860969391986200,12.258986083984375,5.988029479980469,-2.8353283405303955,1.1515846252441406
1663860969401874000,12.2688740234375,3.2328786849975586,-0.10580015182495117,-3.035891056060791
1663860969411792100,12.278792236328124,1.2419910430908203,0.10705870389938354,-2.1568453311920166
1663860969421649200,12.288649169921875,4.380582809448242,0.9136591553688049,-1.386418104171753
1663860969431567400,12.2985673828125,6.54124641418457,0.639695405960083,0.4175987243652344
1663860969441455000,12.308455078125,5.391252517700195,-0.851503849029541,0.5682787895202637
1663860969451342800,12.3183427734375,5.998147010803223,0.66550612449646,-2.083043336868286
1663860969461200100,12.3282001953125,5.123990058898926,1.9640038013458252,-1.4406805038452148
1663860969471057200,12.33805712890625,0.4678678512573242,0.8053572177886963,1.3626186847686768
1663860969480945000,12.34794482421875,3.1526336669921875,-0.9869341254234314,5.563933372497559
1663860969490863000,12.357863037109375,9.921137809753418,-0.26742810010910034,3.0050876140594482
1663860969500750800,12.367750732421875,5.324723243713379,1.1051280498504639,-4.403857231140137
1663860969510608000,12.37760791015625,-0.5520992279052734,-0.25424259901046753,-1.6524813175201416
1663860969520465200,12.387465087890625,4.253218650817871,-0.06309959292411804,1.7456820011138916
1663860969530383400,12.39738330078125,6.3417205810546875,0.021713770925998688,3.1188416481018066
1663860969540271000,12.40727099609375,2.6751136779785156,-0.4528799057006836,-0.34229516983032227
1663860969550128000,12.417128173828125,1.9029550552368164,0.07236319780349731,-3.0689218044281006
1663860969560046600,12.427046630859374,2.919581413269043,-0.5678774118423462,1.8818840980529785
1663860969569903600,12.436903564453125,3.808688163757324,-0.8437577486038208,2.4055049419403076
1663860969579791400,12.446791259765625,3.999227523803711,0.26300978660583496,-1.1834735870361328
1663860969589679000,12.45667919921875,4.180360794067383,0.7871279716491699,0.32030510902404785
1663860969599566800,12.46656689453125,1.4786148071289062,0.396919846534729,0.25179386138916016
1663860969609424000,12.476423828125,-3.1724395751953125,-0.9707763195037842,-1.4856657981872559
1663860969619342000,12.486342041015625,-1.1978340148925781,-2.599364757537842,0.6152510643005371
1663860969629229800,12.496229736328125,1.0826139450073242,-3.1908035278320312,-0.2991788387298584
1663860969639117600,12.50611767578125,-1.3723974227905273,-3.3228766918182373,-1.2583394050598145
1663860969649005300,12.51600537109375,-0.8759622573852539,-3.137615442276001,-1.7429451942443848
1663860969658892800,12.525892822265625,-0.25585365295410156,-3.0060830116271973,-2.4968342781066895
1663860969668750000,12.53575,-0.6836605072021484,-2.958874225616455,-1.1133043766021729
1663860969678607400,12.545607421875,1.8287420272827148,-2.3112711906433105,0.9090309143066406
1663860969688525600,12.555525634765624,4.390799522399902,-1.4193525314331055,0.6721456050872803
1663860969698382600,12.565382568359375,2.488300323486328,-0.6521782875061035,-1.4347646236419678
1663860969708300800,12.57530078125,-1.6036577224731445,-0.4039306640625,-3.100395917892456
1663860969718188500,12.5851884765625,-3.605318069458008,-0.4652824401855469,-1.92478609085083
1663860969728076300,12.595076171875,-2.0996694564819336,-0.41774940490722656,0.21999239921569824
1663860969737964000,12.604964111328124,0.784062385559082,-0.10738325119018555,1.2363016605377197
1663860969747851500,12.6148515625,2.5612049102783203,-0.07380867004394531,1.7284162044525146
1663860969757739300,12.6247392578125,1.738090991973877,-0.6422939300537109,-1.2553400993347168
1663860969767627000,12.634626953125,-1.8473668098449707,-1.1862711906433105,-3.0364198684692383
1663860969777514800,12.6445146484375,-3.747681140899658,-2.1752781867980957,-1.6037700176239014
1663860969787402500,12.654402587890624,-0.17851829528808594,-2.6984686851501465,-2.807629346847534
1663860969797259500,12.664259521484375,0.14157485961914062,-1.6543164253234863,-2.841508388519287
1663860969807147300,12.674147216796875,-1.9170970916748047,-1.411877155303955,-1.471585988998413
1663860969817035000,12.684034912109375,-2.61348819732666,-2.622960090637207,-2.159036874771118
1663860969826922800,12.6939228515625,-4.351169586181641,-3.6707940101623535,-0.37880897521972656
1663860969836810500,12.703810546875,-3.245354175567627,-5.316193103790283,0.09500265121459961
1663860969846698000,12.713697998046875,-1.8790874481201172,-5.509965896606445,-2.656216621398926
1663860969856585700,12.723585693359375,-5.1781721115112305,-4.562700271606445,-0.2698032855987549
