time,seconds_elapsed,z,y,x
1663860957301653000,0.168653076171875,6.2870635986328125,2.5700836181640625,-2.6997528076171875
1663860957311601700,0.1786015625,6.3660736083984375,2.754425048828125,-2.8458099365234375
1663860957321489400,0.188489501953125,9.4234619140625,2.4910736083984375,-2.467529296875
1663860957331346700,0.1983466796875,12.17919921875,1.9140625,-2.2855682373046875
1663860957341234400,0.208234375,12.995620727539062,0.95159912109375,-2.156280517578125
1663860957351091500,0.218091552734375,12.167221069335938,0.5517730712890625,-1.2560577392578125
1663860957360979200,0.227979248046875,10.67083740234375,1.258056640625,-1.100433349609375
1663860957370867000,0.237866943359375,9.533599853515625,1.6315460205078125,-1.924041748046875
1663860957380724000,0.247723876953125,10.309326171875,1.5717010498046875,-2.4292144775390625
1663860957390611700,0.25761181640625,8.949417114257812,1.6195831298828125,-2.2879638671875
1663860957400499500,0.26749951171875,8.300582885742188,1.6722564697265625,-1.6750335693359375
1663860957410387200,0.27738720703125,8.729141235351562,1.827880859375,-0.4755401611328125
1663860957420275000,0.28727490234375,8.870407104492188,2.268402099609375,0.146942138671875
1663860957430162400,0.297162353515625,8.638168334960938,2.615570068359375,0.3600311279296875
1663860957440050200,0.30705029296875,8.829696655273438,2.816680908203125,0.589874267578125
1663860957449938000,0.31693798828125,9.219955444335938,2.9770965576171875,0.3696136474609375
1663860957459825700,0.32682568359375,9.260665893554688,3.0249786376953125,-0.3366851806640625
1663860957469713400,0.33671337890625,8.607040405273438,2.8717498779296875,-0.4635772705078125
1663860957479570400,0.3465703125,8.09228515625,2.7999267578125,0.30975341796875
1663860957489458200,0.356458251953125,8.580703735351562,2.843017578125,0.2977752685546875
1663860957499346000,0.366345947265625,9.58148193359375,2.9938507080078125,-1.2991485595703125
1663860957509233700,0.376233642578125,10.220733642578125,2.89569091796875,-3.4706878662109375
1663860957519121200,0.38612109375,9.981307983398438,2.3857269287109375,-3.552093505859375
1663860957529009000,0.3960087890625,9.330093383789062,1.86138916015625,-1.5002593994140625
1663860957538896600,0.405896728515625,9.23193359375,2.002655029296875,-0.4276580810546875
1663860957548784400,0.415784423828125,8.947021484375,2.8669586181640625,-0.499481201171875
1663860957558641700,0.4256416015625,8.891952514648438,3.724090576171875,-0.137969970703125
1663860957568529200,0.435529052734375,9.174468994140625,3.77197265625,-0.0086822509765625
1663860957578386400,0.445386474609375,10.060317993164062,3.1351165771484375,-0.403717041015625
1663860957588243700,0.45524365234375,10.893508911132812,2.40966796875,-0.803558349609375
1663860957598162000,0.465161865234375,10.634933471679688,2.0696868896484375,-1.0334014892578125
1663860957608049400,0.47504931640625,10.117782592773438,2.045745849609375,-0.784393310546875
1663860957617937200,0.484937255859375,9.636550903320312,2.2851715087890625,-0.667083740234375
1663860957627825000,0.494824951171875,8.875198364257812,2.6562652587890625,-0.351043701171875
1663860957637712600,0.504712646484375,8.180877685546875,3.345794677734375,0.1541290283203125
1663860957647600400,0.514600341796875,7.991729736328125,3.894073486328125,0.4222869873046875
1663860957657488000,0.52448779296875,8.080322265625,3.8557586669921875,0.4390411376953125
1663860957667375600,0.534375732421875,7.654144287109375,3.4990234375,0.0439910888671875
1663860957677263400,0.544263427734375,7.5751495361328125,3.0417327880859375,-0.4276580810546875
1663860957687151000,0.554151123046875,8.29339599609375,2.479095458984375,-0.7819976806640625
1663860957697008000,0.564008056640625,9.0643310546875,2.5916290283203125,-0.832275390625
1663860957706896000,0.573895751953125,9.746688842773438,2.8358306884765625,-0.70538330078125
1663860957716783600,0.58378369140625,9.837661743164062,2.847808837890625,-0.1882476806640625
1663860957726671400,0.59367138671875,9.236724853515625,3.1470794677734375,0.0799102783203125
1663860957736559000,0.60355908203125,8.5447998046875,3.472686767578125,-0.0996551513671875
1663860957746446600,0.613446533203125,8.075531005859375,3.302703857421875,-0.3007659912109375
1663860957756334300,0.623334228515625,7.9749755859375,3.0225830078125,-0.2193603515625
1663860957766191600,0.633191650390625,8.001312255859375,3.144683837890625,0.221160888671875
1663860957776079400,0.643079345703125,7.9462432861328125,3.4008636474609375,0.30975341796875
1663860957785967000,0.652967041015625,7.7618865966796875,3.6067657470703125,0.419891357421875
1663860957795854600,0.6628544921875,8.446624755859375,3.4415740966796875,0.4557952880859375
1663860957805742300,0.672742431640625,9.921463012695312,3.11834716796875,-0.00628662109375
1663860957815630000,0.682630126953125,10.639724731445312,2.7999267578125,-0.2217559814453125
1663860957825487400,0.6924873046875,10.168060302734375,2.6610565185546875,-0.11163330078125
1663860957835374800,0.702374755859375,9.361221313476562,2.768798828125,-0.2073974609375
1663860957845262600,0.7122626953125,8.85125732421875,2.8142852783203125,-0.264862060546875
1663860957855150300,0.722150390625,8.681259155273438,2.89569091796875,-0.0421905517578125
1663860957865007600,0.732007568359375,8.405929565429688,3.2787628173828125,0.6760711669921875
1663860957874864600,0.74186474609375,8.269454956054688,3.6761932373046875,0.9466094970703125
1663860957884782800,0.751782958984375,8.489730834960938,3.5948028564453125,0.5850830078125
1663860957894670600,0.761670654296875,8.8416748046875,3.3433990478515625,0.1972198486328125
1663860957904558300,0.771558349609375,9.38995361328125,3.0680694580078125,-0.01824951171875
1663860957914446000,0.781446044921875,10.081878662109375,2.764007568359375,-0.0948638916015625
1663860957924333600,0.79133349609375,10.409881591796875,2.668243408203125,-0.1451416015625
1663860957934221300,0.80122119140625,10.096237182617188,2.8621673583984375,0.1182098388671875
1663860957944109000,0.811109130859375,9.392333984375,3.3218536376953125,0.8077392578125
1663860957953966300,0.82096630859375,8.5567626953125,3.683380126953125,1.0256195068359375
1663860957963853800,0.830853759765625,8.235946655273438,3.71929931640625,1.1213836669921875
1663860957973711000,0.840711181640625,8.391571044921875,3.7480316162109375,1.3105316162109375
1663860957983598800,0.850598876953125,8.374801635742188,3.6426849365234375,1.0352020263671875
1663860957993445400,0.8604453125,8.231155395507812,3.3098907470703125,0.8556365966796875
1663860958003363600,0.870363525390625,8.738723754882812,2.773590087890625,0.0966644287109375
1663860958013220600,0.880220703125,9.753860473632812,2.2899627685546875,-0.2888031005859375
1663860958023108400,0.8901083984375,10.486495971679688,2.088836669921875,-0.45159912109375
1663860958032996000,0.89999609375,9.533599853515625,2.2971343994140625,-0.1882476806640625
1663860958042883800,0.9098837890625,9.234329223632812,2.7041473388671875,0.62579345703125
1663860958052771300,0.919771240234375,9.500076293945312,3.0153961181640625,1.0567474365234375
1663860958062628600,0.929628662109375,9.035598754882812,2.807098388671875,0.5348052978515625
1663860958072546800,0.939546875,8.621414184570312,2.5150146484375,0.020050048828125
1663860958082434600,0.9494345703125,8.508880615234375,2.7041473388671875,-0.044586181640625
1663860958092322300,0.959322265625,8.595077514648438,2.9723052978515625,0.367218017578125
1663860958102209800,0.969209716796875,8.477752685546875,3.1566619873046875,0.74310302734375
1663860958112097500,0.97909765625,8.31256103515625,3.197357177734375,0.707183837890625
1663860958121954800,0.988954833984375,8.595077514648438,2.9579315185546875,0.4079132080078125
1663860958131842600,0.998842529296875,8.954208374023438,2.7664031982421875,0.221160888671875
1663860958141730300,1.008730224609375,9.1265869140625,2.7975311279296875,0.2762298583984375
1663860958151617800,1.01861767578125,8.9901123046875,3.0082244873046875,0.5180511474609375
1663860958161505500,1.028505615234375,8.59747314453125,3.2572174072265625,0.7024078369140625
1663860958171393300,1.038393310546875,8.463394165039062,3.47747802734375,0.8771820068359375
1663860958181281000,1.048281005859375,8.307769775390625,3.259613037109375,0.9154815673828125
1663860958191168800,1.058168701171875,8.350860595703125,3.1303253173828125,0.6976165771484375
1663860958201056300,1.06805615234375,8.810546875,3.039337158203125,0.580291748046875
1663860958210913500,1.07791357421875,9.109832763671875,2.9363861083984375,0.6904296875
1663860958220801300,1.08780126953125,9.07391357421875,2.8861083984375,0.4989013671875
1663860958230689000,1.09768896484375,8.951812744140625,2.83343505859375,0.3336944580078125
1663860958240576500,1.107576416015625,8.927871704101562,2.8669586181640625,0.472564697265625
1663860958250464300,1.11746435546875,9.08587646484375,2.869354248046875,0.5707244873046875
1663860958260321500,1.127321533203125,9.11700439453125,2.7783660888671875,0.5563507080078125
1663860958270178600,1.137178466796875,9.287002563476562,2.7496490478515625,0.6090240478515625
1663860958280096800,1.1470966796875,9.385162353515625,2.8023223876953125,0.62579345703125
1663860958289984500,1.156984619140625,9.009262084960938,2.8094940185546875,0.60662841796875
1663860958299872300,1.166872314453125,8.817733764648438,2.9244232177734375,0.5659332275390625
1663860958309760000,1.176760009765625,8.896743774414062,2.9363861083984375,0.6712799072265625
1663860958319647700,1.186647705078125,8.92547607421875,3.0034332275390625,0.9250640869140625
1663860958329535200,1.19653515625,9.366012573242188,3.2212982177734375,1.171661376953125
1663860958339423000,1.206423095703125,9.672470092773438,2.933990478515625,1.0160369873046875
1663860958349310700,1.216310791015625,9.617401123046875,2.785552978515625,0.896331787109375
1663860958359198500,1.226198486328125,9.133773803710938,2.89569091796875,0.5731201171875
1663860958369086200,1.236086181640625,8.525634765625,2.6706390380859375,0.419891357421875
1663860958378943200,1.245943115234375,8.046798706054688,2.5652923583984375,0.628173828125
1663860958388831000,1.2558310546875,7.2710723876953125,2.20855712890625,1.0112457275390625
1663860958398718700,1.26571875,6.4666290283203125,1.4376220703125,1.054351806640625
1663860958408606500,1.2756064453125,5.554443359375,0.977935791015625,1.571502685546875
1663860958418494200,1.285494140625,4.5656280517578125,1.0713043212890625,2.3184814453125
1663860958428381700,1.295381591796875,5.3676910400390625,1.104827880859375,2.344818115234375
1663860958438269400,1.30526953125,6.5097198486328125,1.31072998046875,2.957733154296875
1663860958448126700,1.315126708984375,3.8162384033203125,1.5788726806640625,4.81085205078125
1663860958458014500,1.325014404296875,1.76202392578125,1.84942626953125,4.9664764404296875
1663860958467902000,1.33490185546875,5.0923614501953125,2.4910736083984375,2.419036865234375
1663860958477759200,1.34475927734375,7.7930145263671875,1.380157470703125,-0.5545501708984375
1663860958487616500,1.354616455078125,10.567901611328125,0.6523284912109375,-0.623992919921875
1663860958497504000,1.36450390625,9.737106323242188,0.70977783203125,1.8540191650390625
1663860958507361300,1.374361328125,6.66534423828125,-0.104248046875,3.929779052734375
1663860958517279500,1.384279541015625,5.1881256103515625,-1.6772308349609375,3.9800567626953125
1663860958527167200,1.394167236328125,2.5353546142578125,-2.5989990234375,1.741485595703125
1663860958537055000,1.404054931640625,0.921661376953125,-3.3914794921875,-2.0772705078125
1663860958546942500,1.4139423828125,-1.14215087890625,-4.6652069091796875,-4.8641204833984375
1663860958556799700,1.4237998046875,-3.7805633544921875,-6.68829345703125,-3.71490478515625
1663860958566718000,1.433718017578125,-3.78533935546875,-8.191864013671875,-0.3151397705078125
1663860958576575200,1.4435751953125,-2.236297607421875,-9.700210571289062,1.456573486328125
1663860958586462700,1.453462646484375,-2.8683624267578125,-10.504653930664062,1.4541778564453125
1663860958596320000,1.463320068359375,-4.2833404541015625,-11.3785400390625,-0.2672576904296875
1663860958606238200,1.47323828125,-5.38946533203125,-12.558883666992188,-2.5824432373046875
1663860958616126000,1.4831259765625,-6.610504150390625,-13.806259155273438,-4.0883941650390625
1663860958626013700,1.493013671875,-7.074981689453125,-15.800628662109375,-4.006988525390625
1663860958635901400,1.5029013671875,-5.7988739013671875,-17.625015258789062,-1.469146728515625
1663860958645789000,1.512788818359375,-5.090179443359375,-18.228347778320312,3.707122802734375
1663860958655676700,1.5226767578125,-4.656829833984375,-17.680084228515625,9.402923583984375
1663860958665564400,1.532564453125,-4.8076629638671875,-16.863662719726562,13.0301513671875
1663860958675452200,1.5424521484375,-4.0870208740234375,-16.6290283203125,14.399627685546875
1663860958685309200,1.55230908203125,-3.8356170654296875,-16.746337890625,13.810653686523438
1663860958695166500,1.56216650390625,-3.8404083251953125,-16.652969360351562,12.3980712890625
1663860958705054200,1.57205419921875,-3.620147705078125,-16.889999389648438,11.940780639648438
1663860958714942000,1.58194189453125,-3.6871795654296875,-16.933090209960938,13.578414916992188
1663860958724799000,1.591799072265625,-3.15087890625,-16.78704833984375,16.451461791992188
1663860958734686700,1.601686767578125,-0.99371337890625,-16.176528930664062,20.440200805664062
1663860958744605000,1.61160498046875,0.1866302490234375,-15.618667602539062,23.054672241210938
1663860958754492700,1.62149267578125,0.36859130859375,-14.967453002929688,23.452102661132812
1663860958764380400,1.63138037109375,0.9456024169921875,-14.376083374023438,22.829620361328125
1663860958774268000,1.641267822265625,0.6319580078125,-13.902023315429688,22.537521362304688
1663860958784155600,1.65115576171875,-0.0886993408203125,-12.91082763671875,22.74102783203125
1663860958794043400,1.66104345703125,-0.761474609375,-11.665847778320312,24.04107666015625
1663860958803931100,1.67093115234375,-2.3488311767578125,-9.716964721679688,26.689071655273438
1663860958813819000,1.68081884765625,-6.1484222412109375,-6.7792816162109375,30.086441040039062
1663860958823706600,1.69070654296875,-10.151519775390625,-3.597381591796875,32.95948791503906
1663860958833594000,1.700593994140625,-9.8067626953125,-2.191986083984375,31.506195068359375
1663860958843481900,1.71048193359375,-7.1994781494140625,-1.775390625,28.702590942382812
1663860958853339100,1.720339111328125,-8.23138427734375,-0.901519775390625,27.45281982421875
1663860958863227000,1.730226806640625,-8.003921508789062,-0.0539703369140625,24.6204833984375
1663860958873084000,1.740083984375,-8.643173217773438,-0.003692626953125,20.799331665039062
1663860958882971600,1.7499716796875,-10.331085205078125,0.4535980224609375,17.334915161132812
1663860958892829000,1.759828857421875,-10.912887573242188,1.2293243408203125,15.330978393554688
1663860958902747100,1.7697470703125,-13.070053100585938,1.612396240234375,12.869735717773438
1663860958912604200,1.779604248046875,-12.950347900390625,1.157501220703125,9.551376342773438
1663860958922492000,1.789491943359375,-10.730926513671875,0.5014801025390625,7.6767120361328125
1663860958932349200,1.79934912109375,-7.5849456787109375,0.168701171875,7.224212646484375
1663860958942267400,1.809267333984375,-4.723876953125,-0.3508453369140625,5.926544189453125
1663860958952155000,1.81915478515625,-2.6887969970703125,-1.356414794921875,2.9697113037109375
1663860958962042600,1.829042724609375,-1.348052978515625,-4.1432647705078125,-2.874542236328125
1663860958971930400,1.838930419921875,-0.9649810791015625,-4.231842041015625,-2.821868896484375
1663860958981818000,1.848818115234375,-1.00567626953125,-7.7010498046875,-3.6694183349609375
1663860958991705900,1.858705810546875,-1.5587310791015625,-8.182281494140625,-3.066070556640625
1663860959001593300,1.86859326171875,-7.1635589599609375,-0.8105316162109375,6.3670806884765625
1663860959011481000,1.878481201171875,-3.4166412353515625,-2.4577484130859375,8.217803955078125
1663860959021368800,1.888368896484375,1.2424774169921875,-5.04827880859375,3.5610809326171875
1663860959031226000,1.89822607421875,4.2950897216796875,-3.274169921875,4.583404541015625
1663860959041113600,1.908113525390625,8.389175415039062,-5.30206298828125,7.044647216796875
1663860959051001300,1.91800146484375,14.563812255859375,-5.510345458984375,5.545867919921875
1663860959060889000,1.92788916015625,11.942169189453125,-5.4097900390625,7.140411376953125
1663860959070776800,1.93777685546875,3.48583984375,-4.4664764404296875,8.471588134765625
1663860959080664600,1.94766455078125,0.236907958984375,-4.72265625,9.493911743164062
1663860959090552300,1.95755224609375,2.6837921142578125,-6.5590057373046875,7.9999237060546875
1663860959100439800,1.967439697265625,-0.567535400390625,-8.835891723632812,4.7438201904296875
1663860959110327600,1.97732763671875,-3.35198974609375,-11.878936767578125,5.545867919921875
1663860959120215300,1.98721533203125,-2.8085174560546875,-13.669784545898438,4.849151611328125
1663860959130072600,1.997072509765625,-1.8747711181640625,-15.369674682617188,2.026397705078125
1663860959139929600,2.0069296875,-0.3209381103515625,-15.944290161132812,2.2514495849609375
1663860959149817300,2.0168173828125,1.027008056640625,-14.88604736328125,4.688751220703125
1663860959159705000,2.026705078125,-0.5747222900390625,-13.787109375,6.6352386474609375
1663860959169592800,2.0365927734375,-0.9123077392578125,-11.857376098632812,8.514678955078125
1663860959179449900,2.046449951171875,-1.233123779296875,-9.080108642578125,8.938461303710938
1663860959189368000,2.0563681640625,-2.078277587890625,-8.32354736328125,7.499542236328125
1663860959199255800,2.066255859375,-2.8252716064453125,-7.1336212158203125,4.7079010009765625
1663860959209143600,2.0761435546875,-3.8978729248046875,-7.2174224853515625,1.413482666015625
1663860959219031300,2.08603125,-3.610565185546875,-6.95166015625,-1.2105712890625
1663860959228918800,2.095918701171875,-2.913848876953125,-6.81280517578125,0.901123046875
1663860959238776000,2.105776123046875,0.236907958984375,-6.89898681640625,7.08294677734375
1663860959248663800,2.115663818359375,10.76422119140625,-4.7202606201171875,18.0076904296875
1663860959258551600,2.125551513671875,13.160812377929688,-2.941375732421875,17.320556640625
1663860959268439000,2.13543896484375,5.1617889404296875,-3.9277801513671875,9.589675903320312
1663860959278296300,2.14529638671875,-4.4796600341796875,-5.95806884765625,7.0494232177734375
1663860959288184000,2.15518408203125,-10.118011474609375,-9.1806640625,9.412506103515625
1663860959298071800,2.16507177734375,-3.419036865234375,-10.401702880859375,10.70538330078125
1663860959307959600,2.17495947265625,0.9839019775390625,-8.764068603515625,10.870574951171875
1663860959317847000,2.184846923828125,-1.11102294921875,-9.527816772460938,11.50982666015625
1663860959327734800,2.19473486328125,-1.5994415283203125,-10.26763916015625,11.885711669921875
1663860959337622500,2.20462255859375,-0.186859130859375,-9.388961791992188,11.907272338867188
1663860959347510300,2.21451025390625,1.6925811767578125,-8.972366333007812,11.265625
1663860959357367300,2.2243671875,5.0995330810546875,-8.687454223632812,10.245681762695312
1663860959367255000,2.234255126953125,11.140106201171875,-7.188690185546875,10.001480102539062
1663860959377142800,2.244142822265625,12.416213989257812,-4.7082977294921875,7.7461395263671875
1663860959387000000,2.254,12.052291870117188,-3.480072021484375,2.1197662353515625
1663860959396918300,2.263918212890625,-13.556076049804688,-4.5,-5.5440673828125
1663860959406775300,2.273775390625,-23.973251342773438,-8.73773193359375,-6.963836669921875
1663860959416663000,2.2836630859375,-3.905059814453125,-10.50225830078125,-0.0781097412109375
1663860959426550800,2.29355078125,10.048355102539062,-9.168685913085938,6.1492156982421875
1663860959436438500,2.3034384765625,0.2752227783203125,-9.546981811523438,7.118865966796875
1663860959446295600,2.313295654296875,-5.248199462890625,-11.965118408203125,1.40869140625
1663860959456183300,2.323183349609375,4.21368408203125,-9.439239501953125,5.878662109375
1663860959466071000,2.333071044921875,7.6900634765625,-6.9205322265625,7.109283447265625
1663860959475958800,2.342958740234375,-5.248199462890625,-8.51507568359375,0.3073577880859375
1663860959485815800,2.35281591796875,-0.18206787109375,-9.144744873046875,3.4676971435546875
1663860959495734000,2.362734130859375,1.165863037109375,-7.6627349853515625,5.893035888671875
1663860959505621800,2.372621826171875,0.8139190673828125,-9.046585083007812,3.2498321533203125
1663860959515509500,2.382509521484375,1.2760009765625,-9.125595092773438,2.6488800048828125
1663860959525397200,2.392397216796875,0.47393798828125,-8.845474243164062,3.1851959228515625
1663860959535285000,2.402284912109375,-0.33050537109375,-6.70745849609375,3.9944305419921875
1663860959545172500,2.41217236328125,-1.66168212890625,-1.9549560546875,1.6696624755859375
1663860959555060200,2.422060302734375,0.7301177978515625,-2.4481658935546875,-1.608001708984375
1663860959564948000,2.431947998046875,1.642303466796875,-4.473663330078125,-0.190643310546875
1663860959574805200,2.44180517578125,-1.759857177734375,-5.7138671875,3.549102783203125
1663860959584662300,2.451662353515625,-1.632965087890625,-6.740966796875,4.3655242919921875
1663860959594550000,2.461550048828125,0.3805694580078125,-8.539016723632812,3.4413604736328125
1663860959604437800,2.471437744140625,0.3853607177734375,-9.946807861328125,3.7717742919921875
1663860959614325500,2.481325439453125,-0.7973785400390625,-9.891738891601562,6.2832794189453125
1663860959624182500,2.4911826171875,-0.52923583984375,-8.349868774414062,6.5681915283203125
1663860959634070300,2.5010703125,-0.49810791015625,-8.823928833007812,5.2250518798828125
1663860959643958000,2.5109580078125,-1.4366302490234375,-9.12799072265625,4.34637451171875
1663860959653876200,2.520876220703125,-0.4597930908203125,-8.7042236328125,3.6927642822265625
1663860959663733200,2.530733154296875,0.7444915771484375,-6.7433624267578125,2.8595733642578125
1663860959673621000,2.54062109375,0.6989898681640625,-6.4943695068359375,2.7470550537109375
1663860959683508700,2.5505087890625,0.394927978515625,-6.9181365966796875,3.357574462890625
1663860959693396500,2.560396484375,0.5888671875,-7.274871826171875,5.3519439697265625
1663860959703284200,2.5702841796875,-0.0144805908203125,-8.455215454101562,6.7693023681640625
1663860959713141200,2.580141357421875,0.1052398681640625,-8.814346313476562,7.6336212158203125
1663860959723059500,2.5900595703125,-1.855621337890625,-8.555770874023438,5.296875
1663860959732916700,2.599916748046875,-0.3209381103515625,-13.911605834960938,4.7988739013671875
1663860959742804500,2.609804443359375,1.244873046875,-14.64422607421875,4.2170867919921875
1663860959752692000,2.61969189453125,-1.50128173828125,-15.872451782226562,4.1524505615234375
1663860959762579700,2.629579833984375,-0.134185791015625,-14.28271484375,3.3503875732421875
1663860959772467500,2.639467529296875,0.3135223388671875,-12.379318237304688,2.407073974609375
1663860959782355200,2.649355224609375,-0.663299560546875,-10.46875,1.3967132568359375
1663860959792212500,2.65921240234375,-1.1253814697265625,-9.300369262695312,0.927459716796875
1663860959802130700,2.669130615234375,-2.3775482177734375,-8.79998779296875,1.128570556640625
1663860959811987700,2.67898779296875,-0.6800689697265625,-8.747314453125,1.4900970458984375
1663860959821875500,2.68887548828125,0.0741119384765625,-8.373825073242188,1.8971099853515625
1663860959831763200,2.69876318359375,-2.1381378173828125,-5.66357421875,0.8292999267578125
1663860959841651000,2.70865087890625,-0.589080810546875,-0.9853057861328125,-1.33746337890625
1663860959851538400,2.718538330078125,1.5633087158203125,-0.3580322265625,-2.082061767578125
1663860959861426200,2.72842626953125,1.9559478759765625,-3.08502197265625,-1.1339569091796875
1663860959871314000,2.73831396484375,0.1602935791015625,-6.535064697265625,-0.7700347900390625
1663860959881171200,2.748171142578125,0.3446502685546875,-8.38818359375,-1.9599456787109375
1663860959891058700,2.75805859375,-0.265869140625,-9.566131591796875,-2.8146820068359375
1663860959900946400,2.767946533203125,-0.249114990234375,-18.704803466796875,3.3455963134765625
1663860959910834200,2.777834228515625,0.1794586181640625,-32.88804626464844,10.746078491210938
1663860959920722000,2.787721923828125,-1.075103759765625,-26.4356689453125,13.171401977539062
1663860959930579000,2.797578857421875,-2.92822265625,-11.8118896484375,13.152252197265625
1663860959940497200,2.8074970703125,-1.60662841796875,-5.0889739990234375,6.9416961669921875
1663860959950385000,2.817385009765625,5.8321685791015625,-7.0761566162109375,1.877960205078125
1663860959960272600,2.827272705078125,3.7563934326171875,-12.458328247070312,-1.4954833984375
1663860959970160400,2.837160400390625,-1.1996002197265625,-14.5364990234375,-3.5880126953125
1663860959980048100,2.847048095703125,0.1650848388671875,-13.95709228515625,-2.8458099365234375
1663860959989935900,2.856935791015625,-0.103057861328125,-12.257217407226562,-1.0501556396484375
1663860959999823400,2.8668232421875,-0.6537322998046875,-11.79034423828125,-1.5792694091796875
1663860960009711000,2.876711181640625,-0.90032958984375,-11.656265258789062,-3.8824920654296875
1663860960019568400,2.886568359375,-0.873992919921875,-11.4407958984375,-6.1210784912109375
1663860960029456100,2.8964560546875,-1.2091827392578125,-11.761611938476562,-5.4626617431640625
1663860960039343600,2.906343505859375,-1.60662841796875,-12.14947509765625,-3.1115570068359375
1663860960049231400,2.9162314453125,-2.18841552734375,-12.906036376953125,-1.162689208984375
1663860960059119000,2.926119140625,-3.0048370361328125,-13.303482055664062,-0.58807373046875
1663860960069006800,2.9360068359375,-4.52276611328125,-12.324249267578125,0.0320281982421875
1663860960078894600,2.94589453125,-4.3527679443359375,-10.102432250976562,0.3983306884765625
1663860960088751600,2.955751708984375,0.426055908203125,-7.495147705078125,0.134979248046875
1663860960098639400,2.965639404296875,7.09869384765625,-4.2438201904296875,-0.054168701171875
1663860960108527000,2.975527099609375,8.075531005859375,-3.5159759521484375,1.11419677734375
1663860960118414800,2.985414794921875,1.7452545166015625,-6.6045074462890625,1.6002197265625
1663860960128302300,2.99530224609375,-1.5946502685546875,-10.399307250976562,-0.6407470703125
1663860960138190000,3.005190185546875,-0.7542877197265625,-10.768020629882812,-1.1171875
1663860960148077800,3.015077880859375,0.8929290771484375,-10.799148559570312,-0.9232635498046875
1663860960157935000,3.02493505859375,1.280792236328125,-10.5860595703125,-0.784393310546875
1663860960167822600,3.034822509765625,0.8977203369140625,-10.952377319335938,-1.13873291015625
1663860960177680000,3.044679931640625,0.1172027587890625,-11.014617919921875,-1.258453369140625
1663860960187567600,3.054567626953125,-0.4957122802734375,-10.605209350585938,-1.787567138671875
1663860960197455400,3.064455322265625,-0.6848602294921875,-10.231719970703125,-2.589630126953125
1663860960207342800,3.0743427734375,-0.8452606201171875,-10.241302490234375,-3.140289306640625
1663860960217230600,3.084230712890625,-0.93145751953125,-9.915679931640625,-3.0780487060546875
1663860960227118300,3.094118408203125,-0.7399139404296875,-9.585281372070312,-2.6183624267578125
1663860960237006000,3.104006103515625,-0.6273956298828125,-8.479156494140625,-1.6534881591796875
1663860960246893800,3.113893798828125,-0.249114990234375,-3.566253662109375,-0.0565643310546875
1663860960256781600,3.123781494140625,-1.6688690185546875,-5.230224609375,2.0072479248046875
1663860960266669000,3.1336689453125,-3.4286041259765625,-14.172576904296875,3.6305084228515625
1663860960276526300,3.1435263671875,-3.4645233154296875,-19.707962036132812,1.14532470703125
1663860960286414000,3.1534140625,-3.6392974853515625,-17.282638549804688,1.197998046875
1663860960296301800,3.1633017578125,-1.86041259765625,-13.193344116210938,0.472564697265625
1663860960306189300,3.173189208984375,-0.1006622314453125,-10.885330200195312,-0.889739990234375
1663860960316077000,3.1830771484375,0.847442626953125,-9.70977783203125,-1.438018798828125
1663860960325964800,3.19296484375,2.4467620849609375,-9.925262451171875,-1.6056060791015625
1663860960335852500,3.2028525390625,3.097991943359375,-11.78076171875,-1.3135223388671875
1663860960345740300,3.212740234375,-2.1118011474609375,-12.156661987304688,1.18603515625
1663860960355627800,3.222627685546875,-2.0902557373046875,-10.835052490234375,1.56671142578125
1663860960365485000,3.232485107421875,2.2911376953125,-8.646759033203125,-0.224151611328125
1663860960375372800,3.242372802734375,4.3070526123046875,-6.1352386474609375,-2.2927398681640625
1663860960385260500,3.252260498046875,6.1290435791015625,-4.294097900390625,-4.440338134765625
1663860960395148000,3.26214794921875,6.5049285888671875,-2.5583038330078125,-6.1474151611328125
1663860960405035800,3.272035888671875,6.4235382080078125,-5.6851348876953125,-9.09466552734375
1663860960414923500,3.281923583984375,-2.9521636962890625,-13.061660766601562,-14.996383666992188
1663860960424811300,3.291811279296875,-5.2075042724609375,-14.682540893554688,-9.31494140625
1663860960434668300,3.301668212890625,0.667877197265625,-13.669784545898438,0.4031219482421875
1663860960444525600,3.311525634765625,5.4275360107421875,-12.503814697265625,3.0175933837890625
1663860960454413300,3.321413330078125,4.1298828125,-10.406494140625,1.2267303466796875
1663860960464301000,3.331301025390625,2.0038299560546875,-7.7417449951171875,0.0799102783203125
1663860960474158000,3.341157958984375,2.4395751953125,-6.8487091064453125,-2.64947509765625
1663860960484045800,3.3510458984375,1.2424774169921875,-8.057785034179688,-7.2511444091796875
1663860960493933600,3.36093359375,-0.6968231201171875,-9.195022583007812,-9.623794555664062
1663860960503821300,3.3708212890625,-1.0894775390625,-9.882171630859375,-9.52801513671875
1663860960513709000,3.380708984375,-1.1349639892578125,-10.083282470703125,-7.8329315185546875
1663860960523596500,3.390596435546875,-0.852447509765625,-9.563735961914062,-5.5009765625
1663860960533484300,3.400484375,-0.155731201171875,-8.986740112304688,-4.08599853515625
1663860960543341600,3.410341552734375,0.373382568359375,-8.708999633789062,-3.3916778564453125
1663860960553229300,3.420229248046875,0.6989898681640625,-8.79998779296875,-3.054107666015625
1663860960563116800,3.43011669921875,0.6391448974609375,-8.87420654296875,-2.9248199462890625
1663860960573004500,3.440004638671875,0.8354644775390625,-9.20220947265625,-3.180999755859375
1663860960582892300,3.449892333984375,0.7468719482421875,-10.073699951171875,-3.1594390869140625
1663860960592749600,3.45974951171875,0.5242156982421875,-10.13116455078125,-2.90087890625
1663860960602637000,3.469636962890625,1.16107177734375,-9.26446533203125,-2.8889007568359375
1663860960612524800,3.47952490234375,1.7596282958984375,-8.773651123046875,-3.4635162353515625
1663860960622412500,3.48941259765625,1.30950927734375,-8.63238525390625,-3.779541015625
1663860960632300300,3.49930029296875,0.3398590087890625,-8.639572143554688,-3.26239013671875
1663860960642188000,3.50918798828125,0.1387481689453125,-9.197418212890625,-3.288726806640625
1663860960652075500,3.519075439453125,0.689422607421875,-9.408111572265625,-3.2121124267578125
1663860960661963300,3.52896337890625,0.53619384765625,-9.144744873046875,-2.2185211181640625
1663860960671851000,3.53885107421875,0.184234619140625,-9.1495361328125,-1.6750335693359375
1663860960681708300,3.548708251953125,0.435638427734375,-8.943634033203125,-1.7301025390625
1663860960691595800,3.558595703125,-0.0863037109375,-9.609222412109375,-2.4124603271484375
1663860960701483500,3.5684833984375,-0.3329010009765625,-10.81829833984375,-3.2743682861328125
1663860960711371300,3.578371337890625,-0.069549560546875,-10.964340209960938,-3.6550445556640625
1663860960721228500,3.588228515625,-0.68963623046875,-11.352203369140625,-4.208099365234375
1663860960731116300,3.5981162109375,-0.7111968994140625,-11.574859619140625,-3.8130645751953125
1663860960741003800,3.608003662109375,-0.249114990234375,-11.359390258789062,-3.2408447265625
1663860960750891500,3.6178916015625,1.175445556640625,-11.711334228515625,-3.5377349853515625
1663860960760779300,3.627779296875,1.95355224609375,-12.027374267578125,-4.1626129150390625
1663860960770667000,3.6376669921875,2.2312774658203125,-11.421630859375,-4.275146484375
1663860960780554800,3.6475546875,2.5090179443359375,-11.237289428710938,-5.220855712890625
1663860960790442200,3.657442138671875,2.791534423828125,-11.534164428710938,-6.5280914306640625
1663860960800330000,3.667330078125,3.1769866943359375,-11.550918579101562,-7.0356597900390625
1663860960810217700,3.6772177734375,3.8689117431640625,-11.036163330078125,-7.0189056396484375
1663860960820075000,3.687074951171875,4.42437744140625,-10.77520751953125,-7.196075439453125
1663860960829962500,3.69696240234375,4.4267730712890625,-10.492691040039062,-6.86328125
1663860960839850200,3.706850341796875,4.2424163818359375,-10.109619140625,-6.44189453125
1663860960849738000,3.716738037109375,3.837799072265625,-9.573318481445312,-6.3796539306640625
1663860960859595300,3.72659521484375,3.1746063232421875,-9.123199462890625,-6.59991455078125
1663860960869452300,3.736452392578125,2.5353546142578125,-9.192642211914062,-7.4378814697265625
1663860960879370500,3.74637060546875,1.6973724365234375,-9.427261352539062,-7.830535888671875
1663860960889227800,3.756227783203125,-0.1677093505859375,-9.362625122070312,-7.366058349609375
1663860960899146000,3.76614599609375,-2.605010986328125,-9.4344482421875,-6.59991455078125
1663860960909033700,3.77603369140625,-4.517974853515625,-10.461563110351562,-6.3221893310546875
1663860960918921200,3.785921142578125,-5.7845001220703125,-11.847808837890625,-6.0061492919921875
1663860960928809000,3.79580908203125,-6.6775360107421875,-12.755203247070312,-5.972625732421875
1663860960938696700,3.80569677734375,-7.826751708984375,-13.212493896484375,-6.384429931640625
1663860960948584400,3.81558447265625,-8.834716796875,-13.16461181640625,-6.9207305908203125
1663860960958441700,3.825441650390625,-7.59930419921875,-12.194961547851562,-7.70843505859375
1663860960968329200,3.8353291015625,-3.1700286865234375,-9.523040771484375,-8.11065673828125
1663860960978217000,3.845217041015625,1.9918670654296875,-6.5159149169921875,-8.855255126953125
1663860960988074200,3.85507421875,5.61907958984375,-4.49041748046875,-9.765045166015625
1663860960997962000,3.8649619140625,6.6677398681640625,-3.8727264404296875,-10.310928344726562
1663860961007849500,3.874849365234375,5.4850006103515625,-4.557464599609375,-10.832855224609375
1663860961017737200,3.8847373046875,2.971099853515625,-5.73541259765625,-11.517608642578125
1663860961027625000,3.894625,0.7085723876953125,-6.97320556640625,-11.977294921875
1663860961037512700,3.9045126953125,0.1172027587890625,-7.643585205078125,-10.44500732421875
1663860961047400400,3.914400390625,1.5752716064453125,-8.01947021484375,-7.6246337890625
1663860961057288000,3.924287841796875,2.7843475341796875,-8.460006713867188,-5.94390869140625
1663860961067175700,3.93417578125,2.4395751953125,-8.754501342773438,-5.1490325927734375
1663860961077063400,3.9440634765625,1.467529296875,-9.008285522460938,-4.524139404296875
1663860961086920700,3.953920654296875,1.0341796875,-9.013076782226562,-4.5744171142578125
1663860961096839000,3.9638388671875,1.4316253662109375,-8.728164672851562,-4.9167938232421875
1663860961106726400,3.973726318359375,1.3166961669921875,-8.464797973632812,-5.9103851318359375
1663860961116614100,3.9836142578125,0.311126708984375,-8.311569213867188,-7.694061279296875
1663860961126502000,3.993501953125,-0.2802276611328125,-8.227767944335938,-9.662094116210938
1663860961136359200,4.003359130859375,-0.1102447509765625,-8.184677124023438,-11.223114013671875
1663860961146216200,4.01321630859375,-0.5651397705078125,-8.251708984375,-12.276565551757812
1663860961156104000,4.02310400390625,-0.8452606201171875,-8.5797119140625,-13.006790161132812
1663860961166022100,4.033022216796875,-0.3855743408203125,-9.070526123046875,-13.590988159179688
1663860961175910000,4.042909912109375,-0.2946014404296875,-9.041793823242188,-13.071441650390625
1663860961185797600,4.052797607421875,0.2057952880859375,-8.919692993164062,-11.622955322265625
1663860961195685400,4.062685302734375,0.4930877685546875,-9.163909912109375,-9.896728515625
1663860961205572900,4.07257275390625,0.0214385986328125,-9.1495361328125,-8.292617797851562
1663860961215460600,4.082460693359375,0.215362548828125,-8.888565063476562,-7.4259185791015625
1663860961225348400,4.092348388671875,0.457183837890625,-8.436065673828125,-7.30859375
1663860961235236000,4.102236083984375,0.2608489990234375,-8.215805053710938,-6.6837158203125
1663860961245123800,4.112123779296875,0.732513427734375,-8.09368896484375,-6.3652801513671875
1663860961255011300,4.12201123046875,0.93841552734375,-7.8470916748046875,-6.1426239013671875
1663860961264880400,4.13188037109375,0.24169921875,-7.686676025390625,-6.03009033203125
1663860961274737700,4.141737548828125,0.5026702880859375,-7.4304962158203125,-6.4131622314453125
1663860961284625400,4.15162548828125,0.25128173828125,-6.9420928955078125,-6.7028656005859375
1663860961294513000,4.161512939453125,-0.3592376708984375,-6.7529449462890625,-7.58392333984375
1663860961304400600,4.171400634765625,-0.05517578125,-6.819976806640625,-7.9837646484375
1663860961314258000,4.1812578125,-0.33050537109375,-6.860687255859375,-8.060379028320312
1663860961324145700,4.191145751953125,-0.69921875,-6.767303466796875,-7.940673828125
1663860961334002700,4.201002685546875,-0.2371368408203125,-6.606903076171875,-7.6006927490234375
1663860961343921000,4.2109208984375,-0.414306640625,-6.0993194580078125,-7.282257080078125
1663860961353808600,4.22080859375,-1.0391998291015625,-5.330780029296875,-6.690887451171875
1663860961363696400,4.2306962890625,-1.5108489990234375,-4.7202606201171875,-6.499359130859375
1663860961373584100,4.240584228515625,-1.9370269775390625,-4.1265106201171875,-5.6877288818359375
1663860961383410700,4.25041064453125,-1.66168212890625,-3.597381591796875,-4.9503021240234375
1663860961393298400,4.26029833984375,-1.635345458984375,-2.9485626220703125,-5.4363250732421875
1663860961403186200,4.270186279296875,-2.0064544677734375,-1.9573516845703125,-6.171356201171875
1663860961413074000,4.280073974609375,-2.320098876953125,-1.626953125,-6.42034912109375
1663860961422961400,4.28996142578125,-2.59063720703125,-2.2997283935546875,-6.762725830078125
1663860961432849200,4.29984912109375,-1.850830078125,-2.7498321533203125,-6.99017333984375
1663860961442706400,4.30970654296875,-1.264251708984375,-2.5894317626953125,-7.2583160400390625
1663860961452594200,4.31959423828125,-1.549163818359375,-2.7426605224609375,-7.93109130859375
1663860961462481700,4.329481689453125,-1.4677581787109375,-3.046722412109375,-8.220794677734375
1663860961472369400,4.339369384765625,-0.909912109375,-2.8815155029296875,-7.5576019287109375
1663860961482287600,4.34928759765625,-0.7423095703125,-2.60858154296875,-6.9375
1663860961492175400,4.35917529296875,-1.1301727294921875,-2.54632568359375,-7.1098785400390625
1663860961502032600,4.36903271484375,-1.7382965087890625,-2.560699462890625,-7.27508544921875
1663860961511920000,4.378920166015625,-2.6552886962890625,-2.4792938232421875,-7.0859375
1663860961521808000,4.388807861328125,-3.5435333251953125,-2.34521484375,-6.59991455078125
1663860961531695600,4.398695556640625,-4.21630859375,-2.464935302734375,-6.1019134521484375
1663860961541583400,4.408583251953125,-4.24981689453125,-2.814483642578125,-6.0061492919921875
1663860961551471000,4.41847119140625,-3.4381866455078125,-2.8503875732421875,-5.9103851318359375
1663860961561328000,4.428328125,-2.3488311767578125,-2.6325225830078125,-5.8265838623046875
1663860961571216000,4.4382158203125,-1.4102935791015625,-2.591827392578125,-5.9415130615234375
1663860961581103600,4.448103515625,-0.620208740234375,-2.792938232421875,-6.1138916015625
1663860961590991400,4.457991455078125,-0.917083740234375,-3.0084075927734375,-5.9893951416015625
1663860961600879000,4.467879150390625,-2.54754638671875,-3.2885284423828125,-6.0372772216796875
1663860961610736000,4.477736083984375,-3.641693115234375,-3.755401611328125,-6.2288055419921875
1663860961620624000,4.487623779296875,-3.325653076171875,-4.2438201904296875,-6.5759735107421875
1663860961630511600,4.49751171875,-1.8436431884765625,-4.928558349609375,-7.2511444091796875
1663860961640399400,4.5073994140625,-0.301788330078125,-5.8024444580078125,-7.9909515380859375
1663860961650317600,4.517317626953125,-0.4047393798828125,-6.592529296875,-8.716384887695312
1663860961660174600,4.527174560546875,-1.276214599609375,-7.4137420654296875,-9.614212036132812
1663860961670062300,4.537062255859375,-2.6672515869140625,-8.043411254882812,-10.02362060546875
1663860961679950000,4.5469501953125,-3.9553375244140625,-8.553390502929688,-9.839263916015625
1663860961689807000,4.55680712890625,-3.483673095703125,-9.283615112304688,-9.712371826171875
1663860961699694800,4.56669482421875,-1.78619384765625,-9.975540161132812,-9.702804565429688
1663860961709613000,4.576613037109375,-1.0176544189453125,-10.404098510742188,-9.851242065429688
1663860961719500800,4.586500732421875,-1.1660919189453125,-10.538177490234375,-10.421066284179688
1663860961729388500,4.596388427734375,-1.2379150390625,-10.317916870117188,-11.156082153320312
1663860961739276300,4.6062763671875,-0.7925872802734375,-9.975540161132812,-12.013198852539062
1663860961749163800,4.616163818359375,-0.68963623046875,-9.599655151367188,-12.810470581054688
1663860961759051500,4.626051513671875,-1.3360748291015625,-9.242919921875,-13.3826904296875
1663860961768939300,4.635939208984375,-1.4414215087890625,-9.20220947265625,-13.356353759765625
1663860961778827000,4.645826904296875,-1.3887481689453125,-9.204605102539062,-12.542327880859375
1663860961788684300,4.655684326171875,-0.0791168212890625,-9.044189453125,-11.589431762695312
1663860961798541300,4.665541259765625,0.1962127685546875,-8.969970703125,-11.247055053710938
1663860961808429000,4.675428955078125,0.162689208984375,-8.673095703125,-11.407470703125
1663860961818316800,4.68531689453125,0.9096832275390625,-7.87103271484375,-11.563095092773438
1663860961828173800,4.695173828125,0.5816802978515625,-6.8535003662109375,-11.553512573242188
1663860961838092000,4.705092041015625,1.7835693359375,-5.1799468994140625,-10.643722534179688
1663860961847979800,4.714979736328125,4.0939788818359375,-3.427398681640625,-9.592666625976562
1663860961857867500,4.724867431640625,4.769134521484375,-2.4577484130859375,-8.208816528320312
1663860961867724800,4.734724853515625,1.888916015625,-3.0491180419921875,-7.5384368896484375
1663860961877612300,4.7446123046875,-1.1014404296875,-4.1839599609375,-8.182479858398438
1663860961887500000,4.7545,-2.858795166015625,-4.727447509765625,-9.257476806640625
1663860961897357300,4.764357421875,-3.5004425048828125,-4.420989990234375,-8.996505737304688
1663860961907275500,4.774275634765625,-3.2059478759765625,-3.4465484619140625,-7.4905548095703125
1663860961917163300,4.784163330078125,-2.722320556640625,-2.1728363037109375,-5.843353271484375
1663860961927020300,4.794020263671875,-2.2506561279296875,-1.081085205078125,-4.7515869140625
1663860961936938500,4.8039384765625,-1.9801177978515625,-0.5615386962890625,-4.8952484130859375
1663860961946826200,4.813826171875,-2.5451507568359375,-0.8249053955078125,-6.2383880615234375
1663860961956714000,4.8237138671875,-2.8204803466796875,-1.4473876953125,-7.418731689453125
1663860961966601700,4.833601806640625,-1.6042327880859375,-1.614990234375,-7.3397216796875
1663860961976489200,4.8434892578125,0.2536773681640625,-1.7825775146484375,-6.2216339111328125
1663860961986377000,4.853376953125,0.7133636474609375,-2.4505615234375,-5.4267578125
1663860961996264700,4.8632646484375,-1.0272216796875,-3.5351409912109375,-5.8481292724609375
1663860962006122000,4.8731220703125,-3.5291595458984375,-4.6508331298828125,-6.4011993408203125
1663860962016009700,4.883009765625,-5.67437744140625,-5.371490478515625,-6.578369140625
1663860962025897200,4.892897216796875,-6.916961669921875,-5.795257568359375,-6.7603302001953125
1663860962035785000,4.902784912109375,-6.6296539306640625,-6.2238311767578125,-7.07635498046875
1663860962045642200,4.912642333984375,-6.1963043212890625,-6.2262115478515625,-7.2583160400390625
1663860962055530000,4.922530029296875,-6.0382843017578125,-6.06341552734375,-7.3397216796875
1663860962065387000,4.932386962890625,-5.839569091796875,-6.333953857421875,-7.2894439697265625
1663860962075305200,4.94230517578125,-4.68316650390625,-7.2772674560546875,-7.988555908203125
1663860962085162500,4.95216259765625,-3.093414306640625,-7.674713134765625,-9.310150146484375
1663860962095019500,4.96201953125,-0.7279510498046875,-7.0713653564453125,-10.614990234375
1663860962104937700,4.971937744140625,1.261627197265625,-6.281280517578125,-11.050735473632812
1663860962114825500,4.981825439453125,0.1435394287109375,-5.9293365478515625,-10.842437744140625
1663860962124713200,4.991713134765625,-3.7542266845703125,-7.7154083251953125,-11.800125122070312
1663860962134601000,5.00160107421875,-6.5003662109375,-10.109619140625,-11.907852172851562
1663860962144488700,5.01148876953125,-8.446853637695312,-11.112777709960938,-10.940597534179688
1663860962154376200,5.021376220703125,-9.42608642578125,-10.938003540039062,-9.628585815429688
1663860962164264000,5.031263916015625,-7.613677978515625,-10.20538330078125,-7.70843505859375
1663860962174151700,5.041151611328125,-5.58099365234375,-8.94842529296875,-6.298248291015625
1663860962184039400,5.051039306640625,-4.95611572265625,-7.2700958251953125,-5.9582672119140625
1663860962193927200,5.06092724609375,-4.0247650146484375,-5.9437103271484375,-5.8960113525390625
1663860962203814700,5.070814697265625,-3.134124755859375,-4.823211669921875,-5.8672943115234375
1663860962213702400,5.080702392578125,-3.7015533447265625,-4.040313720703125,-6.118682861328125
1663860962223590100,5.090590087890625,-3.979278564453125,-3.95172119140625,-6.161773681640625
1663860962233447400,5.100447509765625,-4.05828857421875,-4.3395843505859375,-6.0013580322265625
1663860962243304400,5.110304443359375,-4.539520263671875,-5.06982421875,-6.087554931640625
1663860962253192200,5.120192138671875,-4.8387908935546875,-5.7378082275390625,-5.9654541015625
1663860962263080000,5.130079833984375,-5.121307373046875,-6.0993194580078125,-6.2551422119140625
1663860962272967700,5.1399677734375,-5.2458038330078125,-6.2980499267578125,-7.0548095703125
1663860962282855400,5.14985546875,-4.9225921630859375,-6.2046661376953125,-7.629425048828125
1663860962292712400,5.15971240234375,-4.21868896484375,-5.8383636474609375,-7.768280029296875
1663860962302600200,5.16960009765625,-3.9361724853515625,-5.3858489990234375,-7.6964569091796875
1663860962312488000,5.179488037109375,-4.1564483642578125,-4.897430419921875,-7.49774169921875
1663860962322375700,5.189375732421875,-4.4413604736328125,-4.6244964599609375,-7.4163360595703125
1663860962332263200,5.19926318359375,-4.5945892333984375,-4.72265625,-7.4211273193359375
1663860962342151000,5.20915087890625,-4.963287353515625,-4.95489501953125,-7.4043731689453125
1663860962352008200,5.21900830078125,-5.6049346923828125,-5.06982421875,-7.2846527099609375
1663860962361896000,5.22889599609375,-6.1436309814453125,-5.0985565185546875,-7.2535247802734375
1663860962371783400,5.238783447265625,-6.2106781005859375,-5.1991119384765625,-7.3732452392578125
1663860962381671200,5.248671142578125,-5.8730926513671875,-5.4169769287109375,-7.5863189697265625
1663860962391559000,5.258558837890625,-5.4134063720703125,-5.5534515380859375,-7.9191131591796875
1663860962401446700,5.26844677734375,-4.9034423828125,-5.498382568359375,-8.046005249023438
1663860962411303700,5.2783037109375,-3.9337921142578125,-5.108123779296875,-7.524078369140625
1663860962421191400,5.28819140625,-2.4972686767578125,-4.29888916015625,-6.743560791015625
1663860962431079200,5.2980791015625,-0.78302001953125,-3.2885284423828125,-5.9151763916015625
1663860962440967000,5.307966796875,0.1363525390625,-2.6061859130859375,-5.5249176025390625
1663860962450854700,5.317854736328125,-0.6226043701171875,-2.47210693359375,-5.7882843017578125
1663860962460742100,5.3277421875,-1.9441986083984375,-3.4297943115234375,-6.7507476806640625
1663860962470630000,5.3376298828125,-1.9226531982421875,-4.4664764404296875,-7.768280029296875
1663860962480487200,5.347487060546875,-2.0112457275390625,-4.748992919921875,-8.630203247070312
1663860962490375000,5.357375,-3.926605224609375,-4.8184356689453125,-9.53759765625
1663860962500262700,5.3672626953125,-5.9425201416015625,-5.4600677490234375,-9.75787353515625
1663860962510150100,5.377150146484375,-6.72064208984375,-6.554229736328125,-8.144180297851562
1663860962520007400,5.38700732421875,-6.474029541015625,-7.72259521484375,-6.7148284912109375
1663860962529895200,5.396895263671875,-5.9066009521484375,-8.4935302734375,-6.5711822509765625
1663860962539783000,5.406782958984375,-6.10772705078125,-9.048980712890625,-7.4785919189453125
1663860962549670400,5.41667041015625,-7.5011444091796875,-9.070526123046875,-8.697235107421875
1663860962559558100,5.42655810546875,-8.983154296875,-8.661117553710938,-9.077911376953125
1663860962569446000,5.43644580078125,-10.474746704101562,-8.222976684570312,-8.845672607421875
1663860962579333600,5.446333740234375,-11.087661743164062,-7.9213104248046875,-8.474578857421875
1663860962589190700,5.456190673828125,-10.666275024414062,-7.485565185546875,-8.51287841796875
1663860962599108900,5.46610888671875,-10.378982543945312,-7.145599365234375,-9.63336181640625
1663860962608996600,5.47599658203125,-11.01104736328125,-7.1815032958984375,-10.219940185546875
1663860962618884400,5.48588427734375,-7.9249267578125,-5.816802978515625,-9.753082275390625
1663860962628772000,5.495772216796875,-5.3918609619140625,-3.4154205322265625,-8.400360107421875
1663860962638629000,5.505629150390625,-6.2370147705078125,-2.3571929931640625,-6.214447021484375
1663860962648516900,5.515516845703125,-7.6016998291015625,-3.3771209716796875,-4.672576904296875
1663860962658374100,5.5253740234375,-7.323974609375,-4.710693359375,-3.72686767578125
1663860962668292400,5.535292236328125,-5.20989990234375,-5.2996673583984375,-2.7667999267578125
1663860962678180000,5.54518017578125,-2.073486328125,-4.9980010986328125,-2.5393524169921875
1663860962688067600,5.555067626953125,-1.4773406982421875,-4.411407470703125,-3.5161895751953125
1663860962697955300,5.564955322265625,-2.913848876953125,-4.1097412109375,-4.576812744140625
1663860962707843000,5.574843017578125,-4.2522125244140625,-4.5454864501953125,-5.2495880126953125
1663860962717730800,5.584730712890625,-4.7549896240234375,-5.510345458984375,-5.34295654296875
1663860962727618600,5.59461865234375,-5.2290496826171875,-6.7529449462890625,-5.6350555419921875
1663860962737506300,5.60450634765625,-5.68634033203125,-7.9955291748046875,-5.6350555419921875
1663860962747393800,5.614393798828125,-5.71746826171875,-9.226150512695312,-5.3190155029296875
1663860962757281500,5.624281494140625,-6.399810791015625,-10.554931640625,-5.050872802734375
1663860962767169300,5.634169189453125,-7.1252593994140625,-12.092010498046875,-5.177764892578125
1663860962777026600,5.644026611328125,-6.2920684814453125,-13.315444946289062,-6.082763671875
1663860962786914000,5.6539140625,-6.2106781005859375,-13.748794555664062,-6.8991851806640625
1663860962796801800,5.6638017578125,-7.0510406494140625,-13.392059326171875,-6.4442901611328125
1663860962806659000,5.6736591796875,-6.3902435302734375,-12.55169677734375,-5.934326171875
1663860962816516000,5.68351611328125,-5.5618438720703125,-11.498245239257812,-5.4602813720703125
1663860962826434300,5.693434326171875,-5.2817230224609375,-10.377761840820312,-5.07958984375
1663860962836322000,5.703322021484375,-3.06707763671875,-9.439239501953125,-5.02691650390625
1663860962846209800,5.713209716796875,-2.3081207275390625,-8.534225463867188,-5.3764801025390625
1663860962856097500,5.72309765625,-4.75738525390625,-8.036239624023438,-5.050872802734375
1663860962865954600,5.73295458984375,-3.87872314453125,-8.297210693359375,-4.0764312744140625
1663860962875842300,5.74284228515625,0.0381927490234375,-8.66351318359375,-3.868133544921875
1663860962885699600,5.752699462890625,-1.9753265380859375,-8.888565063476562,-4.344573974609375
1663860962895617800,5.76261767578125,-5.5307159423828125,-9.4344482421875,-4.9503021240234375
1663860962905505500,5.772505615234375,-3.1939697265625,-9.88934326171875,-5.211273193359375
1663860962915393000,5.78239306640625,-0.1844635009765625,-9.614013671875,-5.0388946533203125
1663860962925280800,5.79228076171875,-0.905120849609375,-9.290802001953125,-4.8162384033203125
1663860962935168500,5.80216845703125,-2.66485595703125,-9.410507202148438,-4.7755279541015625
1663860962945056300,5.81205615234375,-3.794921875,-9.774429321289062,-4.4738616943359375
1663860962954944000,5.821944091796875,-2.57867431640625,-10.238906860351562,-4.35894775390625
1663860962964831700,5.831831787109375,-0.4071197509765625,-10.377761840820312,-4.3350067138671875
1663860962974719200,5.84171923828125,-0.852447509765625,-10.286788940429688,-4.6175079345703125
1663860962984576500,5.851576416015625,-3.1484832763671875,-10.411285400390625,-5.2352142333984375
1663860962994464300,5.86146435546875,-3.4022674560546875,-10.590850830078125,-5.421966552734375
1663860963004352000,5.87135205078125,-2.3033294677734375,-10.655487060546875,-5.2759246826171875
1663860963014239500,5.881239501953125,-3.038360595703125,-10.7344970703125,-5.5871734619140625
1663860963024127200,5.891127197265625,-3.6919708251953125,-10.8829345703125,-6.1019134521484375
1663860963034015000,5.901014892578125,-3.1197509765625,-10.729705810546875,-6.022918701171875
1663860963043902700,5.91090283203125,-2.2410888671875,-10.41607666015625,-5.6805419921875
1663860963053790500,5.92079052734375,-1.877166748046875,-10.171859741210938,-5.6206817626953125
1663860963063678000,5.930677978515625,-1.762237548828125,-9.88934326171875,-5.5345001220703125
1663860963073535200,5.94053515625,-1.925048828125,-9.398529052734375,-5.084381103515625
1663860963083392500,5.950392578125,-1.8484344482421875,-8.838287353515625,-4.6031494140625
1663860963093280000,5.960280029296875,-0.984130859375,-8.424102783203125,-4.406829833984375
1663860963103137300,5.97013720703125,-0.4765625,-8.160736083984375,-4.05487060546875
1663860963113055500,5.980055419921875,-0.8859710693359375,-8.01947021484375,-3.5496978759765625
1663860963122943200,5.989943115234375,-1.580291748046875,-7.90216064453125,-3.1163482666015625
1663860963132831000,5.9998310546875,-2.37994384765625,-8.026657104492188,-2.7404632568359375
1663860963142718500,6.009718505859375,-2.267425537109375,-8.469589233398438,-2.242462158203125
1663860963152606200,6.019606201171875,-1.719146728515625,-8.986740112304688,-1.6367340087890625
1663860963162463500,6.02946337890625,-1.4198760986328125,-9.247695922851562,-1.624755859375
1663860963172351200,6.039351318359375,-2.272216796875,-9.305160522460938,-2.1754302978515625
1663860963182208300,6.049208251953125,-3.2969207763671875,-9.544586181640625,-2.7835540771484375
1663860963192126500,6.05912646484375,-3.0335693359375,-9.977935791015625,-2.9990386962890625
1663860963202014200,6.06901416015625,-2.36798095703125,-10.05694580078125,-2.9248199462890625
1663860963211902000,6.07890185546875,-2.6002197265625,-9.795974731445312,-3.1115570068359375
1663860963221789700,6.088789794921875,-3.3543853759765625,-9.647537231445312,-3.595184326171875
1663860963231646700,6.098646728515625,-3.938568115234375,-9.527816772460938,-3.556884765625
1663860963241534500,6.108534423828125,-4.0367431640625,-9.353042602539062,-2.9367828369140625
1663860963251422200,6.118422119140625,-3.715911865234375,-9.475143432617188,-2.50103759765625
1663860963261310000,6.12831005859375,-3.7661895751953125,-9.695419311523438,-2.4364013671875
1663860963271167000,6.1381669921875,-4.14447021484375,-9.762451171875,-2.57525634765625
1663860963281054700,6.1480546875,-4.21868896484375,-9.54937744140625,-2.7524261474609375
1663860963290942500,6.1579423828125,-3.78533935546875,-9.163909912109375,-2.7763671875
1663860963300799700,6.1677998046875,-3.6033782958984375,-8.91729736328125,-2.769195556640625
1663860963310687200,6.177687255859375,-3.6345062255859375,-9.077713012695312,-2.8050994873046875
1663860963320605400,6.18760546875,-3.6345062255859375,-9.250091552734375,-2.7332763671875
1663860963330493200,6.1974931640625,-3.73028564453125,-9.257278442382812,-2.6518707275390625
1663860963340381000,6.207380859375,-3.7829437255859375,-9.3291015625,-2.7141265869140625
1663860963350238200,6.21723828125,-3.926605224609375,-9.3602294921875,-2.5872344970703125
1663860963360095200,6.22709521484375,-3.873931884765625,-9.290802001953125,-2.1179656982421875
1663860963369983000,6.23698291015625,-3.0790557861328125,-9.465576171875,-1.7899627685546875
1663860963379901200,6.246901123046875,-2.3224945068359375,-9.606826782226562,-1.63433837890625
1663860963389789000,6.256788818359375,-2.5714874267578125,-9.573318481445312,-1.8785552978515625
1663860963399676700,6.2666767578125,-3.347198486328125,-9.317138671875,-2.3932952880859375
1663860963409564400,6.276564453125,-3.347198486328125,-8.943634033203125,-2.59442138671875
1663860963419452000,6.286451904296875,-2.437408447265625,-8.634780883789062,-2.5393524169921875
1663860963429339600,6.296339599609375,-1.8747711181640625,-8.572540283203125,-2.8936920166015625
1663860963439197000,6.306197021484375,-1.898712158203125,-8.503097534179688,-3.4012603759765625
1663860963449084700,6.316084716796875,-2.047149658203125,-8.211013793945312,-3.7388458251953125
1663860963458941700,6.325941650390625,-2.3272705078125,-8.029052734375,-3.942352294921875
1663860963468860000,6.33585986328125,-2.0112457275390625,-8.445648193359375,-4.069244384765625
1663860963478717200,6.34571728515625,-1.4845123291015625,-9.041793823242188,-3.8920745849609375
1663860963488605000,6.35560498046875,-2.6097869873046875,-9.573318481445312,-3.5161895751953125
1663860963498492400,6.365492431640625,-4.6807708740234375,-10.028213500976562,-3.214508056640625
1663860963508349700,6.375349609375,-5.0446929931640625,-10.473526000976562,-3.3102874755859375
1663860963518268000,6.385267822265625,-2.8827362060546875,-10.985885620117188,-2.9631195068359375
1663860963528155600,6.39515576171875,-1.834075927734375,-11.479095458984375,-2.4770965576171875
1663860963538043400,6.40504345703125,-2.2841796875,-11.445571899414062,-2.0341644287109375
1663860963547931000,6.414930908203125,-2.5188140869140625,-11.06011962890625,-1.87615966796875
1663860963557818600,6.424818603515625,-2.765411376953125,-10.938003540039062,-1.9168548583984375
1663860963567676000,6.434676025390625,-2.786956787109375,-10.961944580078125,-1.73968505859375
1663860963577563600,6.444563720703125,-2.1429290771484375,-10.5740966796875,-1.1985931396484375
1663860963587451100,6.454451171875,-1.1397552490234375,-9.798370361328125,-0.7269439697265625
1663860963597339000,6.4643388671875,-1.03680419921875,-9.240524291992188,-0.6120147705078125
1663860963607226600,6.4742265625,-1.613800048828125,-9.2237548828125,-0.688629150390625
1663860963617114400,6.4841142578125,-1.5946502685546875,-9.53021240234375,-0.5760955810546875
1663860963627002000,6.494002197265625,-1.041595458984375,-9.84625244140625,-0.5856781005859375
1663860963636859100,6.503859130859375,-1.1876373291015625,-10.04736328125,-1.1411285400390625
1663860963646716400,6.51371630859375,-0.94342041015625,-9.997085571289062,-2.0222015380859375
1663860963656604200,6.523604248046875,1.84820556640625,-10.12158203125,-3.4443511962890625
1663860963666522400,6.5335224609375,3.6989288330078125,-9.659500122070312,-4.33978271484375
1663860963676410000,6.54341015625,2.4395751953125,-8.634780883789062,-4.8856658935546875
1663860963686297600,6.553297607421875,0.2584686279296875,-8.512680053710938,-7.006927490234375
1663860963696185300,6.563185302734375,-2.394317626953125,-9.029830932617188,-9.377182006835938
1663860963706042600,6.573042724609375,-6.4141845703125,-10.157501220703125,-9.53759765625
1663860963715930400,6.582930419921875,-3.6081695556640625,-11.670639038085938,-8.031646728515625
1663860963725787400,6.592787353515625,1.3574066162109375,-11.562896728515625,-3.6598358154296875
1663860963735675100,6.602675048828125,1.515411376953125,-10.751266479492188,0.7311248779296875
1663860963745563000,6.61256298828125,-0.2108001708984375,-10.593246459960938,1.8731689453125
1663860963755481000,6.622481201171875,-1.762237548828125,-10.284393310546875,0.8245086669921875
1663860963765368800,6.632368896484375,-2.41107177734375,-9.4344482421875,-0.983123779296875
1663860963775225900,6.642225830078125,-2.0232086181640625,-9.077713012695312,-2.874542236328125
1663860963785113600,6.652113525390625,-1.8580169677734375,-8.981948852539062,-3.5185699462890625
1663860963795001300,6.66200146484375,-1.553955078125,-8.862228393554688,-2.9056549072265625
1663860963804889000,6.67188916015625,-1.19482421875,-8.63238525390625,-2.0581207275390625
1663860963814746000,6.68174609375,-1.1924285888671875,-8.634780883789062,-1.648712158203125
1663860963824633900,6.6916337890625,-1.33367919921875,-9.139968872070312,-1.7588348388671875
1663860963834521600,6.701521484375,-1.5515594482421875,-9.628372192382812,-2.1060028076171875
1663860963844409300,6.711409423828125,-2.1333465576171875,-10.181442260742188,-2.2017669677734375
1663860963854266400,6.721266357421875,-2.6097869873046875,-10.976318359375,-2.11077880859375
1663860963864154000,6.731154052734375,-2.0806732177734375,-11.364181518554688,-1.85699462890625
1663860963874072300,6.741072265625,-1.1301727294921875,-11.29473876953125,-1.48590087890625
1663860963883960000,6.7509599609375,-0.905120849609375,-11.172637939453125,-1.3254852294921875
1663860963893847800,6.760847900390625,-0.9913177490234375,-11.024200439453125,-1.6439208984375
1663860963903735600,6.770735595703125,-0.790191650390625,-10.806320190429688,-2.1802215576171875
1663860963913623000,6.780623046875,-0.5914764404296875,-10.6171875,-2.7045440673828125
1663860963923510800,6.7905107421875,-0.6273956298828125,-10.466354370117188,-3.224090576171875
1663860963933398500,6.8003984375,-0.747100830078125,-10.346633911132812,-3.5018157958984375
1663860963943286300,6.810286376953125,-0.8452606201171875,-10.334671020507812,-3.456329345703125
1663860963953174000,6.820174072265625,-1.0128631591796875,-10.404098510742188,-3.1259307861328125
1663860963963061500,6.8300615234375,-1.158905029296875,-10.624374389648438,-2.694976806640625
1663860963972918800,6.839918701171875,-1.1253814697265625,-11.017013549804688,-2.474700927734375
1663860963982806500,6.849806640625,-1.132568359375,-11.383331298828125,-2.4555511474609375
1663860963992663600,6.85966357421875,-1.3576202392578125,-11.682601928710938,-2.5991973876953125
1663860964002551300,6.86955126953125,-1.8077392578125,-11.943572998046875,-3.1259307861328125
1663860964012439000,6.87943896484375,-1.8795623779296875,-12.099197387695312,-3.8777008056640625
1663860964022296300,6.88929638671875,-1.053558349609375,-11.984268188476562,-4.121917724609375
1663860964032183800,6.899183837890625,0.3542327880859375,-11.735275268554688,-3.911224365234375
1663860964042071600,6.909071533203125,0.9599609375,-11.246856689453125,-3.6191253662109375
1663860964051959300,6.918959228515625,0.0525665283203125,-10.351425170898438,-3.592803955078125
1663860964061847000,6.928846923828125,-2.047149658203125,-9.27642822265625,-3.2408447265625
1663860964071734800,6.93873486328125,-4.096588134765625,-8.79998779296875,-2.3334503173828125
1663860964081591800,6.948591796875,-4.0295562744140625,-9.465576171875,-1.502655029296875
1663860964091479600,6.9584794921875,-2.679229736328125,-10.41607666015625,-0.5641326904296875
1663860964101367300,6.9683671875,-2.1692657470703125,-10.708160400390625,0.32171630859375
1663860964111255000,6.978255126953125,-2.427825927734375,-10.550140380859375,0.14215087890625
1663860964121142800,6.988142822265625,-2.806121826171875,-9.961166381835938,-1.08367919921875
1663860964131030300,6.9980302734375,-2.569091796875,-8.601272583007812,-2.2065582275390625
1663860964140887600,7.007887451171875,-1.474945068359375,-7.4712066650390625,-2.4292144775390625
1663860964150775300,7.017775390625,-1.0152587890625,-7.236572265625,-2.68060302734375
1663860964160663000,7.0276630859375,-1.82928466796875,-7.7154083251953125,-3.27197265625
1663860964170550500,7.037550537109375,-2.8635711669921875,-8.560562133789062,-3.446746826171875
1663860964180438300,7.047438232421875,-3.15087890625,-9.5709228515625,-3.5185699462890625
1663860964190326000,7.057325927734375,-3.4046630859375,-10.399307250976562,-3.6023712158203125
1663860964200213800,7.0672138671875,-3.229888916015625,-10.835052490234375,-2.99664306640625
1663860964210101500,7.0771015625,-3.715911865234375,-11.055328369140625,-2.57525634765625
1663860964219958500,7.08695849609375,-4.1875762939453125,-11.076873779296875,-2.6662445068359375
1663860964229846300,7.09684619140625,-4.77655029296875,-10.842239379882812,-3.180999755859375
1663860964239734000,7.106734130859375,-4.75738525390625,-10.253265380859375,-3.868133544921875
1663860964249621800,7.116621826171875,-3.6536712646484375,-9.393753051757812,-3.6981353759765625
1663860964259509200,7.12650927734375,-2.320098876953125,-8.529434204101562,-2.5776519775390625
1663860964269366500,7.136366455078125,-1.453399658203125,-7.792022705078125,-1.45477294921875
1663860964279254300,7.146254150390625,-1.285797119140625,-6.99237060546875,-0.7532806396484375
1663860964289142000,7.15614208984375,-1.48211669921875,-6.080169677734375,-0.679046630859375
1663860964299029500,7.166029541015625,-1.592254638671875,-5.256561279296875,-1.179443359375
1663860964308917200,7.175917236328125,-1.72393798828125,-5.13446044921875,-1.7540435791015625
1663860964318805000,7.185804931640625,-1.4845123291015625,-6.1615753173828125,-2.1921844482421875
1663860964328662300,7.195662353515625,-1.6473236083984375,-7.7201995849609375,-2.5178070068359375
1663860964338580500,7.20558056640625,-2.420654296875,-9.060958862304688,-2.7955322265625
1663860964348468200,7.21546826171875,-3.102996826171875,-9.968353271484375,-2.9798736572265625
1663860964358355700,7.225355712890625,-3.694366455078125,-10.507049560546875,-3.329437255859375
1663860964368213000,7.235212890625,-4.307281494140625,-10.6483154296875,-3.6454620361328125
1663860964378100700,7.245100830078125,-4.8435821533203125,-10.492691040039062,-3.78912353515625
1663860964388019000,7.25501904296875,-4.9034423828125,-10.159896850585938,-4.026153564453125
1663860964397906700,7.26490673828125,-4.4102325439453125,-9.84625244140625,-4.23443603515625
1663860964407794200,7.274794189453125,-4.1516571044921875,-9.546981811523438,-4.6007537841796875
1663860964417682000,7.284681884765625,-3.92181396484375,-9.118408203125,-5.364501953125
1663860964427569700,7.294569580078125,-4.391082763671875,-8.706619262695312,-6.1258544921875
1663860964437457400,7.30445751953125,-5.3559417724609375,-9.08489990234375,-6.6884918212890625
1663860964447314400,7.314314453125,-5.6791534423828125,-10.03778076171875,-7.0715789794921875
1663860964457202200,7.3242021484375,-5.8683013916015625,-10.71295166015625,-6.81060791015625
1663860964467090000,7.33408984375,-6.3279876708984375,-11.084060668945312,-5.843353271484375
1663860964476977700,7.343977783203125,-6.7421875,-11.428817749023438,-4.59356689453125
1663860964486865400,7.353865478515625,-6.9193572998046875,-11.412063598632812,-3.7173004150390625
1663860964496753000,7.3637529296875,-6.94329833984375,-10.605209350585938,-3.149871826171875
1663860964506640600,7.373640625,-6.65838623046875,-9.290802001953125,-2.7715911865234375
1663860964516498000,7.383497802734375,-6.136444091796875,-7.622039794921875,-2.3669586181640625
1663860964526355000,7.39335498046875,-5.4732513427734375,-6.16876220703125,-1.9647369384765625
1663860964536242700,7.40324267578125,-5.0973663330078125,-5.71624755859375,-1.0980377197265625
1663860964546100000,7.413099853515625,-4.539520263671875,-5.330780029296875,-0.983123779296875
1663860964556018200,7.42301806640625,-4.529937744140625,-4.959686279296875,-1.112396240234375
1663860964565875200,7.432875244140625,-5.205108642578125,-5.3260040283203125,-1.323089599609375
1663860964575793700,7.442793701171875,-5.5139617919921875,-6.132843017578125,-1.861785888671875
1663860964585681200,7.45268115234375,-5.3343963623046875,-6.7720947265625,-2.5872344970703125
1663860964595569000,7.46256884765625,-4.3527679443359375,-7.2126312255859375,-3.3964691162109375
1663860964605426200,7.47242626953125,-3.55072021484375,-7.2916412353515625,-3.837005615234375
1663860964615314000,7.48231396484375,-3.610565185546875,-7.15277099609375,-3.96868896484375
1663860964625201400,7.492201416015625,-4.5802154541015625,-7.1312255859375,-4.1626129150390625
1663860964635089200,7.502089111328125,-6.0167388916015625,-7.696258544921875,-4.8258056640625
1663860964644977000,7.511976806640625,-7.371856689453125,-8.634780883789062,-5.6949005126953125
1663860964654864600,7.52186474609375,-8.695846557617188,-9.393753051757812,-6.276702880859375
1663860964664752400,7.53175244140625,-9.60565185546875,-10.035400390625,-6.61187744140625
1663860964674640000,7.541639892578125,-10.208984375,-10.305938720703125,-6.4730224609375
1663860964684527600,7.551527587890625,-10.1778564453125,-10.26763916015625,-6.298248291015625
1663860964694415400,7.561415283203125,-8.959213256835938,-10.171859741210938,-6.5280914306640625
1663860964704303000,7.57130322265625,-8.121246337890625,-9.724151611328125,-7.0356597900390625
1663860964714190800,7.58119091796875,-7.9225311279296875,-8.773651123046875,-7.1912841796875
1663860964724048000,7.5910478515625,-7.1515960693359375,-7.1072845458984375,-6.331756591796875
1663860964733935600,7.600935546875,-6.3758697509765625,-5.2374114990234375,-4.8880615234375
1663860964743823400,7.6108232421875,-5.6671905517578125,-3.76019287109375,-3.8106689453125
1663860964753711000,7.620711181640625,-5.9257659912109375,-3.6356964111328125,-3.8657379150390625
1663860964763598600,7.6305986328125,-7.201873779296875,-4.4760589599609375,-4.502593994140625
1663860964773486300,7.640486328125,-7.604095458984375,-5.4959869384765625,-4.8593292236328125
1663860964783374000,7.6503740234375,-7.7142333984375,-6.1615753173828125,-4.87847900390625
1663860964793261800,7.66026171875,-8.906539916992188,-6.4632415771484375,-4.8114471435546875
1663860964803119000,7.670119140625,-9.445236206054688,-6.7912445068359375,-5.1849365234375
1663860964813006600,7.680006591796875,-8.851470947265625,-7.083343505859375,-6.276702880859375
1663860964822894300,7.689894287109375,-8.564178466796875,-7.559783935546875,-7.164947509765625
1663860964832782000,7.699781982421875,-8.7174072265625,-7.76568603515625,-7.619842529296875
1663860964842669800,7.709669921875,-8.45404052734375,-6.9899749755859375,-6.6932830810546875
1663860964852557600,7.7195576171875,-8.331939697265625,-5.85272216796875,-5.2711334228515625
1663860964862414600,7.72941455078125,-8.980758666992188,-5.467254638671875,-5.316619873046875
1663860964872302300,7.73930224609375,-10.347854614257812,-5.383453369140625,-5.7571563720703125
1663860964882159600,7.74915966796875,-9.610443115234375,-5.7976531982421875,-6.3341522216796875
1663860964892047000,7.759047119140625,-7.43890380859375,-5.8599090576171875,-7.2271881103515625
1663860964901934800,7.768934814453125,-8.959213256835938,-5.5965423583984375,-7.3732452392578125
1663860964911822600,7.778822509765625,-7.6639556884765625,-5.1153106689453125,-6.774688720703125
1663860964921710300,7.78871044921875,-5.9521026611328125,-4.215087890625,-6.1905059814453125
1663860964931598000,7.79859814453125,-6.5195159912109375,-3.7841339111328125,-5.7260284423828125
1663860964941455000,7.808455078125,-6.8475341796875,-3.798492431640625,-6.0995330810546875
1663860964951373300,7.818373291015625,-6.706268310546875,-3.9373626708984375,-6.2168426513671875
1663860964961230600,7.828230712890625,-6.4285430908203125,-3.8224334716796875,-5.431549072265625
1663860964971118300,7.838118408203125,-6.8666839599609375,-3.65484619140625,-4.95269775390625
1663860964981005800,7.848005859375,-5.8060455322265625,-3.427398681640625,-4.48583984375
1663860964990893600,7.8578935546875,-5.7006988525390625,-3.185577392578125,-4.37091064453125
1663860965000781300,7.86778125,-4.93695068359375,-2.9006805419921875,-4.9598846435546875
1663860965010669000,7.8776689453125,-3.991241455078125,-2.24945068359375,-4.6175079345703125
1663860965020556800,7.887556884765625,-5.79168701171875,-1.6868133544921875,-3.8848876953125
1663860965030444500,7.897444580078125,-5.7150726318359375,-1.619781494140625,-3.1378936767578125
1663860965040332000,7.90733203125,-3.3017120361328125,-2.27099609375,-2.9319915771484375
1663860965050189300,7.917189208984375,-2.8420257568359375,-3.3148651123046875,-3.556884765625
1663860965060046600,7.927046630859375,-5.56903076171875,-3.89666748046875,-4.545684814453125
1663860965069964800,7.93696484375,-7.3000335693359375,-3.9613037109375,-4.7420196533203125
1663860965079852300,7.946852294921875,-6.588958740234375,-3.8200531005859375,-3.6167449951171875
1663860965089709600,7.95670947265625,-5.65521240234375,-3.8631439208984375,-2.146697998046875
1663860965099597300,7.966597412109375,-6.29925537109375,-3.786529541015625,-1.069305419921875
1663860965109485000,7.976485107421875,-7.2306060791015625,-3.6428680419921875,-0.8442535400390625
1663860965119372500,7.98637255859375,-7.5705718994140625,-3.6572418212890625,-1.1602935791015625
1663860965129260300,7.99626025390625,-6.768524169921875,-3.53753662109375,-1.3087310791015625
1663860965139148000,8.00614794921875,-5.317626953125,-3.2669830322265625,-1.6439208984375
1663860965149005300,8.01600537109375,-4.7047119140625,-3.01080322265625,-2.0868377685546875
1663860965158923500,8.025923583984374,-5.94970703125,-2.8863067626953125,-2.8362274169921875
1663860965168811000,8.03581103515625,-7.0630035400390625,-3.25262451171875,-4.1697998046875
1663860965178668300,8.045668212890625,-5.7533721923828125,-3.769775390625,-4.8497467041015625
1663860965188556000,8.05555615234375,-3.9768829345703125,-4.04510498046875,-4.3996429443359375
1663860965198443800,8.06544384765625,-4.984832763671875,-4.22467041015625,-4.22247314453125
1663860965208331300,8.075331298828125,-7.6447906494140625,-4.87109375,-5.0987548828125
1663860965218219000,8.085218994140625,-8.324752807617188,-5.867095947265625,-5.982208251953125
1663860965228106800,8.095106689453125,-6.790069580078125,-6.786468505859375,-5.59674072265625
1663860965237994500,8.104994384765625,-3.9864654541015625,-7.1551666259765625,-4.682159423828125
1663860965247882200,8.11488232421875,-2.2123565673828125,-6.7433624267578125,-4.01177978515625
1663860965257770000,8.12477001953125,-0.99371337890625,-5.6061248779296875,-3.408447265625
1663860965267627000,8.134626953125,-1.21636962890625,-4.0211639404296875,-2.9774932861328125
1663860965277514800,8.1445146484375,-3.8763275146484375,-2.50323486328125,-3.19775390625
1663860965287402500,8.154402587890624,-8.099700927734375,-2.0938262939453125,-4.5361175537109375
1663860965297259500,8.164259521484375,-10.580093383789062,-3.628509521484375,-5.8409576416015625
1663860965307147300,8.174147216796875,-7.90576171875,-6.101715087890625,-5.1753692626953125
1663860965317035000,8.184034912109375,-3.864349365234375,-8.318756103515625,-3.6646270751953125
1663860965326892300,8.193892333984374,-5.2817230224609375,-9.9300537109375,-4.4211883544921875
1663860965336810500,8.203810546875,-9.813949584960938,-11.340240478515625,-6.669342041015625
1663860965346698000,8.213697998046875,-11.72930908203125,-13.655426025390625,-9.046783447265625
1663860965356585700,8.223585693359375,-9.131591796875,-15.621063232421875,-9.824905395507812
1663860965366473500,8.233473388671875,-6.91217041015625,-15.317001342773438,-7.6174468994140625
1663860965376361200,8.243361328125,-7.604095458984375,-14.541275024414062,-6.2024688720703125
1663860965386249000,8.2532490234375,-7.2090606689453125,-13.427978515625,-5.7882843017578125
1663860965396136400,8.263136474609375,-6.09814453125,-11.876541137695312,-4.25360107421875
1663860965406024200,8.273024169921875,-7.235382080078125,-10.866180419921875,-2.580047607421875
1663860965415912000,8.282911865234375,-7.7884521484375,-10.653091430664062,-0.985504150390625
1663860965425799700,8.292799560546875,-4.7286529541015625,-10.727325439453125,1.0160369873046875
1663860965435656700,8.30265673828125,-3.1700286865234375,-10.5118408203125,2.0670928955078125
1663860965445544400,8.31254443359375,-3.63690185546875,-9.59246826171875,2.1293487548828125
1663860965455432200,8.32243212890625,-5.6983184814453125,-8.385787963867188,1.9497833251953125
1663860965465289500,8.33228955078125,-6.8235931396484375,-7.844696044921875,1.68402099609375
1663860965475177000,8.342177001953125,-4.35516357421875,-8.845474243164062,0.9322509765625
1663860965485034200,8.3520341796875,-2.9521636962890625,-10.662673950195312,-0.29119873046875
1663860965494922000,8.361921875,-2.2817840576171875,-12.32904052734375,-1.6008148193359375
1663860965504840200,8.371840087890625,-1.29058837890625,-13.461502075195312,-3.1474761962890625
1663860965514728000,8.38172802734375,-2.59063720703125,-13.346572875976562,-4.2464141845703125
1663860965524615700,8.39161572265625,-6.4500885009765625,-12.082443237304688,-5.3453521728515625
1663860965534472700,8.40147265625,-11.197799682617188,-11.14630126953125,-6.458648681640625
1663860965544330000,8.411330078125,-8.671905517578125,-12.388900756835938,-6.1593780517578125
1663860965554217700,8.4212177734375,2.111572265625,-15.606704711914062,-4.873687744140625
1663860965564136000,8.431135986328124,5.190521240234375,-16.040054321289062,-4.7899017333984375
1663860965573993000,8.440992919921875,1.651885986328125,-14.850128173828125,-6.9398956298828125
1663860965583880700,8.450880615234375,-5.121307373046875,-15.120681762695312,-9.925460815429688
1663860965593768400,8.4607685546875,-12.105194091796875,-17.778244018554688,-11.412261962890625
1663860965603625500,8.47062548828125,-7.235382080078125,-20.653671264648438,-9.700408935546875
1663860965613513200,8.48051318359375,0.2057952880859375,-19.674453735351562,-5.4459075927734375
1663860965623401000,8.49040087890625,0.2967681884765625,-18.036819458007812,-3.973480224609375
1663860965633319200,8.500319091796875,-3.29931640625,-16.638595581054688,-4.9694671630859375
1663860965643176400,8.510176513671874,-6.8978118896484375,-14.4742431640625,-5.400421142578125
1663860965653094700,8.5200947265625,-7.8914031982421875,-13.008987426757812,-4.4163970947265625
1663860965662951700,8.52995166015625,-6.272918701171875,-12.3505859375,-3.1211395263671875
1663860965672839400,8.53983935546875,-4.83160400390625,-11.7999267578125,-2.125152587890625
1663860965682727200,8.54972705078125,-4.920196533203125,-11.017013549804688,-1.629547119140625
1663860965692615000,8.559614990234374,-5.035125732421875,-9.870193481445312,-1.5457611083984375
1663860965702472000,8.569471923828125,-4.963287353515625,-8.416915893554688,-1.174652099609375
1663860965712359700,8.579359619140625,-4.7526092529296875,-6.8582916259765625,-0.5545501708984375
1663860965722247400,8.589247314453125,-3.0335693359375,-5.64202880859375,-0.190643310546875
1663860965732104400,8.5991044921875,-0.043212890625,-5.1248931884765625,-0.487518310546875
1663860965742023000,8.60902294921875,1.2783966064453125,-4.6556243896484375,-0.825103759765625
1663860965751910400,8.618910400390625,0.5864715576171875,-3.7889251708984375,-1.16986083984375
1663860965761767700,8.628767578125,-0.2682647705078125,-3.0491180419921875,-2.046142578125
1663860965771686000,8.638685791015625,-1.5323944091796875,-2.13214111328125,-2.2065582275390625
1663860965781543200,8.648543212890624,-1.8628082275390625,-1.3492279052734375,-1.7684173583984375
1663860965791461400,8.65846142578125,-1.106231689453125,-1.557525634765625,-1.608001708984375
1663860965801318400,8.668318359375,-0.7327423095703125,-2.62054443359375,-1.24407958984375
1663860965811175700,8.67817578125,-0.5603485107421875,-4.1696014404296875,-0.784393310546875
1663860965821063400,8.6880634765625,-0.589080810546875,-5.63006591796875,-0.6024322509765625
1663860965830981600,8.697981689453124,-0.4478302001953125,-6.82476806640625,-0.9232635498046875
1663860965840838700,8.707838623046875,-0.2227783203125,-7.5526123046875,-2.3406219482421875
1663860965850756900,8.7177568359375,-1.0032806396484375,-7.4281158447265625,-4.80426025390625
1663860965860644600,8.72764453125,-3.09820556640625,-7.1815032958984375,-7.00213623046875
1663860965870532400,8.737532470703124,-5.68634033203125,-7.9237060546875,-8.323745727539062
1663860965880389400,8.747389404296875,-7.932098388671875,-9.84625244140625,-8.002914428710938
1663860965890277000,8.757277099609375,-9.031036376953125,-12.08721923828125,-7.07635498046875
1663860965900134400,8.767134521484374,-9.136383056640625,-13.849349975585938,-6.6406097412109375
1663860965910052600,8.777052490234375,-7.7549285888671875,-14.129486083984375,-6.305419921875
1663860965919940400,8.7869404296875,-6.2106781005859375,-12.386505126953125,-5.2926788330078125
1663860965929827800,8.796827880859375,-5.1811676025390625,-10.059341430664062,-3.985443115234375
1663860965939685000,8.80668505859375,-3.584228515625,-8.819137573242188,-3.4180145263671875
1663860965949542400,8.81654248046875,-2.7725982666015625,-8.625213623046875,-3.2408447265625
1663860965959430000,8.826429931640625,-3.498046875,-8.84307861328125,-2.8577728271484375
1663860965969317600,8.836317626953125,-4.34320068359375,-9.721755981445312,-2.716522216796875
1663860965979205400,8.846205322265625,-4.29052734375,-10.949981689453125,-3.2384490966796875
1663860965989093000,8.856093017578125,-3.8667449951171875,-11.857376098632812,-4.0237579345703125
1663860965999011300,8.86601123046875,-3.8882904052734375,-12.527755737304688,-4.4307708740234375
1663860966008868600,8.87586865234375,-3.6177520751953125,-13.028152465820312,-4.6103363037109375
1663860966018725600,8.8857255859375,-4.498809814453125,-12.721694946289062,-4.8425750732421875
1663860966028613400,8.89561328125,-5.6025390625,-11.680206298828125,-4.830596923828125
1663860966038531600,8.905531494140625,-6.1795501708984375,-10.59564208984375,-4.7755279541015625
1663860966048419300,8.91541943359375,-6.7038726806640625,-10.08807373046875,-5.0771942138671875
1663860966058307000,8.92530712890625,-6.8714752197265625,-9.535003662109375,-5.242401123046875
1663860966068164000,8.9351640625,-7.235382080078125,-9.156723022460938,-5.189727783203125
1663860966078051800,8.9450517578125,-8.398971557617188,-9.058563232421875,-5.5632171630859375
1663860966087909000,8.9549091796875,-9.883377075195312,-9.05377197265625,-5.92474365234375
1663860966097827300,8.964827392578124,-9.7445068359375,-9.405715942382812,-6.03009033203125
1663860966107714800,8.97471484375,-8.75091552734375,-9.965957641601562,-6.2479705810546875
1663860966117572000,8.984572021484375,-8.614456176757812,-10.013839721679688,-6.7076568603515625
1663860966127490300,8.994490234375,-10.149139404296875,-9.178268432617188,-6.458648681640625
1663860966137378000,9.0043779296875,-10.886550903320312,-8.275650024414062,-5.7260284423828125
1663860966147235000,9.014235107421875,-7.8004150390625,-7.325164794921875,-4.248809814453125
1663860966157122800,9.024122802734375,-5.1548309326171875,-6.0706024169921875,-3.382110595703125
1663860966166980000,9.03397998046875,-7.551422119140625,-4.9788360595703125,-3.00860595703125
1663860966176898300,9.043898193359375,-9.45721435546875,-4.863922119140625,-4.0237579345703125
1663860966186786000,9.0537861328125,-8.920913696289062,-4.653228759765625,-5.3333740234375
1663860966196643000,9.06364306640625,-8.93048095703125,-4.8567352294921875,-6.34613037109375
1663860966206530800,9.07353076171875,-6.378265380859375,-5.5965423583984375,-6.7866668701171875
1663860966216418600,9.08341845703125,-4.551483154296875,-5.8934326171875,-6.09234619140625
1663860966226306300,9.093306396484374,-4.798095703125,-5.7497711181640625,-5.4937896728515625
1663860966236194000,9.103194091796874,-5.7318267822265625,-4.6795654296875,-4.028533935546875
1663860966246051000,9.113051025390625,-6.282501220703125,-3.0562896728515625,-2.378936767578125
1663860966255969300,9.12296923828125,-5.80364990234375,-2.1153717041015625,-2.3909149169921875
1663860966265857000,9.13285693359375,-3.969696044921875,-2.012420654296875,-3.245635986328125
1663860966275744800,9.142744873046874,-2.858795166015625,-1.89031982421875,-3.509002685546875
1663860966285601800,9.152601806640625,-3.146087646484375,-1.4761199951171875,-4.9479217529296875
1663860966295489500,9.162489501953125,-2.8994903564453125,-0.690826416015625,-5.601531982421875
1663860966305377300,9.172377197265625,-2.6672515869140625,-0.42266845703125,-4.4906158447265625
1663860966315265000,9.18226513671875,-3.737457275390625,-0.8033447265625,-4.270355224609375
1663860966325152800,9.19215283203125,-4.656829833984375,-1.4497833251953125,-4.1697998046875
1663860966335040300,9.202040283203125,-5.5594482421875,-1.854400634765625,-2.9942474365234375
1663860966344928000,9.211927978515625,-5.4110107421875,-2.02679443359375,-2.084442138671875
1663860966354815700,9.221815673828125,-3.5004425048828125,-2.00762939453125,-1.1985931396484375
1663860966364673000,9.231673095703124,-2.9569549560546875,-2.0291900634765625,-0.79876708984375
1663860966374560500,9.241560546875,-3.6345062255859375,-2.2518463134765625,-1.2871856689453125
1663860966384417800,9.251417724609375,-3.8284454345703125,-2.7761688232421875,-2.1826171875
1663860966394336000,9.2613359375,-4.9034423828125,-3.1760101318359375,-2.7045440673828125
1663860966404223700,9.2712236328125,-4.6424713134765625,-3.4537353515625,-3.0732574462890625
1663860966414111500,9.281111572265624,-3.064697265625,-3.65484619140625,-3.075653076171875
1663860966423999200,9.290999267578124,-4.6257171630859375,-3.7625885009765625,-3.1331024169921875
1663860966433886700,9.30088671875,-6.47882080078125,-4.188751220703125,-3.7436370849609375
1663860966443744000,9.310743896484375,-4.805267333984375,-4.7250518798828125,-4.1889495849609375
1663860966453601300,9.320601318359374,-3.9553375244140625,-4.590972900390625,-3.774749755859375
1663860966463488800,9.33048876953125,-5.3056640625,-4.2462158203125,-3.83221435546875
1663860966473407000,9.340406982421875,-5.0399017333984375,-4.2486114501953125,-4.7396240234375
1663860966483264300,9.35026416015625,-3.165252685546875,-4.066650390625,-5.072418212890625
1663860966493152000,9.360152099609374,-3.811676025390625,-3.7506103515625,-4.8425750732421875
1663860966503009000,9.370009033203125,-6.780487060546875,-3.9158172607421875,-5.146636962890625
1663860966512927200,9.37992724609375,-8.3271484375,-4.6077423095703125,-5.5249176025390625
1663860966522815000,9.38981494140625,-6.4548797607421875,-5.2493896484375,-4.746795654296875
1663860966532702700,9.39970263671875,-3.55072021484375,-5.66119384765625,-3.4587249755859375
1663860966542560000,9.40956005859375,-3.2586212158203125,-5.800048828125,-3.1331024169921875
1663860966552478200,9.419478271484374,-5.5283203125,-5.7114715576171875,-3.657440185546875
1663860966562335200,9.429335205078125,-6.9935760498046875,-5.8503265380859375,-4.387664794921875
1663860966572192500,9.439192626953124,-6.1412353515625,-6.4033966064453125,-5.00537109375
1663860966582110700,9.44911083984375,-4.984832763671875,-7.157562255859375,-5.37408447265625
1663860966591998500,9.45899853515625,-5.0446929931640625,-8.141586303710938,-5.4770355224609375
1663860966601886000,9.468885986328125,-5.1859588623046875,-9.288406372070312,-5.232818603515625
1663860966611743200,9.4787431640625,-5.5594482421875,-10.540573120117188,-4.63427734375
1663860966621661400,9.488661376953125,-5.5091705322265625,-11.40966796875,-3.604766845703125
1663860966631549200,9.498549072265625,-5.152435302734375,-11.570083618164062,-2.60638427734375
1663860966641406200,9.50840625,-4.2617950439453125,-10.964340209960938,-2.3813323974609375
1663860966651263500,9.518263427734375,-3.63690185546875,-9.953994750976562,-2.60638427734375
1663860966661151200,9.528151123046875,-4.0415191650390625,-9.144744873046875,-2.9200286865234375
1663860966671069400,9.5380693359375,-4.845977783203125,-8.93646240234375,-3.487457275390625
1663860966680957200,9.547957275390624,-5.5450897216796875,-9.599655151367188,-4.270355224609375
1663860966690845000,9.557844970703124,-4.78851318359375,-10.98828125,-4.5480804443359375
1663860966700732400,9.567732421875,-3.2011566162109375,-12.190170288085938,-4.440338134765625
1663860966710620200,9.5776201171875,-4.022369384765625,-12.82464599609375,-4.639068603515625
1663860966720477400,9.5874775390625,-7.592132568359375,-13.76556396484375,-5.15142822265625
1663860966730334500,9.59733447265625,-9.502700805664062,-15.64739990234375,-5.1705780029296875
1663860966740252700,9.607252685546875,-6.007171630859375,-16.727188110351562,-3.5257568359375
1663860966750140400,9.617140380859375,-3.3639678955078125,-16.06878662109375,-1.6558837890625
1663860966759997700,9.626997802734374,-4.2713623046875,-14.713668823242188,-1.026214599609375
1663860966769885400,9.636885498046874,-6.34234619140625,-13.648239135742188,-1.4954833984375
1663860966779773000,9.64677294921875,-6.5817718505859375,-12.601974487304688,-2.0317840576171875
1663860966789660700,9.65666064453125,-4.8747100830078125,-11.78076171875,-2.46990966796875
1663860966799548400,9.66654833984375,-3.44537353515625,-11.337844848632812,-3.0900115966796875
1663860966809436200,9.676436279296874,-3.6177520751953125,-11.148696899414062,-4.078826904296875
1663860966819293200,9.686293212890625,-5.0854034423828125,-11.6754150390625,-4.9862213134765625
1663860966829211400,9.69621142578125,-6.3639068603515625,-12.6785888671875,-5.4267578125
1663860966839068700,9.706068603515625,-7.285675048828125,-13.447128295898438,-5.242401123046875
1663860966848956400,9.715956298828125,-7.04864501953125,-13.413619995117188,-5.0700225830078125
1663860966858813400,9.7258134765625,-6.0789947509765625,-12.264389038085938,-4.9550933837890625
1663860966868701200,9.735701171875,-6.308837890625,-10.327484130859375,-4.7683563232421875
1663860966878589000,9.7455888671875,-6.5602264404296875,-8.675491333007812,-4.3780975341796875
1663860966888476700,9.7554765625,-6.234619140625,-7.578948974609375,-3.846588134765625
1663860966898395000,9.765394775390625,-7.213836669921875,-7.538238525390625,-3.56646728515625
1663860966908252200,9.775252197265624,-6.229827880859375,-7.87103271484375,-2.7763671875
1663860966918139600,9.7851396484375,-6.2920684814453125,-8.97955322265625,-2.3980865478515625
1663860966928027400,9.79502734375,-7.97998046875,-10.689010620117188,-3.267181396484375
1663860966937884700,9.804884765625,-7.0247039794921875,-11.266006469726562,-3.2216949462890625
1663860966947803000,9.814802978515624,-2.90667724609375,-11.151092529296875,-2.1706390380859375
1663860966957660000,9.824659912109375,-0.6010589599609375,-10.844635009765625,-1.5265960693359375
1663860966967547600,9.834547607421875,-2.2841796875,-10.071304321289062,-2.094024658203125
1663860966977465900,9.8444658203125,-7.0079345703125,-9.429656982421875,-3.8872833251953125
1663860966987353600,9.854353515625,-8.121246337890625,-9.606826782226562,-5.6254730224609375
1663860966997241300,9.864241455078124,-1.96575927734375,-9.642745971679688,-5.4267578125
1663860967007129000,9.874129150390624,0.4093017578125,-9.207000732421875,-3.7915191650390625
1663860967017016600,9.8840166015625,-5.3367919921875,-9.693023681640625,-4.651031494140625
1663860967026904300,9.893904296875,-11.379745483398438,-11.112777709960938,-7.4953460693359375
1663860967036792000,9.9037919921875,-11.530593872070312,-11.574859619140625,-7.43548583984375
1663860967046649300,9.9136494140625,-7.0390625,-11.323471069335938,-5.0556488037109375
1663860967056536800,9.923536865234375,-2.2171478271484375,-10.7225341796875,-3.3797149658203125
1663860967066394000,9.93339404296875,-2.5403594970703125,-9.652328491210938,-2.5178070068359375
1663860967076281900,9.94328173828125,-5.0542755126953125,-8.665908813476562,-2.53216552734375
1663860967086139000,9.953138916015625,-6.588958740234375,-7.966796875,-3.4539337158203125
1663860967096057000,9.96305712890625,-10.563323974609375,-7.9739837646484375,-5.00537109375
1663860967105944800,9.97294482421875,-14.269561767578125,-8.5677490234375,-6.1258544921875
1663860967115832600,9.98283251953125,-11.389328002929688,-8.687454223632812,-5.843353271484375
1663860967125689900,9.99268994140625,-10.443618774414062,-9.020248413085938,-6.204864501953125
1663860967135577600,10.00257763671875,-12.47869873046875,-9.446426391601562,-7.97418212890625
1663860967145465000,10.012465087890625,-11.870559692382812,-9.05377197265625,-9.446624755859375
1663860967155352800,10.022352783203125,-10.33587646484375,-7.6028900146484375,-9.755477905273438
1663860967165240600,10.032240478515625,-9.371017456054688,-6.3315582275390625,-8.306976318359375
1663860967175128300,10.04212841796875,-8.722183227539062,-5.3355712890625,-4.354156494140625
1663860967185016000,10.05201611328125,-7.3263702392578125,-3.6572418212890625,-2.3023223876953125
1663860967194903600,10.061903564453125,-9.550582885742188,-1.799346923828125,-3.2049407958984375
1663860967204791300,10.071791259765625,-10.924850463867188,-1.567108154296875,-2.706939697265625
1663860967214679000,10.081678955078125,-8.760498046875,-1.66766357421875,-0.2193603515625
1663860967224566800,10.09156689453125,-6.4860076904296875,-1.176849365234375,1.77978515625
1663860967234454500,10.10145458984375,-4.9058380126953125,-2.232696533203125,5
1663860967244311600,10.1113115234375,-4.4102325439453125,-3.53753662109375,3.357574462890625
1663860967254199300,10.12119921875,-4.443756103515625,-2.9581298828125,-6.81060791015625
1663860967264056600,10.131056640625,-3.4333953857421875,-1.53118896484375,-6.530487060546875
1663860967273944000,10.140944091796875,0.7444915771484375,-1.114593505859375,1.346435546875
1663860967283831800,10.150831787109375,4.0269317626953125,-1.1696624755859375,1.202789306640625
1663860967293719600,10.160719482421875,1.90087890625,-0.34844970703125,-4.14825439453125
1663860967303607300,10.170607177734375,-1.982513427734375,0.281219482421875,-7.4019775390625
1663860967313464300,10.18046435546875,-6.3519287109375,2.6395111083984375,-16.02349853515625
1663860967323382500,10.190382568359375,-9.007095336914062,0.8654022216796875,-5.982208251953125
1663860967333270300,10.200270263671875,-5.020751953125,-0.98291015625,6.6208648681640625
1663860967343158000,10.210157958984375,-3.1820068359375,-0.06353759765625,-2.0341644287109375
1663860967353045800,10.220045654296875,-7.6376190185546875,0.956390380859375,-8.93426513671875
1663860967362903000,10.229903076171874,-9.303985595703125,-0.1066436767578125,-2.3717498779296875
1663860967372760000,10.239760009765625,-9.217788696289062,-1.145721435546875,2.735076904296875
1663860967382678300,10.24967822265625,-5.17877197265625,1.2269287109375,-5.0388946533203125
1663860967392535600,10.25953564453125,-5.5187530517578125,0.7073822021484375,-6.19769287109375
1663860967402423300,10.26942333984375,-8.226593017578125,-0.3460540771484375,-4.3733062744140625
1663860967412310800,10.279310791015625,-10.036605834960938,-0.2407073974609375,-4.4547119140625
1663860967422198500,10.289198486328125,-9.107650756835938,-0.8464508056640625,-3.6550445556640625
1663860967432086300,10.299086181640625,-9.3734130859375,-1.8089141845703125,-1.7588348388671875
1663860967441974000,10.30897412109375,-9.239334106445312,-1.219940185546875,-4.1147308349609375
1663860967451831000,10.3188310546875,-8.808380126953125,-0.0707244873046875,-7.13861083984375
1663860967461718800,10.32871875,-9.2249755859375,-0.1329803466796875,-4.682159423828125
1663860967471606500,10.3386064453125,-10.062942504882812,-1.82568359375,-0.8538360595703125
1663860967481494300,10.348494384765624,-9.627197265625,-2.778564453125,-2.1610565185546875
1663860967491382000,10.358382080078124,-5.9592742919921875,-2.5367584228515625,-4.9646759033203125
1663860967501239000,10.368239013671875,-6.2154541015625,-1.758636474609375,-6.362884521484375
1663860967511126800,10.378126708984375,-9.26806640625,-1.1624755859375,-8.02685546875
1663860967521014500,10.3880146484375,-8.02069091796875,-1.82806396484375,-5.2974700927734375
1663860967530902300,10.39790234375,-2.65289306640625,-1.5599212646484375,-1.7253265380859375
1663860967540789800,10.407789794921875,-2.77978515625,-0.2718353271484375,-4.2416229248046875
1663860967550677500,10.417677490234375,-10.745285034179688,-0.2646636962890625,-6.59991455078125
1663860967560534800,10.42753466796875,-12.907257080078125,-2.5678863525390625,-1.3590087890625
1663860967570422500,10.437422607421874,-8.303207397460938,-5.5702056884765625,4.6648101806640625
1663860967580310000,10.44731005859375,-4.3048858642578125,-5.20867919921875,-1.449981689453125
1663860967590197800,10.45719775390625,-6.531494140625,-5.5055694580078125,-5.000579833984375
1663860967600085500,10.46708544921875,-8.307998657226562,-5.9772186279296875,-2.7332763671875
1663860967609973200,10.47697314453125,-7.266510009765625,-5.445709228515625,-4.1841583251953125
1663860967619861000,10.486861083984374,-9.919296264648438,-5.46246337890625,-8.400360107421875
1663860967629748700,10.496748779296874,-12.514602661132812,-5.91497802734375,-8.699630737304688
1663860967639636200,10.50663623046875,-9.229766845703125,-4.8567352294921875,-3.27197265625
1663860967649524000,10.51652392578125,-3.584228515625,-3.8415985107421875,-0.26007080078125
1663860967659411700,10.52641162109375,-0.3951568603515625,-3.3890838623046875,-1.3590087890625
1663860967669269000,10.53626904296875,-4.1684112548828125,-3.566253662109375,-3.8561553955078125
1663860967679156500,10.546156494140625,-11.631149291992188,-4.569427490234375,-6.801025390625
1663860967689044200,10.556044189453125,-16.45306396484375,-6.5853424072265625,-8.678085327148438
1663860967698932000,10.565931884765625,-15.545669555664062,-8.4935302734375,-5.1274871826171875
1663860967708789200,10.575789306640624,-10.146743774414062,-9.300369262695312,2.4310150146484375
1663860967718676700,10.5856767578125,-1.9226531982421875,-11.943572998046875,-1.6989898681640625
1663860967728564500,10.595564453125,-4.731048583984375,-11.668243408203125,-8.359649658203125
1663860967738482700,10.605482666015625,-16.795440673828125,-9.535003662109375,-6.1809234619140625
1663860967748340000,10.615340087890624,-21.995635986328125,-11.191787719726562,-1.4954833984375
1663860967758227700,10.625227783203124,-10.996673583984375,-13.274749755859375,-0.4492034912109375
1663860967768115200,10.635115234375,-5.269744873046875,-11.438400268554688,1.2291259765625
1663860967778003000,10.6450029296875,-7.213836669921875,-9.767242431640625,-0.683837890625
1663860967787890700,10.654890625,-7.434112548828125,-9.587677001953125,-4.545684814453125
1663860967797778400,10.6647783203125,-9.210601806640625,-9.130386352539062,-3.6191253662109375
1663860967807635500,10.674635498046875,-10.666275024414062,-9.700210571289062,-2.7715911865234375
1663860967817523200,10.684523193359375,-11.650299072265625,-10.68182373046875,-3.0253753662109375
1663860967827411000,10.694410888671875,-11.937606811523438,-10.830276489257812,-2.343017578125
1663860967837268200,10.704268310546874,-10.77880859375,-10.389739990234375,-1.502655029296875
1663860967847156000,10.714156005859374,-7.783660888671875,-9.87738037109375,-2.60638427734375
1663860967857074200,10.72407421875,-4.7957000732421875,-8.996307373046875,-5.053253173828125
1663860967866961700,10.733961669921875,-5.5833892822265625,-7.7249908447265625,-5.041290283203125
1663860967876849400,10.743849365234375,-9.423690795898438,-6.8008270263671875,-1.945587158203125
1663860967886737200,10.753737060546875,-10.434036254882812,-7.7824554443359375,-1.744476318359375
1663860967896625000,10.763625,-10.759658813476562,-9.525436401367188,-2.623138427734375
1663860967906512600,10.7735126953125,-9.471572875976562,-10.4376220703125,-2.8506011962890625
1663860967916400000,10.783400146484375,-7.7645111083984375,-10.34185791015625,-2.6183624267578125
1663860967926288000,10.793287841796875,-5.4995880126953125,-9.5709228515625,-3.8824920654296875
1663860967936175600,10.803175537109375,-4.5467071533203125,-7.504730224609375,-6.1474151611328125
1663860967946063400,10.8130634765625,-4.9178009033203125,-5.043487548828125,-6.183319091796875
1663860967955951000,10.822951171875,-5.343963623046875,-4.157623291015625,-3.307891845703125
1663860967965808000,10.83280810546875,-5.6408538818359375,-3.9636993408203125,-0.8442535400390625
1663860967975696000,10.84269580078125,-3.663238525390625,-4.801666259765625,-0.6479339599609375
1663860967985583600,10.85258349609375,-5.025543212890625,-6.1136932373046875,-1.363800048828125
1663860967995471400,10.862471435546874,-10.422073364257812,-7.236572265625,-1.0334014892578125
1663860968005358800,10.87235888671875,-14.461090087890625,-9.937225341796875,3.0654754638671875
1663860968015216000,10.882216064453125,-11.130752563476562,-12.877304077148438,1.5810699462890625
1663860968025073400,10.892073486328124,-9.876190185546875,-12.755203247070312,-2.4364013671875
1663860968034961000,10.9019609375,-9.452423095703125,-11.330657958984375,-3.604766845703125
1663860968044848600,10.9118486328125,-9.567337036132812,-9.372207641601562,-1.6630706787109375
1663860968054736400,10.921736328125,-9.907318115234375,-7.32037353515625,-1.1483154296875
1663860968064593700,10.93159375,-7.3359527587890625,-5.783294677734375,-3.10198974609375
1663860968074512000,10.941511962890624,-7.2090606689453125,-5.1105194091796875,-3.066070556640625
1663860968084369000,10.951368896484375,-8.63360595703125,-4.5981597900390625,-2.041351318359375
1663860968094287000,10.961287109375,-8.482772827148438,-4.3491668701171875,-2.06768798828125
1663860968104174800,10.9711748046875,-8.097305297851562,-5.0889739990234375,-2.5968017578125
1663860968114062600,10.9810625,-8.276870727539062,-5.8239898681640625,-3.2312774658203125
1663860968123950300,10.990950439453124,-7.04864501953125,-6.1041107177734375,-4.8760833740234375
1663860968133838000,11.000838134765624,-6.6128997802734375,-5.8335723876953125,-4.0309295654296875
1663860968143725600,11.0107255859375,-7.053436279296875,-5.6324615478515625,-2.3119049072265625
1663860968153613300,11.02061328125,-6.9456939697265625,-5.8982086181640625,-2.738067626953125
1663860968163470600,11.030470703125,-6.8930206298828125,-5.88385009765625,-5.76434326171875
1663860968173358300,11.0403583984375,-9.988723754882812,-5.3044586181640625,-4.14825439453125
1663860968183245800,11.050245849609375,-11.583267211914062,-5.1248931884765625,-0.3438720703125
1663860968193103000,11.06010302734375,-9.962387084960938,-5.3116302490234375,-1.744476318359375
1663860968202960400,11.06996044921875,-10.407699584960938,-6.0418701171875,-2.72369384765625
1663860968212878600,11.079878662109374,-9.643951416015625,-5.9796142578125,-2.5728607177734375
1663860968222735600,11.089735595703125,-8.822738647460938,-5.795257568359375,-3.56646728515625
1663860968232653800,11.09965380859375,-10.5250244140625,-5.761749267578125,-2.8697509765625
1663860968242541600,11.10954150390625,-11.906478881835938,-5.7545623779296875,-2.0317840576171875
1663860968252429300,11.11942919921875,-10.544174194335938,-5.182342529296875,-3.477874755859375
1663860968262286300,11.129286376953125,-9.112442016601562,-3.9206085205078125,-4.586395263671875
1663860968272174000,11.139174072265625,-9.095687866210938,-3.8152618408203125,-2.1658477783203125
1663860968282061800,11.149061767578125,-5.839569091796875,-4.066650390625,-2.8266448974609375
1663860968291949600,11.158949462890625,-6.641632080078125,-2.8480072021484375,-5.7260284423828125
1663860968301837300,11.16883740234375,-7.592132568359375,-2.6061859130859375,-4.0405120849609375
1663860968311725000,11.17872509765625,-6.2370147705078125,-1.9765167236328125,-4.7396240234375
1663860968321612500,11.188612548828125,-8.090118408203125,-1.8496246337890625,-4.5001983642578125
1663860968331500300,11.198500244140625,-6.8978118896484375,-2.3907012939453125,-4.6582183837890625
1663860968341357600,11.208357666015624,-6.5721893310546875,-1.579071044921875,-6.4275360107421875
1663860968351245300,11.218245361328124,-7.359893798828125,-1.1624755859375,-5.3190155029296875
1663860968361102300,11.228102294921875,-6.79486083984375,-2.31170654296875,-2.6039886474609375
1663860968371020500,11.2380205078125,-5.9377288818359375,-3.1568450927734375,-1.6630706787109375
1663860968380877800,11.2478779296875,-3.9864654541015625,-2.402679443359375,-3.8609466552734375
1663860968390765600,11.257765625,-2.8037261962890625,-0.8679962158203125,-3.83221435546875
1663860968400653000,11.267653076171875,-3.213134765625,-0.0395965576171875,-2.0317840576171875
1663860968410540800,11.277540771484375,-2.8516082763671875,1.9044952392578125,-5.496185302734375
1663860968420398000,11.287398193359374,-5.068634033203125,3.2955169677734375,-4.0093841552734375
1663860968430316300,11.29731640625,-3.37353515625,2.2229156494140625,-1.4404144287109375
1663860968440204000,11.3072041015625,-4.5443115234375,1.8254852294921875,-0.128387451171875
1663860968450091500,11.317091552734375,-2.2123565673828125,0.4535980224609375,1.3703765869140625
1663860968459948800,11.32694873046875,-1.4725494384765625,3.1159515380859375,-7.16973876953125
1663860968469836500,11.33683642578125,-6.6559906005859375,3.34100341796875,-4.217681884765625
1663860968479693600,11.346693603515625,-7.33355712890625,-0.2071990966796875,3.5634765625
1663860968489581300,11.356581298828125,-6.6176910400390625,-1.0475616455078125,-0.2840118408203125
1663860968499499500,11.36649951171875,-8.281661987304688,1.739288330078125,-7.30859375
1663860968509387300,11.37638720703125,-9.629592895507812,-0.109039306640625,-0.8227081298828125
1663860968519275000,11.38627490234375,-9.768447875976562,-3.532745361328125,1.8180999755859375
1663860968529162800,11.396162841796874,-10.592056274414062,-2.6756134033203125,-7.07635498046875
1663860968539050500,11.406050537109374,-12.59600830078125,-2.1464996337890625,-7.629425048828125
1663860968548938000,11.41593798828125,-10.987106323242188,-3.597381591796875,-2.6662445068359375
1663860968558795300,11.425795166015625,-9.667892456054688,-2.4888763427734375,-5.2352142333984375
1663860968568652500,11.435652587890624,-9.390167236328125,-1.9884796142578125,-5.5512542724609375
1663860968578570800,11.44557080078125,-5.796478271484375,-2.4314117431640625,-2.38372802734375
1663860968588458200,11.455458251953125,-4.079833984375,-1.8759613037109375,-3.0517120361328125
1663860968598346000,11.465345947265625,-8.10687255859375,-1.4641571044921875,-6.870452880859375
1663860968608203300,11.475203369140624,-8.310379028320312,-2.646881103515625,-5.41717529296875
1663860968618091000,11.485091064453124,-4.0870208740234375,-3.3795166015625,-2.304718017578125
1663860968627948000,11.494947998046875,-2.6624603271484375,-2.931793212890625,-0.7077789306640625
1663860968637866200,11.5048662109375,-4.096588134765625,-2.5319671630859375,-1.945587158203125
1663860968647754000,11.51475390625,-8.238555908203125,-4.083404541015625,-2.580047607421875
1663860968657641700,11.524641845703124,-9.272857666015625,-4.588592529296875,-3.44195556640625
1663860968667529500,11.534529541015624,-8.16912841796875,-4.9261627197265625,-4.914398193359375
1663860968677417000,11.5444169921875,-8.619232177734375,-5.7593536376953125,-1.3590087890625
1663860968687274200,11.554274169921875,-6.4022064208984375,-5.857513427734375,0.949005126953125
1663860968697162000,11.564161865234375,-5.3200225830078125,-5.4864044189453125,-4.143463134765625
1663860968707019000,11.57401904296875,-8.075759887695312,-6.175933837890625,-5.951080322265625
1663860968716937200,11.583937255859375,-9.99591064453125,-6.491973876953125,-5.2471923828125
1663860968726825000,11.593824951171875,-9.835494995117188,-6.5207061767578125,-5.7667388916015625
1663860968736682200,11.60368212890625,-9.54339599609375,-7.51190185546875,-7.2200164794921875
1663860968746570000,11.613570068359374,-13.534530639648438,-9.135177612304688,-4.73004150390625
1663860968756457700,11.623457763671874,-14.305465698242188,-11.486282348632812,-4.50738525390625
1663860968766345200,11.63334521484375,-10.644729614257812,-13.116729736328125,-6.0324859619140625
1663860968776233000,11.64323291015625,-12.011825561523438,-13.442337036132812,-3.4491424560546875
1663860968786090200,11.65309033203125,-13.000625610351562,-13.25799560546875,-3.0636749267578125
1663860968796008400,11.663008544921874,-9.177093505859375,-12.082443237304688,-5.2974700927734375
1663860968805896200,11.672896240234374,-10.295181274414062,-10.31072998046875,-3.542510986328125
1663860968815753200,11.682753173828125,-13.422012329101562,-8.857452392578125,-1.1890106201171875
1663860968825610500,11.692610595703124,-10.544174194335938,-8.488739013671875,-2.1490936279296875
1663860968835528700,11.70252880859375,-9.56494140625,-8.4935302734375,-0.5330047607421875
1663860968845416400,11.71241650390625,-9.387771606445312,-8.969970703125,-0.0876922607421875
1663860968855304000,11.722303955078125,-7.5490264892578125,-9.918075561523438,-2.27838134765625
1663860968865161200,11.7321611328125,-8.959213256835938,-10.70098876953125,-1.2871856689453125
1663860968875049000,11.742049072265624,-9.612838745117188,-11.524581909179688,-2.5249786376953125
1663860968884906000,11.751906005859375,-10.393341064453125,-11.603591918945312,-3.46112060546875
1663860968894824200,11.76182421875,-11.918441772460938,-11.670639038085938,-2.02459716796875
1663860968904712000,11.7717119140625,-11.643112182617188,-11.617965698242188,-2.6255340576171875
1663860968914599700,11.781599609375,-11.104415893554688,-11.426422119140625,-2.369354248046875
1663860968924457000,11.79145703125,-9.117233276367188,-11.402481079101562,-3.307891845703125
1663860968934344400,11.801344482421875,-6.4907989501953125,-10.351425170898438,-6.403594970703125
1663860968944232200,11.811232177734375,-8.111663818359375,-9.027435302734375,-3.647857666015625
1663860968954089500,11.82108935546875,-6.6128997802734375,-8.69464111328125,-4.270355224609375
1663860968963977200,11.830977294921874,-5.0830078125,-7.07855224609375,-6.5711822509765625
1663860968973895400,11.8408955078125,-7.498748779296875,-5.9987640380859375,-2.90325927734375
1663860968983783200,11.850783203125,-7.1994781494140625,-6.6308441162109375,-1.0812835693359375
1663860968993670700,11.860670654296875,-4.8962554931640625,-6.666748046875,-4.07403564453125
1663860969003558400,11.870558349609375,-7.3000335693359375,-5.92694091796875,-1.660675048828125
1663860969013446100,11.880446044921875,-7.7022552490234375,-6.4895782470703125,0.2882080078125
1663860969023334000,11.890333984375,-5.13568115234375,-6.9157562255859375,-3.7963104248046875
1663860969033221600,11.9002216796875,-8.097305297851562,-6.154388427734375,-1.1243743896484375
1663860969043109000,11.910109130859375,-8.05419921875,-6.8319549560546875,1.212371826171875
1663860969052996900,11.919996826171875,-3.2801666259765625,-7.06658935546875,-3.6167449951171875
1663860969062854100,11.929854248046874,-6.4189605712890625,-5.6204833984375,-2.27838134765625
1663860969072742000,11.939741943359374,-10.76922607421875,-6.16876220703125,1.95697021484375
1663860969082599000,11.949598876953125,-9.931259155273438,-8.069747924804688,0.261871337890625
1663860969092486700,11.959486572265625,-11.176239013671875,-8.618026733398438,-1.27520751953125
1663860969102374400,11.96937451171875,-13.101181030273438,-9.008285522460938,-1.945587158203125
1663860969112262100,11.97926220703125,-14.168991088867188,-8.974761962890625,-4.2416229248046875
1663860969122119200,11.989119140625,-14.42279052734375,-8.170303344726562,-5.675750732421875
1663860969132037400,11.999037353515625,-13.824234008789062,-8.182281494140625,-4.7587738037109375
1663860969141925000,12.008925048828125,-12.66064453125,-8.615631103515625,-3.667022705078125
1663860969151812900,12.018812744140625,-10.738113403320312,-8.491134643554688,-4.143463134765625
1663860969161670000,12.028669921875,-8.64556884765625,-8.227767944335938,-3.3007049560546875
1663860969171557600,12.0385576171875,-6.65838623046875,-7.274871826171875,-1.69659423828125
1663860969181445400,12.0484453125,-7.1827239990234375,-6.3459320068359375,-2.2257080078125
1663860969191333000,12.0583330078125,-10.390945434570312,-6.618865966796875,1.20758056640625
1663860969201220900,12.068220947265624,-6.483612060546875,-7.5550079345703125,0.84844970703125
1663860969211108400,12.0781083984375,-5.87548828125,-6.259735107421875,-5.2878875732421875
1663860969220965600,12.087965576171875,-9.718170166015625,-4.8998260498046875,-4.0357208251953125
1663860969230853400,12.097853271484375,-6.811614990234375,-4.0115814208984375,-1.9168548583984375
1663860969240741000,12.1077412109375,-6.5171356201171875,-2.0722808837890625,-3.2216949462890625
1663860969250598100,12.11759814453125,-8.5809326171875,-2.06988525390625,-3.1570587158203125
1663860969260486000,12.12748583984375,-8.31756591796875,-3.0131988525390625,-2.8194732666015625
1663860969270404000,12.137404052734375,-7.6160736083984375,-3.4345855712890625,-3.3174591064453125
1663860969280261400,12.147261474609374,-6.864288330078125,-2.3260650634765625,-4.682159423828125
1663860969290179600,12.1571796875,-7.381439208984375,-0.8943328857421875,-3.9399566650390625
1663860969300036600,12.16703662109375,-8.449249267578125,-1.219940185546875,-2.5968017578125
1663860969309924400,12.17692431640625,-8.748519897460938,-1.758636474609375,-4.2823333740234375
1663860969319781600,12.18678173828125,-9.909713745117188,-2.232696533203125,-2.9798736572265625
1663860969329699800,12.196699951171874,-8.166732788085938,-3.77215576171875,0.178070068359375
1663860969339587600,12.206587646484374,-5.576202392578125,-3.7625885009765625,-2.1802215576171875
1663860969349475000,12.21647509765625,-5.944915771484375,-1.694000244140625,-3.2408447265625
1663860969359362800,12.22636279296875,-7.09173583984375,-0.848846435546875,-3.3031005859375
1663860969369220000,12.23622021484375,-7.625640869140625,-0.9996795654296875,-3.4850616455078125
1663860969379077000,12.2460771484375,-5.6217041015625,-2.572662353515625,-1.100433349609375
1663860969388964900,12.25596484375,-3.6488800048828125,-2.254241943359375,-2.7835540771484375
1663860969398852600,12.2658525390625,-6.387847900390625,0.5852813720703125,-6.9805908203125
1663860969408770800,12.275770751953125,-8.375030517578125,0.8965301513671875,-6.0899505615234375
1663860969418628000,12.285628173828124,-5.2338409423828125,1.8063201904296875,-5.2807159423828125
1663860969428546300,12.29554638671875,-3.0694732666015625,1.612396240234375,-3.425201416015625
1663860969438433800,12.305433837890625,-4.2210845947265625,0.1519317626953125,-3.2264862060546875
1663860969448321500,12.315321533203125,-3.620147705078125,1.6722564697265625,-5.8289794921875
1663860969458178800,12.3251787109375,-4.5107879638671875,2.943572998046875,-5.1226959228515625
1663860969468036000,12.3350361328125,-9.196243286132812,1.7225341796875,-2.252044677734375
1663860969477923600,12.344923583984375,-6.52191162109375,-0.142547607421875,1.995269775390625
1663860969487841800,12.354841796875,0.2608489990234375,0.47515869140625,-0.5497589111328125
1663860969497729500,12.3647294921875,-4.3479766845703125,1.6938018798828125,-7.9286956787109375
1663860969507586800,12.3745869140625,-10.256866455078125,0.168701171875,-5.12030029296875
1663860969517443800,12.38444384765625,-5.458892822265625,0.2093963623046875,-1.682220458984375
1663860969527362000,12.394362060546875,-3.3639678955078125,0.111236572265625,-0.2840118408203125
1663860969537249800,12.404249755859375,-7.0366668701171875,-0.59027099609375,-3.7077178955078125
1663860969547107000,12.414107177734374,-7.8219757080078125,-0.2933807373046875,-6.372467041015625
1663860969557025300,12.424025390625,-6.802032470703125,-1.167266845703125,-1.3709716796875
1663860969566882300,12.43388232421875,-5.8898468017578125,-1.6987762451171875,-0.825103759765625
1663860969576770000,12.44377001953125,-5.6767578125,-0.8632049560546875,-4.37091064453125
1663860969586657800,12.45365771484375,-5.46368408203125,-0.628570556640625,-2.8146820068359375
1663860969596545500,12.463545654296874,-8.123641967773438,-1.3372650146484375,-2.838623046875
1663860969606402600,12.473402587890625,-12.739654541015625,-3.0299530029296875,-4.514556884765625
1663860969616320800,12.48332080078125,-10.714157104492188,-4.9716644287109375,-2.357391357421875
1663860969626208500,12.49320849609375,-8.3582763671875,-5.8862457275390625,-3.236053466796875
1663860969636096300,12.50309619140625,-10.738113403320312,-6.353118896484375,-4.1314849853515625
1663860969645984000,12.51298388671875,-10.163497924804688,-6.491973876953125,-4.5289306640625
1663860969655871700,12.522871826171874,-9.450027465820312,-6.6835174560546875,-5.2017059326171875
1663860969665728800,12.532728759765625,-9.766067504882812,-6.956451416015625,-3.7603912353515625
1663860969675586000,12.5425859375,-7.1204681396484375,-6.6116790771484375,-1.70855712890625
1663860969685504300,12.552504150390625,-4.4054412841796875,-6.015533447265625,-1.9288330078125
1663860969695361500,12.562361572265624,-6.15081787109375,-5.5462646484375,-4.0045928955078125
1663860969705279700,12.57227978515625,-10.096466064453125,-5.58935546875,-5.6087188720703125
1663860969715167200,12.582167236328125,-11.968719482421875,-5.910186767578125,-4.354156494140625
1663860969725055000,12.592054931640625,-10.333480834960938,-6.089752197265625,-2.1514892578125
1663860969734942700,12.601942626953125,-7.3048248291015625,-5.9915924072265625,-1.1076202392578125
1663860969744830500,12.61183056640625,-5.3655242919921875,-6.173553466796875,-0.592864990234375
1663860969754718200,12.62171826171875,-6.019134521484375,-6.966033935546875,-3.542510986328125
1663860969764605700,12.631605712890625,-9.450027465820312,-7.7249908447265625,-5.26873779296875
1663860969774493400,12.641493408203125,-11.207366943359375,-8.907730102539062,-3.793914794921875
1663860969784381200,12.651381103515625,-7.486785888671875,-9.60205078125,-5.00537109375
1663860969794238500,12.661238525390624,-7.027099609375,-8.706619262695312,-5.04608154296875
1663860969804126000,12.6711259765625,-8.959213256835938,-8.601272583007812,-3.6717987060546875
1663860969814013700,12.681013671875,-9.538604736328125,-9.939620971679688,-4.35894775390625
1663860969823901400,12.6909013671875,-11.1810302734375,-11.098419189453125,-2.570465087890625
1663860969833789200,12.7007890625,-9.986328125,-12.843795776367188,-2.1012115478515625
1663860969843677000,12.710677001953124,-8.552200317382812,-13.119125366210938,-4.84735107421875
1663860969853564400,12.720564453125,-11.81549072265625,-12.235671997070312,-2.42681884765625
1663860969863421700,12.730421630859375,-11.00146484375,-12.238052368164062,-2.3502044677734375
1663860969873309400,12.740309326171875,-7.73577880859375,-10.949981689453125,-5.9678497314453125
1663860969883166500,12.75016650390625,-9.526641845703125,-9.218963623046875,-3.14508056640625
1663860969893054200,12.76005419921875,-10.558547973632812,-9.195022583007812,-0.9878997802734375
1663860969902911500,12.769911376953125,-9.804367065429688,-8.93646240234375,-2.8074951171875
1663860969912829700,12.77982958984375,-9.461990356445312,-8.268478393554688,-1.70855712890625
1663860969922717400,12.789717529296874,-6.18194580078125,-8.720977783203125,-3.288726806640625
1663860969932605200,12.799605224609374,-6.1172943115234375,-7.7776641845703125,-5.4554901123046875
1663860969942462200,12.809462158203125,-9.232147216796875,-6.5829620361328125,-2.5728607177734375
1663860969952350000,12.819349853515625,-8.91851806640625,-7.504730224609375,-1.502655029296875
