time,seconds_elapsed,z,y,x
1663860957363969800,0.2309697265625,8.800105094909668,3.057171106338501,-3.0630459785461426
1663860957373857500,0.240857421875,8.939956665039062,2.885673999786377,-2.8143277168273926
1663860957383745300,0.250745361328125,9.038694381713867,2.7325856685638428,-2.6467652320861816
1663860957393633000,0.260633056640625,9.087624549865723,2.6756598949432373,-2.5350148677825928
1663860957403520800,0.270520751953125,9.130035400390625,2.664781093597412,-2.389932870864868
1663860957413408500,0.280408447265625,9.18862533569336,2.664997100830078,-2.1534481048583984
1663860957423296000,0.2902958984375,9.231633186340332,2.691523313522339,-1.924328088760376
1663860957433183700,0.300183837890625,9.253727912902832,2.7355802059173584,-1.748009443283081
1663860957443071500,0.310071533203125,9.268463134765625,2.779031991958618,-1.5946699380874634
1663860957452959200,0.319959228515625,9.275933265686035,2.822111129760742,-1.4707611799240112
1663860957462847000,0.329846923828125,9.273868560791016,2.8722023963928223,-1.3842705488204956
1663860957472734500,0.339734375,9.269635200500488,2.933492422103882,-1.280192255973816
1663860957482591700,0.349591796875,9.269246101379395,3.005948543548584,-1.1026026010513306
1663860957492479500,0.3594794921875,9.268568992614746,3.0712056159973145,-0.9119769334793091
1663860957502367200,0.3693671875,9.260804176330566,3.121025800704956,-0.8167491555213928
1663860957512254700,0.379254638671875,9.248900413513184,3.145019054412842,-0.8585388660430908
1663860957522142500,0.389142578125,9.244208335876465,3.1370184421539307,-0.9349421858787537
1663860957532030200,0.3990302734375,9.256335258483887,3.0959291458129883,-0.9517723917961121
1663860957541918000,0.40891796875,9.274383544921875,3.045732259750366,-0.937923789024353
1663860957551805700,0.4188056640625,9.279207229614258,3.0370473861694336,-0.9181682467460632
1663860957561662700,0.428662841796875,9.272225379943848,3.077110767364502,-0.853001594543457
1663860957571550500,0.438550537109375,9.263985633850098,3.126485586166382,-0.7576467394828796
1663860957581407700,0.44840771484375,9.262975692749023,3.149421453475952,-0.6699328422546387
1663860957591264800,0.4582646484375,9.268514633178711,3.1450037956237793,-0.6115467548370361
1663860957601183000,0.468182861328125,9.27291488647461,3.136932611465454,-0.5857506394386292
1663860957611070700,0.47807080078125,9.275094032287598,3.134018659591675,-0.5665346384048462
1663860957620958500,0.48795849609375,9.272863388061523,3.143876552581787,-0.5481213927268982
1663860957630846200,0.49784619140625,9.264533042907715,3.173396348953247,-0.5180413126945496
1663860957640734000,0.50773388671875,9.248661994934082,3.2264244556427,-0.4720408022403717
1663860957650621400,0.517621337890625,9.230010032653809,3.2858009338378906,-0.42520540952682495
1663860957660509200,0.52750927734375,9.21627426147461,3.32818341255188,-0.3922615647315979
1663860957670397000,0.53739697265625,9.208573341369629,3.349810838699341,-0.3890068531036377
1663860957680284700,0.54728466796875,9.20887279510498,3.34700608253479,-0.4056972563266754
1663860957690172400,0.55717236328125,9.21882152557373,3.31740403175354,-0.42254340648651123
1663860957700029400,0.567029541015625,9.229588508605957,3.287276268005371,-0.4229780435562134
1663860957709917200,0.576917236328125,9.236821174621582,3.2695329189300537,-0.4020916521549225
1663860957719805000,0.586804931640625,9.238557815551758,3.2702033519744873,-0.3538402020931244
1663860957729692700,0.596692626953125,9.23108959197998,3.2974658012390137,-0.28995785117149353
1663860957739580200,0.606580078125,9.217523574829102,3.339931011199951,-0.22910253703594208
1663860957749468000,0.616468017578125,9.206415176391602,3.373372793197632,-0.1807108372449875
1663860957759355600,0.626355712890625,9.202035903930664,3.3871846199035645,-0.14107514917850494
1663860957769213000,0.636212890625,9.201945304870605,3.3888309001922607,-0.10193470865488052
1663860957779100400,0.646100341796875,9.20406723022461,3.383777379989624,-0.07466177642345428
1663860957788988200,0.65598828125,9.207111358642578,3.3759002685546875,-0.052764687687158585
1663860957798876000,0.6658759765625,9.214385986328125,3.3562886714935303,-0.02830321155488491
1663860957808763600,0.675763671875,9.226190567016602,3.3238086700439453,-0.009384667500853539
1663860957818651400,0.6856513671875,9.236888885498047,3.2939651012420654,0.0074287583120167255
1663860957828508400,0.69550830078125,9.241695404052734,3.2803542613983154,0.027110449969768524
1663860957838396200,0.705396240234375,9.24062442779541,3.2831265926361084,0.048296310007572174
1663860957848284000,0.715283935546875,9.237234115600586,3.2921547889709473,0.07486720383167267
1663860957858171600,0.725171630859375,9.23350715637207,3.301626205444336,0.10954872518777847
1663860957868028700,0.735028564453125,9.228182792663574,3.3146791458129883,0.1547345519065857
1663860957877886000,0.744885986328125,9.223030090332031,3.32682728767395,0.19577999413013458
1663860957887804200,0.75480419921875,9.222989082336426,3.3256008625030518,0.21734432876110077
1663860957897692000,0.76469189453125,9.228971481323242,3.30890154838562,0.2183077335357666
1663860957907579600,0.77457958984375,9.23905086517334,3.281222343444824,0.209525927901268
1663860957917467100,0.784467041015625,9.249798774719238,3.250933885574341,0.2074587643146515
1663860957927355000,0.79435498046875,9.256296157836914,3.2315919399261475,0.21950483322143555
1663860957937242600,0.80424267578125,9.255499839782715,3.231820583343506,0.24786995351314545
1663860957947130400,0.81413037109375,9.247786521911621,3.2503647804260254,0.28977179527282715
1663860957956987400,0.8239873046875,9.237624168395996,3.2756290435791016,0.3269983232021332
1663860957966875100,0.833875244140625,9.231171607971191,3.2909224033355713,0.35452792048454285
1663860957976732400,0.843732421875,9.230644226074219,3.2903850078582764,0.37277674674987793
1663860957986620200,0.8536201171875,9.235343933105469,3.276337146759033,0.3800591826438904
1663860957996466400,0.863466552734375,9.243936538696289,3.2511496543884277,0.3873749077320099
1663860958006384600,0.873384521484375,9.25679874420166,3.2141947746276855,0.3886019289493561
1663860958016242000,0.883241943359375,9.270654678344727,3.1742398738861084,0.38670021295547485
1663860958026129700,0.893129638671875,9.280864715576172,3.1452701091766357,0.3784264326095581
1663860958036017400,0.903017333984375,9.283035278320312,3.1401326656341553,0.36770525574684143
1663860958045905000,0.91290478515625,9.280098915100098,3.147712230682373,0.3769012987613678
1663860958055792600,0.922792724609375,9.275164604187012,3.1601526737213135,0.39387211203575134
1663860958065650000,0.93264990234375,9.270496368408203,3.173327684402466,0.39782536029815674
1663860958075568000,0.942568115234375,9.267131805419922,3.1834394931793213,0.39542827010154724
1663860958085456000,0.952455810546875,9.263846397399902,3.192878007888794,0.3963351845741272
1663860958095343400,0.96234326171875,9.259726524353027,3.2032694816589355,0.40856263041496277
1663860958105231000,0.972231201171875,9.254335403442383,3.2161409854888916,0.4290611743927002
1663860958115118800,0.982118896484375,9.24954891204834,3.227353811264038,0.44768577814102173
1663860958124976000,0.99197607421875,9.24846076965332,3.228888988494873,0.45893624424934387
1663860958134863600,1.001863525390625,9.250663757324219,3.221998929977417,0.4629513621330261
1663860958144751400,1.01175146484375,9.25353717803955,3.213404893875122,0.46526846289634705
1663860958154639000,1.02163916015625,9.254331588745117,3.209909439086914,0.4735209047794342
1663860958164526800,1.03152685546875,9.251710891723633,3.214709758758545,0.4917891025543213
1663860958174414600,1.04141455078125,9.24649715423584,3.2251994609832764,0.520361065864563
1663860958184302000,1.051302001953125,9.241150856018066,3.234961748123169,0.5536515116691589
1663860958194189800,1.06118994140625,9.238419532775879,3.2381837368011475,0.5797973275184631
1663860958204077600,1.07107763671875,9.240357398986816,3.2299704551696777,0.5945388078689575
1663860958213934800,1.080934814453125,9.245372772216797,3.2145485877990723,0.6001359820365906
1663860958223822600,1.090822509765625,9.251484870910645,3.1974172592163086,0.5974491238594055
1663860958233710000,1.1007099609375,9.257148742675781,3.181710958480835,0.5935524702072144
1663860958243597800,1.110597900390625,9.260950088500977,3.169877767562866,0.5975573658943176
1663860958253485600,1.120485595703125,9.263120651245117,3.1613998413085938,0.6087111830711365
1663860958263342800,1.1303427734375,9.264561653137207,3.154719114303589,0.6213141679763794
1663860958273199900,1.140199951171875,9.266106605529785,3.147789239883423,0.633306086063385
1663860958283118000,1.1501181640625,9.267662048339844,3.1415045261383057,0.6416917443275452
1663860958293005800,1.160005859375,9.268720626831055,3.1373050212860107,0.6469448804855347
1663860958302893600,1.1698935546875,9.269518852233887,3.1337926387786865,0.6524975299835205
1663860958312781300,1.17978125,9.270445823669434,3.1291213035583496,0.6616830229759216
1663860958322668800,1.189668701171875,9.270679473876953,3.125500202178955,0.6753734350204468
1663860958332556500,1.199556640625,9.270185470581055,3.123213529586792,0.6925147175788879
1663860958342444300,1.2094443359375,9.269672393798828,3.121385335922241,0.7074648141860962
1663860958352332000,1.21933203125,9.267616271972656,3.124058246612549,0.7224623560905457
1663860958362219800,1.2292197265625,9.262328147888184,3.134446859359741,0.7449169754981995
1663860958372107300,1.239107177734375,9.252434730529785,3.15028977394104,0.7990735173225403
1663860958381964500,1.248964599609375,9.237174034118652,3.1692988872528076,0.8947232365608215
1663860958391852300,1.258852294921875,9.216178894042969,3.1865415573120117,1.0384501218795776
1663860958401740000,1.268739990234375,9.189310073852539,3.193450927734375,1.2364609241485596
1663860958411627500,1.27862744140625,9.153841972351074,3.1825759410858154,1.4995898008346558
1663860958421515300,1.288515380859375,9.103564262390137,3.151088237762451,1.83470618724823
1663860958431403000,1.298403076171875,9.039241790771484,3.0927932262420654,2.2129416465759277
1663860958441290800,1.308290771484375,8.970988273620605,3.0121185779571533,2.572720527648926
1663860958451148000,1.31814794921875,8.915589332580566,2.9241275787353516,2.8516905307769775
1663860958461035500,1.328035400390625,8.873939514160156,2.8351454734802246,3.063582420349121
1663860958470923300,1.33792333984375,8.842040061950684,2.742981433868408,3.234929323196411
1663860958480780500,1.347780517578125,8.80093765258789,2.643502712249756,3.424293041229248
1663860958490637600,1.357637451171875,8.704835891723633,2.5665271282196045,3.716068744659424
1663860958500525300,1.367525390625,8.527848243713379,2.5416617393493652,4.121426105499268
1663860958510382600,1.377382568359375,8.258613586425781,2.563123941421509,4.6255903244018555
1663860958520300800,1.38730078125,7.898374557495117,2.6082961559295654,5.194500923156738
1663860958530188500,1.3971884765625,7.477775573730469,2.6843459606170654,5.748699188232422
1663860958540076000,1.407075927734375,7.009776592254639,2.800032377243042,6.260449409484863
1663860958549963800,1.4169638671875,6.465890407562256,2.9161570072174072,6.771903038024902
1663860958559821000,1.426821044921875,5.793562412261963,2.973062515258789,7.332524299621582
1663860958569739300,1.4367392578125,4.969006538391113,2.952430248260498,7.922278881072998
1663860958579596300,1.44659619140625,4.064265251159668,2.8591675758361816,8.454424858093262
1663860958589484000,1.456484130859375,3.136723279953003,2.6996865272521973,8.890615463256836
1663860958599341300,1.46634130859375,2.2246952056884766,2.460401773452759,9.228625297546387
1663860958609259500,1.476259521484375,1.3565528392791748,2.1145212650299072,9.479395866394043
1663860958619147300,1.486147216796875,0.5621787309646606,1.6442716121673584,9.651461601257324
1663860958629034800,1.49603466796875,-0.15173059701919556,1.0325932502746582,9.750954627990723
1663860958638922500,1.505922607421875,-0.7728953957557678,0.28685298562049866,9.771936416625977
1663860958648810200,1.515810302734375,-1.305724024772644,-0.5476515889167786,9.70389461517334
1663860958658698000,1.525697998046875,-1.7467330694198608,-1.40178644657135,9.547475814819336
1663860958668585700,1.535585693359375,-2.0908799171447754,-2.2178657054901123,9.320926666259766
1663860958678473200,1.54547314453125,-2.3211536407470703,-2.974048376083374,9.051942825317383
1663860958688330500,1.55533056640625,-2.4232985973358154,-3.671173095703125,8.764730453491211
1663860958698187800,1.565187744140625,-2.39849591255188,-4.3215556144714355,8.470051765441895
1663860958708075500,1.575075439453125,-2.263808012008667,-4.9365715980529785,8.165526390075684
1663860958717963000,1.584962890625,-2.069023609161377,-5.508436679840088,7.845167636871338
1663860958727820300,1.5948203125,-1.8670649528503418,-6.02181339263916,7.511471748352051
1663860958737708000,1.6047080078125,-1.675168514251709,-6.4654154777526855,7.180710792541504
1663860958747626200,1.614626220703125,-1.4916810989379883,-6.8410115242004395,6.8662824630737305
1663860958757514000,1.624513916015625,-1.303447961807251,-7.157987117767334,6.575305461883545
1663860958767401500,1.6344013671875,-1.0943907499313354,-7.432085990905762,6.303712368011475
1663860958777289200,1.644289306640625,-0.8625154495239258,-7.671407222747803,6.047807216644287
1663860958787177000,1.654177001953125,-0.6157538890838623,-7.874504089355469,5.812351226806641
1663860958797064700,1.664064697265625,-0.363412469625473,-8.037492752075195,5.606873035430908
1663860958806952400,1.673952392578125,-0.11833266168832779,-8.15361499786377,5.4474711418151855
1663860958816840000,1.68383984375,0.09747376292943954,-8.2144775390625,5.355674743652344
1663860958826727700,1.693727783203125,0.2641577124595642,-8.219141960144043,5.342874526977539
1663860958836615400,1.703615478515625,0.3973431885242462,-8.180152893066406,5.394219875335693
1663860958846503200,1.713503173828125,0.5246327519416809,-8.108684539794922,5.490390300750732
1663860958856360200,1.723360107421875,0.6293402314186096,-8.00100040435791,5.6354522705078125
1663860958866248000,1.733248046875,0.7170648574829102,-7.85961389541626,5.820882797241211
1663860958876105200,1.743105224609375,0.790470540523529,-7.6966142654418945,6.025586128234863
1663860958885993000,1.752992919921875,0.8521733283996582,-7.523159980773926,6.232676029205322
1663860958895850000,1.76285009765625,0.9115949273109436,-7.344210147857666,6.434435844421387
1663860958905768200,1.772768310546875,0.9380293488502502,-7.159274101257324,6.635909080505371
1663860958915625500,1.78262548828125,0.9177602529525757,-6.9763102531433105,6.830753803253174
1663860958925513200,1.79251318359375,0.8665803074836731,-6.7973432540893555,7.015379905700684
1663860958935370200,1.802370361328125,0.8048077821731567,-6.623124122619629,7.187272548675537
1663860958945288400,1.812288330078125,0.7526931166648865,-6.455262184143066,7.343937873840332
1663860958955176200,1.82217626953125,0.7156810760498047,-6.305965423583984,7.476161479949951
1663860958965064000,1.83206396484375,0.6815933585166931,-6.199150085449219,7.568114757537842
1663860958974951700,1.84195166015625,0.6318818926811218,-6.124278545379639,7.6331071853637695
1663860958984839400,1.85183935546875,0.5530127882957458,-6.081474781036377,7.673344612121582
1663860958994727000,1.861726806640625,0.4512179493904114,-6.05728006362915,7.699100971221924
1663860959004614700,1.87161474609375,0.3140699863433838,-5.982781887054443,7.763895511627197
1663860959014502400,1.88150244140625,0.1933935433626175,-5.893462181091309,7.83582067489624
1663860959024390100,1.89139013671875,0.13508574664592743,-5.827396869659424,7.886290073394775
1663860959034247200,1.9012470703125,0.1291157305240631,-5.769260883331299,7.929018497467041
1663860959044135000,1.911135009765625,0.1502474993467331,-5.714296340942383,7.9683518409729
1663860959054022700,1.921022705078125,0.20313245058059692,-5.6578569412231445,8.007357597351074
1663860959063910400,1.930910400390625,0.2587644159793854,-5.597116470336914,8.048336029052734
1663860959073798100,1.940798095703125,0.26545360684394836,-5.530468463897705,8.094061851501465
1663860959083685600,1.950685546875,0.24841290712356567,-5.467911720275879,8.136990547180176
1663860959093573400,1.960573486328125,0.25885140895843506,-5.420471668243408,8.16834545135498
1663860959103461000,1.970461181640625,0.2606073319911957,-5.407456398010254,8.176912307739258
1663860959113348900,1.980348876953125,0.2285349816083908,-5.414069652557373,8.173494338989258
1663860959123236600,1.990236572265625,0.17900454998016357,-5.416195869445801,8.173320770263672
1663860959133093600,2.00009375,0.14854083955287933,-5.428016662597656,8.166085243225098
1663860959142951000,2.009950927734375,0.14590241014957428,-5.456531047821045,8.14710807800293
1663860959152838700,2.019838623046875,0.14977304637432098,-5.487960338592529,8.125900268554688
1663860959162726400,2.029726318359375,0.13957060873508453,-5.517699241638184,8.105917930603027
1663860959172614000,2.03961376953125,0.11914725601673126,-5.549623489379883,8.084421157836914
1663860959182471200,2.04947119140625,0.09770054370164871,-5.583354949951172,8.06145191192627
1663860959192389400,2.059389404296875,0.06963110715150833,-5.631958484649658,8.027862548828125
1663860959202277000,2.069277099609375,0.03205014765262604,-5.706092834472656,7.975579738616943
1663860959212164900,2.079164794921875,-0.01440459955483675,-5.821835041046143,7.891540050506592
1663860959222052400,2.08905224609375,-0.06544552743434906,-5.985343933105469,7.767995834350586
1663860959231940000,2.098940185546875,-0.11687900125980377,-6.1865668296813965,7.608096122741699
1663860959241797400,2.10879736328125,-0.15184131264686584,-6.3940110206604,7.4339728355407715
1663860959251685000,2.11868505859375,-0.11183588206768036,-6.546957969665527,7.300357818603516
1663860959261572600,2.128572509765625,0.0046189273707568645,-6.632347106933594,7.223734378814697
1663860959271460400,2.13846044921875,0.16102690994739532,-6.699683666229248,7.159518718719482
1663860959281317600,2.148317626953125,0.3123834729194641,-6.7747483253479,7.083471775054932
1663860959291205400,2.158205322265625,0.38343507051467896,-6.856474876403809,7.000865459442139
1663860959301092900,2.1680927734375,0.40354296565055847,-6.931950092315674,6.924999237060547
1663860959310980600,2.177980712890625,0.4370602071285248,-7.000452518463135,6.853687286376953
1663860959320868400,2.187868408203125,0.468266099691391,-7.0666632652282715,6.783316612243652
1663860959330756000,2.197756103515625,0.47448477149009705,-7.124905109405518,6.721679210662842
1663860959340643800,2.207643798828125,0.4718686044216156,-7.166014671325684,6.678021430969238
1663860959350531300,2.21753125,0.49134811758995056,-7.187161922454834,6.653846263885498
1663860959360388600,2.227388671875,0.5647742748260498,-7.19413423538208,6.6404709815979
1663860959370276400,2.2372763671875,0.7237998843193054,-7.198530197143555,6.6202473640441895
1663860959380164000,2.2471640625,0.9188032746315002,-7.231485843658447,6.5598626136779785
1663860959390021000,2.257021240234375,1.1464052200317383,-7.302064418792725,6.4448418617248535
1663860959399939300,2.266939208984375,1.268256425857544,-7.441061019897461,6.260392665863037
1663860959409796600,2.276796630859375,1.0869393348693848,-7.6908183097839355,5.9866743087768555
1663860959419684400,2.286684326171875,0.7541037201881409,-7.988089561462402,5.638452529907227
1663860959429572000,2.296572021484375,0.5527987480163574,-8.243983268737793,5.282192707061768
1663860959439459600,2.30645947265625,0.5267492532730103,-8.414735794067383,5.00850772857666
1663860959449316900,2.31631689453125,0.5529925227165222,-8.542041778564453,4.7851948738098145
1663860959459204600,2.32620458984375,0.58331298828125,-8.659525871276855,4.565384864807129
1663860959469092400,2.33609228515625,0.6293412446975708,-8.711545944213867,4.459067344665527
1663860959478979800,2.345979736328125,0.636056661605835,-8.719083786010742,4.443355083465576
1663860959488837000,2.355837158203125,0.6335104703903198,-8.727680206298828,4.426811218261719
1663860959498755300,2.36575537109375,0.641166090965271,-8.733036994934082,4.415127754211426
1663860959508643000,2.37564306640625,0.6445377469062805,-8.733987808227539,4.412755966186523
1663860959518530800,2.38553076171875,0.6464061737060547,-8.733426094055176,4.413593292236328
1663860959528418300,2.395418212890625,0.6469125747680664,-8.729848861694336,4.420591831207275
1663860959538306000,2.40530615234375,0.6438668370246887,-8.719522476196289,4.441368579864502
1663860959548193800,2.41519384765625,0.6259545087814331,-8.69348430633545,4.494651794433594
1663860959558081500,2.42508154296875,0.5847147703170776,-8.662879943847656,4.558836460113525
1663860959567969300,2.43496923828125,0.5489406585693359,-8.649913787841797,4.587813854217529
1663860959577826300,2.444826416015625,0.515802800655365,-8.652729034423828,4.586350917816162
1663860959587683600,2.45468359375,0.45950204133987427,-8.654034614562988,4.58987283706665
1663860959597571300,2.4645712890625,0.3805523216724396,-8.654441833496094,4.596324920654297
1663860959607458800,2.474458740234375,0.28921955823898315,-8.665769577026367,4.581611633300781
1663860959617346600,2.4843466796875,0.1903310865163803,-8.686358451843262,4.54767370223999
1663860959627203800,2.494203857421875,0.09458651393651962,-8.707185745239258,4.510693073272705
1663860959637091600,2.504091552734375,0.008735640905797482,-8.72955322265625,4.468244552612305
1663860959646979300,2.513979248046875,-0.07209836691617966,-8.75377368927002,4.42002534866333
1663860959656897500,2.5238974609375,-0.153317391872406,-8.776564598083496,4.372507095336914
1663860959666754600,2.533754638671875,-0.21884265542030334,-8.794906616210938,4.332681655883789
1663860959676642300,2.543642333984375,-0.2510857582092285,-8.812752723693848,4.294499397277832
1663860959686530000,2.553530029296875,-0.2481275200843811,-8.83311939239502,4.252623558044434
1663860959696417800,2.563417724609375,-0.2215634286403656,-8.850886344909668,4.217002868652344
1663860959706305300,2.57330517578125,-0.18630650639533997,-8.86073112487793,4.197989463806152
1663860959716162600,2.58316259765625,-0.15114697813987732,-8.863286972045898,4.19400691986084
1663860959726080800,2.593080810546875,-0.12465663254261017,-8.858112335205078,4.205793380737305
1663860959735938000,2.60293798828125,-0.12439639121294022,-8.855107307434082,4.212125778198242
1663860959745825500,2.612825439453125,-0.12353034317493439,-8.856184005737305,4.209885120391846
1663860959755713300,2.62271337890625,-0.12448540329933167,-8.864485740661621,4.192349910736084
1663860959765601000,2.63260107421875,-0.1275511085987091,-8.878766059875488,4.161924362182617
1663860959775488800,2.64248876953125,-0.1134534701704979,-8.896915435791016,4.123397350311279
1663860959785376500,2.65237646484375,-0.07882091403007507,-8.919476509094238,4.075184345245361
1663860959795233500,2.662233642578125,-0.03156561404466629,-8.946561813354492,4.016021251678467
1663860959805151700,2.67215185546875,0.012994395568966866,-8.975360870361328,3.9513418674468994
1663860959815009000,2.682009033203125,0.037627846002578735,-9.0036039352417,3.8863985538482666
1663860959824896800,2.691896728515625,0.05111951380968094,-9.034991264343262,3.8127036094665527
1663860959834784300,2.7017841796875,0.05798501521348953,-9.073002815246582,3.7212414741516113
1663860959844672000,2.711672119140625,0.07489532977342606,-9.115280151367188,3.616136312484741
1663860959854559700,2.721559814453125,0.10770834237337112,-9.159523963928223,3.501699686050415
1663860959864447500,2.731447509765625,0.15379369258880615,-9.20671558380127,3.373889446258545
1663860959874335200,2.741335205078125,0.1981293261051178,-9.262092590332031,3.2163288593292236
1663860959884192300,2.751192138671875,0.2475445717573166,-9.329293251037598,3.012209177017212
1663860959894080000,2.761080078125,0.2945590317249298,-9.408221244812012,2.7511818408966064
1663860959903967700,2.7709677734375,0.313262403011322,-9.49184799194336,2.444805145263672
1663860959913855500,2.78085546875,0.31564220786094666,-9.570954322814941,2.1136701107025146
1663860959923743200,2.7907431640625,0.3225642442703247,-9.64841079711914,1.724677562713623
1663860959933600300,2.800600341796875,0.33112776279449463,-9.714597702026367,1.2989659309387207
1663860959943518500,2.8105185546875,0.33114078640937805,-9.761634826660156,0.8781936764717102
1663860959953406200,2.82040625,0.32365673780441284,-9.78938102722168,0.4833749532699585
1663860959963294000,2.8302939453125,0.27254757285118103,-9.802184104919434,0.11532269418239594
1663860959973181700,2.840181640625,0.2133808732032776,-9.801945686340332,-0.21616752445697784
1663860959983069200,2.850069091796875,0.18548700213432312,-9.792436599731445,-0.4941428303718567
1663860959992957000,2.85995703125,0.18540143966674805,-9.779621124267578,-0.7035767436027527
1663860960002844700,2.8698447265625,0.20051135122776031,-9.769181251525879,-0.8326479196548462
1663860960012732400,2.879732421875,0.22203435003757477,-9.763568878173828,-0.8909613490104675
1663860960022589400,2.88958935546875,0.24979162216186523,-9.761347770690918,-0.9077854752540588
1663860960032477200,2.899477294921875,0.2826135754585266,-9.760478973388672,-0.9075078964233398
1663860960042365000,2.909364990234375,0.30084946751594543,-9.761565208435059,-0.8897894024848938
1663860960052252700,2.919252685546875,0.28650060296058655,-9.765693664550781,-0.8482515215873718
1663860960062140400,2.929140380859375,0.23677653074264526,-9.771923065185547,-0.7898411750793457
1663860960072028200,2.939028076171875,0.1496703028678894,-9.778058052062988,-0.7331861257553101
1663860960081915600,2.94891552734375,0.030792780220508575,-9.782098770141602,-0.6928034424781799
1663860960091773000,2.95877294921875,-0.08108612895011902,-9.782766342163086,-0.6791914701461792
1663860960101660700,2.96866064453125,-0.12956133484840393,-9.78110122680664,-0.6954559683799744
1663860960111548400,2.97854833984375,-0.11075644195079803,-9.779367446899414,-0.7225682735443115
1663860960121436000,2.988435791015625,-0.09230678528547287,-9.778444290161133,-0.737490713596344
1663860960131323600,2.99832373046875,-0.08821111917495728,-9.778223991394043,-0.7408994436264038
1663860960141211400,3.00821142578125,-0.08773069083690643,-9.777953147888184,-0.7445341348648071
1663860960151099100,3.01809912109375,-0.08419278264045715,-9.77766227722168,-0.7487360835075378
1663860960160956200,3.0279560546875,-0.07763364166021347,-9.77744197845459,-0.7523267269134521
1663860960170844000,3.037843994140625,-0.06668461114168167,-9.777217864990234,-0.7562686204910278
1663860960180701200,3.047701171875,-0.05682724714279175,-9.776963233947754,-0.7603520750999451
1663860960190589000,3.0575888671875,-0.053789686411619186,-9.776727676391602,-0.7636081576347351
1663860960200476400,3.067476318359375,-0.06060630455613136,-9.776430130004883,-0.7669002413749695
1663860960210364200,3.0773642578125,-0.07823865860700607,-9.775826454162598,-0.77297043800354
1663860960220252000,3.087251953125,-0.10383345931768417,-9.774840354919434,-0.7823715209960938
1663860960230139600,3.0971396484375,-0.13375051319599152,-9.773674964904785,-0.7923361659049988
1663860960240027400,3.10702734375,-0.1700579971075058,-9.772499084472656,-0.799830436706543
1663860960249915000,3.116914794921875,-0.2241385132074356,-9.770366668701172,-0.8124545812606812
1663860960259802600,3.126802734375,-0.2995126247406006,-9.759181022644043,-0.9160156846046448
1663860960269690400,3.1366904296875,-0.31113702058792114,-9.739156723022461,-1.10562264919281
1663860960279547600,3.146547607421875,-0.27645254135131836,-9.713361740112305,-1.3208173513412476
1663860960289435100,3.15643505859375,-0.23704861104488373,-9.677228927612305,-1.5701768398284912
1663860960299323000,3.166322998046875,-0.18973563611507416,-9.63318157196045,-1.826528549194336
1663860960309210600,3.176210693359375,-0.13424856960773468,-9.58353328704834,-2.075634002685547
1663860960319098400,3.186098388671875,-0.046117834746837616,-9.527436256408691,-2.322976589202881
1663860960328986000,3.195986083984375,0.07688487321138382,-9.463861465454102,-2.569009780883789
1663860960338873900,3.205873779296875,0.1998763531446457,-9.397253036499023,-2.796800136566162
1663860960348761300,3.21576123046875,0.29366955161094666,-9.335504531860352,-2.9887287616729736
1663860960358649000,3.225649169921875,0.4044030010700226,-9.283249855041504,-3.1349833011627197
1663860960368506400,3.23550634765625,0.564062237739563,-9.243043899536133,-3.227748155593872
1663860960378394000,3.24539404296875,0.7595983743667603,-9.214960098266602,-3.267707109451294
1663860960388281600,3.255281494140625,0.9502173662185669,-9.197652816772461,-3.266597032546997
1663860960398169300,3.26516943359375,1.10299813747406,-9.191509246826172,-3.235727310180664
1663860960408057000,3.27505712890625,1.1913126707077026,-9.215458869934082,-3.1347179412841797
1663860960417944800,3.28494482421875,1.1356955766677856,-9.271523475646973,-2.9865407943725586
1663860960427832600,3.29483251953125,1.1318480968475342,-9.283364295959473,-2.9510128498077393
1663860960437689600,3.304689697265625,1.1950973272323608,-9.259137153625488,-3.00175142288208
1663860960447547000,3.314546875,1.2669059038162231,-9.239716529846191,-3.0319910049438477
1663860960457434600,3.3244345703125,1.3185973167419434,-9.231114387512207,-3.036151647567749
1663860960467322000,3.334322021484375,1.329522967338562,-9.228797912597656,-3.0384299755096436
1663860960477179400,3.344179443359375,1.3093005418777466,-9.233115196228027,-3.034090042114258
1663860960487067100,3.354067138671875,1.2641756534576416,-9.240581512451172,-3.0304934978485107
1663860960496955000,3.363954833984375,1.2094991207122803,-9.24178409576416,-3.049086809158325
1663860960506842400,3.37384228515625,1.15506112575531,-9.235028266906738,-3.090381383895874
1663860960516730000,3.383730224609375,1.100236415863037,-9.224028587341309,-3.142796516418457
1663860960526617900,3.393617919921875,1.035138726234436,-9.212519645690918,-3.1981825828552246
1663860960536505600,3.403505615234375,0.9470576047897339,-9.202648162841797,-3.2534191608428955
1663860960546362600,3.413362548828125,0.8386193513870239,-9.194604873657227,-3.3055038452148438
1663860960556250400,3.42325048828125,0.7196070551872253,-9.187541961669922,-3.3528552055358887
1663860960566138000,3.43313818359375,0.6024677157402039,-9.181410789489746,-3.392510175704956
1663860960576025900,3.44302587890625,0.5019137263298035,-9.176300048828125,-3.4225687980651855
1663860960585913600,3.45291357421875,0.41736462712287903,-9.170970916748047,-3.448112964630127
1663860960595770600,3.4627705078125,0.35485947132110596,-9.162811279296875,-3.4766838550567627
1663860960605658400,3.472658447265625,0.32488954067230225,-9.152579307556152,-3.506438970565796
1663860960615546000,3.482546142578125,0.3158637583255768,-9.143527030944824,-3.530797004699707
1663860960625433900,3.492433837890625,0.3070659637451172,-9.134671211242676,-3.5544188022613525
1663860960635321600,3.502321533203125,0.2814525365829468,-9.125813484191895,-3.5792033672332764
1663860960645209000,3.512208984375,0.2506236135959625,-9.118088722229004,-3.601116180419922
1663860960655096800,3.522096923828125,0.2400301694869995,-9.110376358032227,-3.6212990283966064
1663860960664984600,3.531984619140625,0.24101313948631287,-9.101080894470215,-3.6445345878601074
1663860960674872300,3.541872314453125,0.2355860471725464,-9.09195327758789,-3.6675984859466553
1663860960684729300,3.551729248046875,0.24745473265647888,-9.085335731506348,-3.6831815242767334
1663860960704504800,3.5715048828125,0.3804551362991333,-9.075348854064941,-3.696442127227783
1663860960714392600,3.581392578125,0.4630873203277588,-9.070725440979004,-3.6983609199523926
1663860960724249600,3.59124951171875,0.5207908153533936,-9.06889533996582,-3.6951730251312256
1663860960734137300,3.601137451171875,0.5356832146644592,-9.065224647521973,-3.7020440101623535
1663860960744025000,3.611025146484375,0.5151820182800293,-9.055445671081543,-3.7287917137145996
1663860960763800600,3.630800537109375,0.42102447152137756,-9.013957023620605,-3.8394906520843506
1663860960773688000,3.64068798828125,0.3683929443359375,-8.990428924560547,-3.8995988368988037
1663860960783575800,3.650575927734375,0.29958149790763855,-8.968218803405762,-3.956221342086792
1663860960793463600,3.660463623046875,0.21242655813694,-8.947458267211914,-4.008522033691406
1663860960803351300,3.670351318359375,0.11504874378442764,-8.925520896911621,-4.061061382293701
1663860960813239000,3.680239013671875,0.02011764980852604,-8.902300834655762,-4.113274097442627
1663860960823096000,3.690095947265625,-0.06330479681491852,-8.878678321838379,-4.163586139678955
1663860960832983800,3.69998388671875,-0.13019166886806488,-8.852313995361328,-4.2178168296813965
1663860960842871600,3.70987158203125,-0.17546194791793823,-8.821415901184082,-4.280447483062744
1663860960852759300,3.71975927734375,-0.2016494870185852,-8.786049842834473,-4.351442813873291
1663860960862616300,3.7296162109375,-0.20931659638881683,-8.748157501220703,-4.426771640777588
1663860960872473600,3.7394736328125,-0.19170831143856049,-8.709979057312012,-4.50221061706543
1663860960882391800,3.749391845703125,-0.1447393149137497,-8.670504570007324,-4.57949686050415
1663860960892249000,3.7592490234375,-0.074680857360363,-8.629280090332031,-4.658364295959473
1663860960902167300,3.769167236328125,0.01289212517440319,-8.587586402893066,-4.735353946685791
1663860960912054800,3.7790546875,0.11540472507476807,-8.547945976257324,-4.805172443389893
1663860960921942500,3.788942626953125,0.2257598638534546,-8.511249542236328,-4.866009712219238
1663860960931830300,3.798830322265625,0.33169594407081604,-8.47828483581543,-4.917220592498779
1663860960941718000,3.808718017578125,0.41796204447746277,-8.448248863220215,-4.96213436126709
1663860960951605800,3.818605712890625,0.47811225056648254,-8.417593955993652,-5.008584022521973
1663860960961462800,3.828462890625,0.5155938267707825,-8.3828763961792,-5.062798500061035
1663860960971350500,3.8383505859375,0.5314769744873047,-8.341052055358887,-5.129793167114258
1663860960981238300,3.84823828125,0.5217778086662292,-8.294329643249512,-5.205978870391846
1663860960991095300,3.85809521484375,0.4882770776748657,-8.243651390075684,-5.2890625
1663860961000983000,3.867983154296875,0.445032000541687,-8.187737464904785,-5.378968238830566
1663860961010870800,3.877870849609375,0.4621315598487854,-8.113816261291504,-5.488424301147461
1663860961020758500,3.887758544921875,0.5283094048500061,-8.03414249420166,-5.598555564880371
1663860961030646300,3.897646240234375,0.6519798040390015,-7.9444708824157715,-5.712328910827637
1663860961040534000,3.907533935546875,0.8204054236412048,-7.84232759475708,-5.830541133880615
1663860961050421500,3.91742138671875,1.008535623550415,-7.734753131866455,-5.943639278411865
1663860961060309200,3.927309326171875,1.1751987934112549,-7.627885341644287,-6.0501790046691895
1663860961070197000,3.937197021484375,1.2982131242752075,-7.520262718200684,-6.158789157867432
1663860961080084700,3.947084716796875,1.3932360410690308,-7.411748886108398,-6.268592834472656
1663860961089941800,3.956941650390625,1.4906272888183594,-7.303435802459717,-6.372459888458252
1663860961099860000,3.96685986328125,1.5942171812057495,-7.193069934844971,-6.472141265869141
1663860961109747700,3.976747802734375,1.6776502132415771,-7.081392288208008,-6.573413848876953
1663860961119635500,3.986635498046875,1.7356700897216797,-6.966656684875488,-6.680084705352783
1663860961129523200,3.996523193359375,1.792220115661621,-6.845310211181641,-6.789702415466309
1663860961139380200,4.006380126953125,1.8621679544448853,-6.713878631591797,-6.901198863983154
1663860961149237500,4.016237548828125,1.9366790056228638,-6.570194244384766,-7.017992973327637
1663860961159125200,4.026125244140625,2.0070273876190186,-6.41487979888916,-7.140836238861084
1663860961169043500,4.03604345703125,2.068019390106201,-6.2477827072143555,-7.270411491394043
1663860961178931200,4.04593115234375,2.1209237575531006,-6.067724704742432,-7.406401634216309
1663860961188818700,4.055818603515625,2.170621156692505,-5.877542018890381,-7.544089317321777
1663860961198706400,4.06570654296875,2.204944372177124,-5.684434413909912,-7.680872917175293
1663860961208594200,4.07559423828125,2.2124838829040527,-5.492627143859863,-7.817055702209473
1663860961218482000,4.08548193359375,2.2029030323028564,-5.30426549911499,-7.948733806610107
1663860961228369700,4.09536962890625,2.188199996948242,-5.119157314300537,-8.073189735412598
1663860961238257200,4.105257080078125,2.1750123500823975,-4.937231540679932,-8.189229011535645
1663860961248145000,4.115144775390625,2.1678500175476074,-4.759543418884277,-8.295635223388672
1663860961258032600,4.12503271484375,2.1607377529144287,-4.584532737731934,-8.395454406738281
1663860961277759000,4.144759033203125,2.108682632446289,-4.237624168395996,-8.588735580444336
1663860961287646500,4.154646484375,2.070488214492798,-4.06755256652832,-8.679774284362793
1663860961297534200,4.1645341796875,2.0272486209869385,-3.9009759426116943,-8.766016006469727
1663860961307422000,4.174421875,1.9789568185806274,-3.7356386184692383,-8.848679542541504
1663860961317279200,4.184279296875,1.9181329011917114,-3.5706403255462646,-8.929819107055664
1663860961327166700,4.194166748046875,1.8460309505462646,-3.405022144317627,-9.00934886932373
1663860961337024000,4.20402392578125,1.7621709108352661,-3.240464925765991,-9.086502075195312
1663860961346942200,4.213942138671875,1.6663554906845093,-3.075385093688965,-9.161640167236328
1663860961356830000,4.223829833984375,1.5739984512329102,-2.9137463569641113,-9.230546951293945
1663860961366717700,4.2337177734375,1.489151120185852,-2.760150909423828,-9.291630744934082
1663860961376605200,4.243605224609375,1.4075207710266113,-2.613257646560669,-9.34666633605957
1663860961386432000,4.253431884765625,1.3252229690551758,-2.4767651557922363,-9.395733833312988
1663860961396319700,4.26331982421875,1.2352286577224731,-2.3545217514038086,-9.439323425292969
1663860961406207200,4.273207275390625,1.150931715965271,-2.24719500541687,-9.476067543029785
1663860961416095000,4.283094970703125,1.0923571586608887,-2.1510722637176514,-9.505263328552246
1663860961425982700,4.292982666015625,1.052959680557251,-2.0636725425720215,-9.529056549072266
1663860961435870500,4.302870361328125,1.0182775259017944,-1.9837929010391235,-9.54976749420166
1663860961445727700,4.312727783203125,0.981736421585083,-1.912945032119751,-9.568031311035156
1663860961455615200,4.322615234375,0.9423202276229858,-1.8528692722320557,-9.583803176879883
1663860961465503000,4.3325029296875,0.9051384329795837,-1.800094485282898,-9.59743595123291
1663860961475390700,4.342390625,0.8690103888511658,-1.7518091201782227,-9.609702110290527
1663860961485309000,4.352308837890625,0.8194570541381836,-1.7139536142349243,-9.620875358581543
1663860961495196700,4.36219677734375,0.7550249099731445,-1.6945058107376099,-9.62958812713623
1663860961505053700,4.3720537109375,0.6818916201591492,-1.694888949394226,-9.63497543334961
1663860961514941400,4.38194140625,0.6084682941436768,-1.714519739151001,-9.636419296264648
1663860961534717000,4.401717041015625,0.4832334816455841,-1.827578067779541,-9.622724533081055
1663860961544604700,4.411604736328125,0.4140285849571228,-1.9077926874160767,-9.61037540435791
1663860961554492200,4.4214921875,0.3405833840370178,-2.0080454349517822,-9.592817306518555
1663860961564349400,4.431349365234375,0.2614497244358063,-2.125281572341919,-9.570016860961914
1663860961574237200,4.4412373046875,0.1795477271080017,-2.2591121196746826,-9.541202545166016
1663860961584125000,4.451125,0.09250818938016891,-2.4066946506500244,-9.506296157836914
1663860961594012400,4.461012451171875,-0.0023754644207656384,-2.565953254699707,-9.465002059936523
1663860961603900200,4.470900146484375,-0.09384562075138092,-2.7360892295837402,-9.41676139831543
1663860961613757400,4.48075732421875,-0.17895835638046265,-2.915759801864624,-9.361448287963867
1663860961623645200,4.490645263671875,-0.2645171582698822,-3.102656602859497,-9.2991361618042
1663860961633532700,4.50053271484375,-0.3557627201080322,-3.2939531803131104,-9.230042457580566
1663860961643420400,4.51042041015625,-0.4663209915161133,-3.487715721130371,-9.153620719909668
1663860961653338600,4.520338623046875,-0.5927154421806335,-3.6818041801452637,-9.069916725158691
1663860961663196000,4.53019580078125,-0.7148405313491821,-3.8709049224853516,-8.981953620910645
1663860961673083600,4.540083740234375,-0.8316234946250916,-4.05156946182251,-8.89177131652832
1663860961682971400,4.549971435546875,-0.9356786608695984,-4.220853805541992,-8.802231788635254
1663860961692828400,4.559828369140625,-1.0326517820358276,-4.380142688751221,-8.713115692138672
1663860961702716200,4.569716064453125,-1.1492893695831299,-4.529521465301514,-8.62165641784668
1663860961712634400,4.57963427734375,-1.2911100387573242,-4.66727876663208,-8.52759838104248
1663860961722522000,4.589522216796875,-1.4414098262786865,-4.790970802307129,-8.434412956237793
1663860961732409900,4.599409912109375,-1.5884016752243042,-4.896183013916016,-8.347140312194824
1663860961742297300,4.60929736328125,-1.727357268333435,-4.978784084320068,-8.270328521728516
1663860961752185000,4.61918505859375,-1.8635292053222656,-5.036393165588379,-8.205632209777832
1663860961762072800,4.62907275390625,-1.9946082830429077,-5.067984104156494,-8.155211448669434
1663860961771960600,4.638960693359375,-2.117486000061035,-5.073622226715088,-8.120652198791504
1663860961781848300,4.648848388671875,-2.2378547191619873,-5.054934501647949,-8.10000228881836
1663860961791705300,4.658705322265625,-2.347564697265625,-5.0190300941467285,-8.091269493103027
1663860961801562600,4.668562744140625,-2.459252119064331,-4.974231243133545,-8.085758209228516
1663860961811450400,4.678450439453125,-2.5740795135498047,-4.9212422370910645,-8.082443237304688
1663860961821337900,4.688337890625,-2.686661958694458,-4.858791828155518,-8.083586692810059
1663860961831195100,4.698195068359375,-2.7921667098999023,-4.78438138961792,-8.092211723327637
1663860961841113300,4.70811328125,-2.8844425678253174,-4.6981706619262695,-8.110337257385254
1663860961851001000,4.7180009765625,-2.971104621887207,-4.609716892242432,-8.129786491394043
1663860961860888800,4.727888916015625,-3.0536656379699707,-4.533273220062256,-8.142171859741211
1663860961870745900,4.737745849609375,-3.123182773590088,-4.477668285369873,-8.146570205688477
1663860961880633600,4.747633544921875,-3.1780149936676025,-4.436714172363281,-8.147770881652832
1663860961890521300,4.757521240234375,-3.2248246669769287,-4.396924018859863,-8.150948524475098
1663860961900378600,4.767378662109375,-3.2640185356140137,-4.347423076629639,-8.16189193725586
1663860961910296800,4.777296875,-3.2893145084381104,-4.294686317443848,-8.17963695526123
1663860961920184300,4.787184326171875,-3.295929193496704,-4.255568981170654,-8.19740104675293
1663860961930041600,4.79704150390625,-3.2870895862579346,-4.240749835968018,-8.20862102508545
1663860961939959800,4.806959716796875,-3.27135968208313,-4.253903388977051,-8.208099365234375
1663860961949847600,4.81684765625,-3.2515387535095215,-4.29327392578125,-8.195466995239258
1663860961959735300,4.8267353515625,-3.2261545658111572,-4.349273681640625,-8.175949096679688
1663860961969622800,4.836622802734375,-3.202505588531494,-4.412027359008789,-8.151586532592773
1663860961979510500,4.846510498046875,-3.1914479732513428,-4.484813213348389,-8.116127014160156
1663860961989398300,4.856398193359375,-3.196993112564087,-4.576039791107178,-8.062846183776855
1663860961999286000,4.8662861328125,-3.2139358520507812,-4.686038017272949,-7.992624282836914
1663860962009143000,4.87614306640625,-3.235463857650757,-4.80870246887207,-7.910659313201904
1663860962019030800,4.88603076171875,-3.2565155029296875,-4.939570903778076,-7.820877552032471
1663860962028918500,4.89591845703125,-3.2713468074798584,-5.074592590332031,-7.727689743041992
1663860962038806300,4.90580615234375,-3.2747442722320557,-5.2081074714660645,-7.636888027191162
1663860962048663300,4.915663330078125,-3.276817798614502,-5.335055351257324,-7.547850131988525
1663860962058551000,4.925551025390625,-3.2838406562805176,-5.456003665924072,-7.457801342010498
1663860962068408300,4.935408203125,-3.290393590927124,-5.572310924530029,-7.368382453918457
1663860962078326500,4.945326416015625,-3.296900749206543,-5.683890342712402,-7.2797136306762695
1663860962088183600,4.95518359375,-3.3017234802246094,-5.78322172164917,-7.198843955993652
1663860962098040800,4.965040771484375,-3.280118703842163,-5.870076656341553,-7.13816499710083
1663860962107959000,4.974958984375,-3.2263879776000977,-5.946025371551514,-7.099689483642578
1663860962117846800,4.9848466796875,-3.157191753387451,-6.012722492218018,-7.074580192565918
1663860962127734500,4.994734619140625,-3.1058754920959473,-6.067940711975098,-7.050107479095459
1663860962137622300,5.004622314453125,-3.108396053314209,-6.09517240524292,-7.025463104248047
1663860962147509800,5.014509765625,-3.1393344402313232,-6.091814994812012,-7.014609336853027
1663860962157397500,5.0243974609375,-3.1625375747680664,-6.068446159362793,-7.024435997009277
1663860962167285200,5.03428515625,-3.180241823196411,-6.0349507331848145,-7.045268535614014
1663860962177173000,5.044173095703125,-3.208329200744629,-5.999643325805664,-7.062668800354004
1663860962187060700,5.054060791015625,-3.245351552963257,-5.969542980194092,-7.071253299713135
1663860962196948200,5.0639482421875,-3.284339427947998,-5.947003364562988,-7.072244644165039
1663860962206836000,5.0738359375,-3.319451332092285,-5.931818962097168,-7.068603038787842
1663860962216723700,5.0837236328125,-3.3461270332336426,-5.924317836761475,-7.062313079833984
1663860962226611500,5.093611572265625,-3.36741042137146,-5.922080039978027,-7.054069995880127
1663860962246325800,5.11332568359375,-3.4175102710723877,-5.924227237701416,-7.02812385559082
1663860962256213500,5.123213623046875,-3.4561712741851807,-5.923210144042969,-7.010052680969238
1663860962266101200,5.133101318359375,-3.505716562271118,-5.921365261077881,-6.986971855163574
1663860962275988700,5.14298876953125,-3.556622266769409,-5.921471118927002,-6.961106777191162
1663860962285876500,5.15287646484375,-3.6017043590545654,-5.924047946929932,-6.93568754196167
1663860962295733800,5.162733642578125,-3.637265205383301,-5.929985046386719,-6.912015914916992
1663860962305621500,5.17262158203125,-3.663879156112671,-5.939723968505859,-6.889561176300049
1663860962315509000,5.182509033203125,-3.682063341140747,-5.9531121253967285,-6.868278980255127
1663860962325396700,5.192396728515625,-3.695828437805176,-5.969119548797607,-6.846959114074707
1663860962335284500,5.202284423828125,-3.710475444793701,-5.985874652862549,-6.824373245239258
1663860962345172200,5.212172119140625,-3.7288968563079834,-6.000969409942627,-6.8010358810424805
1663860962355029500,5.222029541015625,-3.7496519088745117,-6.01309061050415,-6.778882026672363
1663860962364917000,5.2319169921875,-3.771941900253296,-6.022050380706787,-6.758531093597412
1663860962374804700,5.2418046875,-3.796569347381592,-6.028613567352295,-6.738862037658691
1663860962384692500,5.2516923828125,-3.826150894165039,-6.032811164855957,-6.718344688415527
1663860962394580200,5.261580322265625,-3.862314462661743,-6.033659934997559,-6.6968536376953125
1663860962404468000,5.271468017578125,-3.902747869491577,-6.02963399887085,-6.6770100593566895
1663860962414325000,5.281324951171875,-3.9423434734344482,-6.021831035614014,-6.660770893096924
1663860962424212700,5.291212646484375,-3.9729135036468506,-6.017300605773926,-6.646687030792236
1663860962434100500,5.3011005859375,-3.9857451915740967,-6.025282382965088,-6.6317572593688965
1663860962443988200,5.31098828125,-3.9781484603881836,-6.0520339012146,-6.611929416656494
1663860962453875700,5.320875732421875,-3.9600107669830322,-6.095442771911621,-6.582878112792969
1663860962463763500,5.330763427734375,-3.9333770275115967,-6.14995813369751,-6.5480499267578125
1663860962473651200,5.340651123046875,-3.9013752937316895,-6.207322120666504,-6.512973785400391
1663860962483508500,5.350508544921875,-3.8704583644866943,-6.262673854827881,-6.478336811065674
1663860962503283700,5.37028369140625,-3.8124561309814453,-6.348695278167725,-6.428813457489014
1663860962513171500,5.38017138671875,-3.7958061695098877,-6.378091335296631,-6.409538745880127
1663860962523028700,5.39002880859375,-3.7957959175109863,-6.404890060424805,-6.382765769958496
1663860962532916200,5.399916259765625,-3.8071863651275635,-6.437169551849365,-6.343386650085449
1663860962542804000,5.409803955078125,-3.8226611614227295,-6.476950645446777,-6.293389320373535
1663860962552691700,5.419691650390625,-3.834252119064331,-6.518259525299072,-6.243491172790527
1663860962562579500,5.429579345703125,-3.838890314102173,-6.553606986999512,-6.2035112380981445
1663860962572467200,5.43946728515625,-3.847382068634033,-6.579151630401611,-6.171125888824463
1663860962582355000,5.44935498046875,-3.8725996017456055,-6.595842361450195,-6.137444972991943
1663860962592212000,5.4592119140625,-3.9149062633514404,-6.606583118438721,-6.098930835723877
1663860962602130200,5.469130126953125,-3.965813398361206,-6.614823818206787,-6.05696439743042
1663860962612018000,5.479017822265625,-4.022217750549316,-6.6223015785217285,-6.011429309844971
1663860962621905700,5.48890576171875,-4.057921409606934,-6.623752117156982,-5.985781192779541
1663860962631793400,5.49879345703125,-4.0683746337890625,-6.6239237785339355,-5.978490352630615
1663860962641650400,5.508650390625,-4.07102108001709,-6.632553577423096,-5.9671101570129395
1663860962651538200,5.5185380859375,-4.0727152824401855,-6.653074264526367,-5.943061828613281
1663860962661395500,5.5283955078125,-4.068614959716797,-6.682948112487793,-5.912273406982422
1663860962671313700,5.538313720703125,-4.051488876342773,-6.720866680145264,-5.880967617034912
1663860962681201200,5.548201171875,-4.021857738494873,-6.767532825469971,-5.847696304321289
1663860962691089000,5.5580888671875,-3.991987466812134,-6.822908878326416,-5.803649425506592
1663860962700976600,5.5679765625,-3.9646925926208496,-6.883172035217285,-5.750959873199463
1663860962710864400,5.577864501953125,-3.9389102458953857,-6.948816776275635,-5.689404487609863
1663860962720752000,5.587752197265625,-3.919377088546753,-7.020623207092285,-5.6142425537109375
1663860962730639600,5.5976396484375,-3.918436288833618,-7.095489025115967,-5.519989013671875
1663860962740527400,5.60752734375,-3.9396398067474365,-7.170442581176758,-5.406883716583252
1663860962750415000,5.6174150390625,-3.967164993286133,-7.247985363006592,-5.28192138671875
1663860962760302800,5.627302734375,-3.9948463439941406,-7.330417633056641,-5.145538806915283
1663860962770190600,5.637190673828125,-4.015247821807861,-7.416188716888428,-5.0048298835754395
1663860962780047600,5.647047607421875,-4.006723880767822,-7.50137186050415,-4.883232593536377
1663860962789935400,5.656935302734375,-3.9783236980438232,-7.576146125793457,-4.790129661560059
1663860962799823000,5.666822998046875,-3.9570600986480713,-7.632140636444092,-4.718315124511719
1663860962809680400,5.676680419921875,-3.9464657306671143,-7.6746368408203125,-4.657869338989258
1663860962819537400,5.686537353515625,-3.9462294578552246,-7.711376190185547,-4.596991539001465
1663860962829455600,5.69645556640625,-3.9492781162261963,-7.747700214385986,-4.53285026550293
1663860962839343400,5.70634326171875,-3.9408979415893555,-7.788233757019043,-4.470251083374023
1663860962849231000,5.716231201171875,-3.9222910404205322,-7.835122585296631,-4.4041876792907715
1663860962859118800,5.726118896484375,-3.905665874481201,-7.884512424468994,-4.330199241638184
1663860962868975900,5.735975830078125,-3.877204418182373,-7.9388957023620605,-4.255774021148682
1663860962878863600,5.745863525390625,-3.8145339488983154,-8.007223129272461,-4.1837897300720215
1663860962888721000,5.755720947265625,-3.7338085174560547,-8.083390235900879,-4.109482765197754
1663860962898639000,5.76563916015625,-3.659609794616699,-8.15300464630127,-4.038087844848633
1663860962908526600,5.775526611328125,-3.5881154537200928,-8.212100982666016,-3.9821112155914307
1663860962918414300,5.785414306640625,-3.5058014392852783,-8.268388748168945,-3.938715934753418
1663860962928302000,5.795302001953125,-3.413398265838623,-8.32557201385498,-3.899224042892456
1663860962938189800,5.80518994140625,-3.316068649291992,-8.381397247314453,-3.8634517192840576
1663860962948077600,5.81507763671875,-3.2185890674591064,-8.4332275390625,-3.8329827785491943
1663860962957965000,5.824965087890625,-3.1177589893341064,-8.482932090759277,-3.8065505027770996
1663860962967852800,5.834852783203125,-3.0103678703308105,-8.53419017791748,-3.7783162593841553
1663860962977740500,5.844740478515625,-2.9002819061279297,-8.58800220489502,-3.7423229217529297
1663860962987597800,5.854597900390625,-2.794341802597046,-8.639853477478027,-3.7033731937408447
1663860962997485300,5.8644853515625,-2.6931967735290527,-8.68649959564209,-3.669034242630005
1663860963007373000,5.874373046875,-2.6016013622283936,-8.72833251953125,-3.635693073272705
1663860963017260800,5.8842607421875,-2.530886173248291,-8.766350746154785,-3.593899726867676
1663860963027148500,5.8941484375,-2.478030204772949,-8.80124568939209,-3.545112133026123
1663860963037036300,5.904036376953125,-2.430203676223755,-8.834988594055176,-3.493917226791382
1663860963046924000,5.913924072265625,-2.3841285705566406,-8.869169235229492,-3.438626766204834
1663860963056811500,5.9238115234375,-2.344841718673706,-8.902578353881836,-3.378789186477661
1663860963066699300,5.93369921875,-2.3142037391662598,-8.93284797668457,-3.319499969482422
1663860963076556500,5.943556640625,-2.290738105773926,-8.958418846130371,-3.2664413452148438
1663860963086413600,5.95341357421875,-2.2691497802734375,-8.979681968688965,-3.2228336334228516
1663860963096301300,5.96330126953125,-2.2456552982330322,-8.998194694519043,-3.1874611377716064
1663860963106158600,5.97315869140625,-2.221419334411621,-9.014792442321777,-3.157404899597168
1663860963116076800,5.983076904296875,-2.1952407360076904,-9.030202865600586,-3.131571054458618
1663860963125964500,5.992964599609375,-2.165365219116211,-9.044018745422363,-3.1124422550201416
1663860963135852000,6.00285205078125,-2.131242036819458,-9.055882453918457,-3.1014790534973145
1663860963145739800,6.01273974609375,-2.0938851833343506,-9.066686630249023,-3.095355272293091
1663860963155627500,6.02262744140625,-2.0556142330169678,-9.078454971313477,-3.086503267288208
1663860963165484800,6.03248486328125,-2.0158748626708984,-9.093087196350098,-3.0695958137512207
1663860963175372300,6.042372314453125,-1.9739819765090942,-9.111019134521484,-3.043536424636841
1663860963185229600,6.0522294921875,-1.9292045831680298,-9.130756378173828,-3.0129446983337402
1663860963195147800,6.062147705078125,-1.8816330432891846,-9.150653839111328,-2.982510805130005
1663860963205035500,6.072035400390625,-1.8378138542175293,-9.169296264648438,-2.9524295330047607
1663860963214923300,6.08192333984375,-1.8028042316436768,-9.186944961547852,-2.9189600944519043
1663860963224810800,6.091810791015625,-1.774054765701294,-9.203826904296875,-2.8831727504730225
1663860963234668000,6.10166796875,-1.7454458475112915,-9.219077110290527,-2.851740598678589
1663860963244555800,6.1115556640625,-1.71897292137146,-9.231830596923828,-2.8264503479003906
1663860963254443500,6.121443603515625,-1.7022485733032227,-9.242218971252441,-2.8025221824645996
1663860963264331300,6.131331298828125,-1.6980433464050293,-9.250415802001953,-2.7779221534729004
1663860963274188300,6.141188232421875,-1.7035791873931885,-9.256294250488281,-2.7548532485961914
1663860963284076000,6.151075927734375,-1.7168331146240234,-9.259554862976074,-2.7356014251708984
1663860963293963800,6.1609638671875,-1.7366752624511719,-9.260034561157227,-2.721416473388672
1663860963303820800,6.17082080078125,-1.761458158493042,-9.25836181640625,-2.711160659790039
1663860963313708500,6.18070849609375,-1.790103554725647,-9.254944801330566,-2.7040538787841797
1663860963323626800,6.190626708984375,-1.8210070133209229,-9.25007152557373,-2.7000927925109863
1663860963333514500,6.200514404296875,-1.8517054319381714,-9.244512557983398,-2.6982531547546387
1663860963343402200,6.21040234375,-1.8794012069702148,-9.238683700561523,-2.699065685272217
1663860963353259300,6.22025927734375,-1.9032175540924072,-9.23227596282959,-2.704298496246338
1663860963363116500,6.230116455078125,-1.924615502357483,-9.225200653076172,-2.7132837772369385
1663860963373004300,6.24000439453125,-1.945849895477295,-9.218334197998047,-2.721466064453125
1663860963382922500,6.249922607421875,-1.9676998853683472,-9.213004112243652,-2.723801612854004
1663860963392810200,6.259810302734375,-1.9879646301269531,-9.209991455078125,-2.7192726135253906
1663860963402697700,6.26969775390625,-2.00620436668396,-9.208399772644043,-2.7112536430358887
1663860963412585500,6.27958544921875,-2.0209906101226807,-9.207359313964844,-2.703796148300171
1663860963422473200,6.28947314453125,-2.028940439224243,-9.207266807556152,-2.698150634765625
1663860963432361000,6.29936083984375,-2.031409978866577,-9.208395004272461,-2.692438840866089
1663860963442218000,6.309218017578125,-2.0323798656463623,-9.210038185119629,-2.686082363128662
1663860963452105700,6.319105712890625,-2.0337471961975098,-9.211752891540527,-2.679154634475708
1663860963461963000,6.328962890625,-2.0347721576690674,-9.213358879089355,-2.672846794128418
1663860963471881200,6.338881103515625,-2.0305445194244385,-9.215164184570312,-2.669835090637207
1663860963481738200,6.34873828125,-2.017207384109497,-9.21854019165039,-2.668287754058838
1663860963491626000,6.3586259765625,-1.9997869729995728,-9.223655700683594,-2.663722515106201
1663860963501513700,6.368513671875,-1.9852550029754639,-9.228565216064453,-2.6575818061828613
1663860963511371000,6.37837109375,-1.9745932817459106,-9.232024192810059,-2.6535098552703857
1663860963521289200,6.388289306640625,-1.9620321989059448,-9.23603630065918,-2.6488592624664307
1663860963531177000,6.398177001953125,-1.9412213563919067,-9.244163513183594,-2.6358091831207275
1663860963541064400,6.408064453125,-1.9157850742340088,-9.255874633789062,-2.6132242679595947
1663860963550952200,6.4179521484375,-1.8972519636154175,-9.268335342407227,-2.5824005603790283
1663860963560840000,6.42783984375,-1.8905649185180664,-9.279030799865723,-2.548678159713745
1663860963570697200,6.437697265625,-1.8909664154052734,-9.286664009094238,-2.520416736602783
1663860963580584700,6.447584716796875,-1.8911749124526978,-9.29219913482666,-2.499777317047119
1663860963590472400,6.457472412109375,-1.8845850229263306,-9.298720359802246,-2.4804298877716064
1663860963600360200,6.467360107421875,-1.8675353527069092,-9.309036254882812,-2.45449161529541
1663860963610248000,6.477248046875,-1.8384701013565063,-9.323564529418945,-2.421067237854004
1663860963620135700,6.4871357421875,-1.7936846017837524,-9.342643737792969,-2.380777597427368
1663860963630023200,6.497023193359375,-1.7299948930740356,-9.366898536682129,-2.332104444503784
1663860963639880400,6.50688037109375,-1.6506835222244263,-9.394997596740723,-2.275883436203003
1663860963649737700,6.51673779296875,-1.5599489212036133,-9.424371719360352,-2.2176918983459473
1663860963659625200,6.526625244140625,-1.452406644821167,-9.45378303527832,-2.1649181842803955
1663860963669543400,6.53654345703125,-1.3380234241485596,-9.48066234588623,-2.120642900466919
1663860963679431200,6.54643115234375,-1.2343151569366455,-9.502997398376465,-2.083242654800415
1663860963689319000,6.55631884765625,-1.149351954460144,-9.519399642944336,-2.0567941665649414
1663860963699206700,6.56620654296875,-1.0897172689437866,-9.5274019241333,-2.0521955490112305
1663860963709063700,6.576063720703125,-1.0577216148376465,-9.52668571472168,-2.0721635818481445
1663860963718951400,6.585951416015625,-1.034718632698059,-9.521726608276367,-2.106288194656372
1663860963728808700,6.59580859375,-0.9965963959693909,-9.52017879486084,-2.1315219402313232
1663860963738696400,6.605696533203125,-0.932964026927948,-9.526801109313965,-2.1307311058044434
1663860963748584200,6.615584228515625,-0.8587133288383484,-9.537912368774414,-2.1121630668640137
1663860963758502400,6.62550244140625,-0.7938932180404663,-9.546476364135742,-2.0987892150878906
1663860963768390000,6.635389892578125,-0.7474526762962341,-9.54945182800293,-2.102299690246582
1663860963778247200,6.6452470703125,-0.7142084836959839,-9.549532890319824,-2.11346435546875
1663860963788135000,6.655135009765625,-0.6790767908096313,-9.549964904785156,-2.1230661869049072
1663860963798022700,6.665022705078125,-0.6333853602409363,-9.552282333374023,-2.1267642974853516
1663860963807910100,6.67491015625,-0.5824547410011292,-9.555851936340332,-2.1252858638763428
1663860963817767400,6.684767333984375,-0.5351324677467346,-9.559488296508789,-2.121365785598755
1663860963827655200,6.6946552734375,-0.49024340510368347,-9.56311321258545,-2.115870952606201
1663860963837543000,6.70454296875,-0.4445853531360626,-9.56662368774414,-2.110077381134033
1663860963847430400,6.714430419921875,-0.40363359451293945,-9.569308280944824,-2.1061394214630127
1663860963857287700,6.72428759765625,-0.37404897809028625,-9.570503234863281,-2.106168508529663
1663860963867175400,6.734175537109375,-0.35673850774765015,-9.57042407989502,-2.1095287799835205
1663860963877093600,6.74409375,-0.3502670228481293,-9.570212364196777,-2.1115705966949463
1663860963886981400,6.7539814453125,-0.3476044237613678,-9.57123851776123,-2.107358694076538
1663860963896868900,6.763868896484375,-0.3418462574481964,-9.573883056640625,-2.096257209777832
1663860963906756600,6.773756591796875,-0.3331928253173828,-9.57774829864502,-2.079928159713745
1663860963916644400,6.783644287109375,-0.3236684203147888,-9.582192420959473,-2.060875177383423
1663860963926532000,6.793531982421875,-0.31497183442115784,-9.586514472961426,-2.042038679122925
1663860963936419800,6.803419921875,-0.30777618288993835,-9.590120315551758,-2.026143789291382
1663860963946307300,6.813307373046875,-0.3009655773639679,-9.59272289276123,-2.014810800552368
1663860963956195000,6.823195068359375,-0.29444169998168945,-9.594204902648926,-2.0087084770202637
1663860963966082800,6.833082763671875,-0.2883351445198059,-9.594972610473633,-2.005930185317993
1663860963975940000,6.842940185546875,-0.2817465364933014,-9.595444679260254,-2.0046064853668213
1663860963985827800,6.852827880859375,-0.2788209915161133,-9.595861434936523,-2.0030229091644287
1663860964005572600,6.872572509765625,-0.31845876574516296,-9.595284461975098,-1.9998711347579956
1663860964015460400,6.88246044921875,-0.35220038890838623,-9.593313217163086,-2.0036675930023193
1663860964025317400,6.8923173828125,-0.39124324917793274,-9.589606285095215,-2.014141321182251
1663860964035205000,6.902205078125,-0.42400145530700684,-9.584885597229004,-2.029919147491455
1663860964045092900,6.9120927734375,-0.44478705525398254,-9.580035209655762,-2.048288345336914
1663860964054980600,6.921980712890625,-0.4589467942714691,-9.574895858764648,-2.069087505340576
1663860964064868400,6.931868408203125,-0.47258448600769043,-9.569052696228027,-2.092909812927246
1663860964074755800,6.941755859375,-0.48810553550720215,-9.56351375579834,-2.1145541667938232
1663860964084613000,6.951613037109375,-0.5093438029289246,-9.559269905090332,-2.1286892890930176
1663860964094500900,6.9615009765625,-0.5430923104286194,-9.555957794189453,-2.1352057456970215
1663860964104388600,6.971388671875,-0.5879474878311157,-9.553543090820312,-2.1341309547424316
1663860964114276000,6.981276123046875,-0.6338256001472473,-9.552508354187012,-2.1256141662597656
1663860964124163800,6.991163818359375,-0.674662172794342,-9.551790237426758,-2.116253614425659
1663860964134051600,7.001051513671875,-0.710482656955719,-9.549494743347168,-2.1148881912231445
1663860964143908900,7.010908935546875,-0.7422482967376709,-9.546072959899902,-2.1194212436676025
1663860964153796400,7.02079638671875,-0.7724754810333252,-9.54294490814209,-2.122701406478882
1663860964163684000,7.03068408203125,-0.8061818480491638,-9.540018081665039,-2.123326063156128
1663860964173571800,7.04057177734375,-0.8492011427879333,-9.53620719909668,-2.1236751079559326
1663860964183459600,7.05045947265625,-0.896545946598053,-9.531270980834961,-2.1263747215270996
1663860964193347300,7.060347412109375,-0.9425177574157715,-9.525010108947754,-2.1345365047454834
1663860964203235000,7.070235107421875,-0.9957656264305115,-9.516820907592773,-2.146850824356079
1663860964213122600,7.08012255859375,-1.068264126777649,-9.50637435913086,-2.158250093460083
1663860964222979800,7.089979736328125,-1.163988471031189,-9.492831230163574,-2.168329954147339
1663860964232867600,7.09986767578125,-1.2774415016174316,-9.475469589233398,-2.1803693771362305
1663860964242755300,7.10975537109375,-1.3952577114105225,-9.454148292541504,-2.2006187438964844
1663860964252642800,7.119642822265625,-1.505976676940918,-9.429275512695312,-2.2340972423553467
1663860964262530600,7.129530517578125,-1.6084665060043335,-9.40235424041748,-2.2757351398468018
1663860964272387800,7.139387939453125,-1.7084593772888184,-9.374839782714844,-2.3160171508789062
1663860964282275600,7.149275634765625,-1.8094215393066406,-9.346990585327148,-2.3516287803649902
1663860964292163000,7.1591630859375,-1.9073375463485718,-9.319619178771973,-2.3826775550842285
1663860964302050800,7.16905078125,-1.9915599822998047,-9.294844627380371,-2.410381317138672
1663860964311938600,7.1789384765625,-2.055128335952759,-9.274872779846191,-2.4338390827178955
1663860964321826300,7.188826416015625,-2.103321075439453,-9.259049415588379,-2.45283842086792
1663860964331683300,7.198683349609375,-2.1445508003234863,-9.24500560760498,-2.470052719116211
1663860964341601500,7.2086015625,-2.1796419620513916,-9.231240272521973,-2.490734577178955
1663860964351489300,7.2184892578125,-2.2086992263793945,-9.217589378356934,-2.5155704021453857
1663860964361377000,7.228376953125,-2.237792491912842,-9.203158378601074,-2.5425479412078857
1663860964371234300,7.238234375,-2.2723705768585205,-9.186558723449707,-2.5717430114746094
1663860964381121800,7.248121826171875,-2.316044330596924,-9.166187286376953,-2.6052510738372803
1663860964391040000,7.2580400390625,-2.370039224624634,-9.141324996948242,-2.6437623500823975
1663860964400927700,7.267927734375,-2.43159818649292,-9.112494468688965,-2.687035322189331
1663860964410815500,7.2778154296875,-2.498694896697998,-9.079617500305176,-2.7363202571868896
1663860964420703200,7.287703125,-2.5700244903564453,-9.042309761047363,-2.7932071685791016
1663860964430591000,7.297591064453125,-2.646165132522583,-8.999762535095215,-2.858752489089966
1663860964440478700,7.307478759765625,-2.735496759414673,-8.949195861816406,-2.932462453842163
1663860964450335700,7.317335693359375,-2.8456685543060303,-8.887114524841309,-3.0152533054351807
1663860964460223500,7.327223388671875,-2.972580671310425,-8.811742782592773,-3.112450361251831
1663860964470111200,7.337111328125,-3.109787940979004,-8.72410774230957,-3.223282814025879
1663860964479999000,7.3469990234375,-3.2625999450683594,-8.625051498413086,-3.3368117809295654
1663860964489886500,7.356886474609375,-3.437608003616333,-8.51566219329834,-3.4404547214508057
1663860964499774200,7.366774169921875,-3.628857135772705,-8.398871421813965,-3.5299763679504395
1663860964509662000,7.376661865234375,-3.8114850521087646,-8.281927108764648,-3.612844944000244
1663860964519519200,7.386519287109375,-3.9746687412261963,-8.169540405273438,-3.692018508911133
1663860964529376300,7.396376220703125,-4.129134178161621,-8.059800148010254,-3.7630112171173096
1663860964539264000,7.406263916015625,-4.276078224182129,-7.952427387237549,-3.8268063068389893
1663860964549121300,7.416121337890625,-4.404265880584717,-7.848763465881348,-3.894836664199829
1663860964559039500,7.42603955078125,-4.519450664520264,-7.747315883636475,-3.9653587341308594
1663860964568896500,7.435896484375,-4.624185085296631,-7.650558948516846,-4.031903266906738
1663860964578814700,7.445814697265625,-4.715824127197266,-7.556832790374756,-4.10191011428833
1663860964588702500,7.455702392578125,-4.796821594238281,-7.463403701782227,-4.178335666656494
1663860964598590200,7.465590087890625,-4.869308948516846,-7.367714881896973,-4.263448715209961
1663860964608447200,7.475447265625,-4.93331241607666,-7.270010948181152,-4.356577396392822
1663860964618335000,7.4853349609375,-4.99252986907959,-7.171050548553467,-4.452085494995117
1663860964628222700,7.49522265625,-5.051577568054199,-7.07134485244751,-4.544010639190674
1663860964638110500,7.5051103515625,-5.117264747619629,-6.9676690101623535,-4.629858493804932
1663860964647998200,7.514998291015625,-5.196597576141357,-6.852612495422363,-4.712479591369629
1663860964657885700,7.5248857421875,-5.292663097381592,-6.717728614807129,-4.798981666564941
1663860964667773400,7.5347734375,-5.40427827835083,-6.558786392211914,-4.8935136795043945
1663860964677661200,7.5446611328125,-5.530754089355469,-6.377139568328857,-4.991315841674805
1663860964687549000,7.554548828125,-5.666088581085205,-6.180542945861816,-5.085933685302734
1663860964697436700,7.564436767578125,-5.805556774139404,-5.977079391479492,-5.171113014221191
1663860964707324400,7.574324462890625,-5.942526817321777,-5.772370338439941,-5.247525215148926
1663860964717212000,7.5842119140625,-6.071988105773926,-5.56812047958374,-5.319528579711914
1663860964727069200,7.594069091796875,-6.197630405426025,-5.367164611816406,-5.380828380584717
1663860964736957000,7.60395703125,-6.326641082763672,-5.173075199127197,-5.420635223388672
1663860964746844700,7.6138447265625,-6.454927444458008,-4.993463039398193,-5.437796115875244
1663860964756732200,7.623732177734375,-6.575907230377197,-4.833486557006836,-5.4373931884765625
1663860964766620000,7.633619873046875,-6.686452865600586,-4.686036109924316,-5.431647777557373
1663860964776507600,7.643507568359375,-6.785953044891357,-4.544521331787109,-5.428493976593018
1663860964786395400,7.6533955078125,-6.878368377685547,-4.410032749176025,-5.4231038093566895
1663860964796283100,7.663283203125,-6.970164775848389,-4.284133434295654,-5.406791687011719
1663860964806140200,7.67314013671875,-7.056440830230713,-4.167901992797852,-5.385685443878174
1663860964816028000,7.68302783203125,-7.129101753234863,-4.061454772949219,-5.371301174163818
1663860964825915600,7.69291552734375,-7.189691066741943,-3.9641382694244385,-5.36323881149292
1663860964835803400,7.702803466796875,-7.247613430023193,-3.87127423286438,-5.353104114532471
1663860964845691000,7.71269091796875,-7.307704925537109,-3.7788922786712646,-5.33739709854126
1663860964855578600,7.72257861328125,-7.368617057800293,-3.688642978668213,-5.316746711730957
1663860964865436000,7.732435791015625,-7.427999496459961,-3.6044888496398926,-5.291774272918701
1663860964875323600,7.74232373046875,-7.483287811279297,-3.522631883621216,-5.268950939178467
1663860964885180700,7.7521806640625,-7.532324314117432,-3.4417967796325684,-5.252476692199707
1663860964895068400,7.762068359375,-7.568741798400879,-3.369596481323242,-5.2469377517700195
1663860964904956200,7.7719560546875,-7.592311859130859,-3.3063886165618896,-5.253091335296631
1663860964914844000,7.781843994140625,-7.611511707305908,-3.245157241821289,-5.263481616973877
1663860964924731600,7.791731689453125,-7.623574733734131,-3.1936533451080322,-5.2775068283081055
1663860964934619100,7.801619140625,-7.632019519805908,-3.1545333862304688,-5.288817882537842
1663860964944476400,7.811476318359375,-7.639138698577881,-3.125723123550415,-5.2956414222717285
1663860964954394600,7.82139453125,-7.640705585479736,-3.106727361679077,-5.3045501708984375
1663860964964252000,7.831251953125,-7.636968612670898,-3.0998573303222656,-5.313941478729248
1663860964974139400,7.841139404296875,-7.6298956871032715,-3.1062467098236084,-5.320367336273193
1663860964984027100,7.851027099609375,-7.617518424987793,-3.1277945041656494,-5.325477600097656
1663860964993915000,7.860914794921875,-7.603447437286377,-3.167010545730591,-5.32240629196167
1663860965003802600,7.870802734375,-7.585766792297363,-3.2230477333068848,-5.313989639282227
1663860965013690400,7.8806904296875,-7.562950134277344,-3.2970798015594482,-5.301077842712402
1663860965023577900,7.890577880859375,-7.542637825012207,-3.387320041656494,-5.273050785064697
1663860965033465600,7.900465576171875,-7.5226216316223145,-3.4923462867736816,-5.232978343963623
1663860965043353300,7.910353271484375,-7.4888153076171875,-3.621147394180298,-5.193777561187744
1663860965053210600,7.920210693359375,-7.439610481262207,-3.7771992683410645,-5.153188705444336
1663860965063067600,7.930067626953125,-7.387212753295898,-3.9450325965881348,-5.102567195892334
1663860965072985900,7.93998583984375,-7.333621025085449,-4.111251354217529,-5.048366546630859
1663860965082873600,7.94987353515625,-7.272602081298828,-4.274801254272461,-5.0005717277526855
1663860965092731000,7.95973095703125,-7.203845500946045,-4.441335678100586,-4.954749584197998
1663860965102618400,7.969618408203125,-7.131080627441406,-4.610424518585205,-4.90531063079834
1663860965112506000,7.979506103515625,-7.0552144050598145,-4.778684616088867,-4.853711128234863
1663860965122393900,7.989393798828125,-6.975928783416748,-4.94400691986084,-4.8024582862854
1663860965132281600,7.999281494140625,-6.892065048217773,-5.1049065589904785,-4.754971504211426
1663860965142169300,8.00916943359375,-6.801140785217285,-5.265357494354248,-4.710720062255859
1663860965152026400,8.0190263671875,-6.701967716217041,-5.428400993347168,-4.667599678039551
1663860965161944600,8.028944580078125,-6.602667331695557,-5.592266082763672,-4.61538028717041
1663860965171832300,8.038832275390625,-6.512866973876953,-5.74962854385376,-4.5491461753845215
1663860965181689600,8.048689697265624,-6.4241228103637695,-5.901230335235596,-4.480681896209717
1663860965191577300,8.058577392578124,-6.325915336608887,-6.054558277130127,-4.415372371673584
1663860965201464800,8.06846484375,-6.219850063323975,-6.211550712585449,-4.347469806671143
1663860965211352600,8.0783525390625,-6.118921279907227,-6.363766193389893,-4.269855499267578
1663860965221240300,8.088240234375,-6.025067329406738,-6.504839897155762,-4.189988613128662
1663860965231128000,8.098128173828124,-5.928896427154541,-6.636874198913574,-4.119524002075195
1663860965241015800,8.108015869140624,-5.824497222900391,-6.766742706298828,-4.056700229644775
1663860965250903300,8.1179033203125,-5.710610389709473,-6.900267601013184,-3.9931983947753906
1663860965260791000,8.127791015625,-5.585907459259033,-7.039085865020752,-3.9267425537109375
1663860965270648300,8.1376484375,-5.452908039093018,-7.180073261260986,-3.857814311981201
1663860965280536000,8.1475361328125,-5.315487384796143,-7.319197654724121,-3.7875235080718994
1663860965290423600,8.157423583984375,-5.181203842163086,-7.44832706451416,-3.7212796211242676
1663860965300280800,8.16728076171875,-5.0539937019348145,-7.558694362640381,-3.6733760833740234
1663860965310168600,8.17716845703125,-4.925912380218506,-7.6517534255981445,-3.6546454429626465
1663860965320056300,8.187056396484374,-4.790587425231934,-7.738317012786865,-3.652275323867798
1663860965329913300,8.196913330078125,-4.658091068267822,-7.818245887756348,-3.653435707092285
1663860965339831600,8.20683154296875,-4.548849105834961,-7.8783488273620605,-3.6619632244110107
1663860965349719300,8.21671923828125,-4.46368932723999,-7.9137983322143555,-3.690211534500122
1663860965359607000,8.22660693359375,-4.376425743103027,-7.934806823730469,-3.7491512298583984
1663860965369494800,8.236494873046874,-4.2927350997924805,-7.950431823730469,-3.8122751712799072
1663860965379382500,8.246382568359374,-4.241285800933838,-7.965376377105713,-3.838575601577759
1663860965389270000,8.25627001953125,-4.212188243865967,-7.981735706329346,-3.8366317749023438
1663860965399157800,8.26615771484375,-4.172325611114502,-8.004551887512207,-3.832656145095825
1663860965409045500,8.27604541015625,-4.117266654968262,-8.035985946655273,-3.8264126777648926
1663860965418933200,8.285933349609374,-4.069567680358887,-8.072840690612793,-3.7997684478759766
1663860965428821000,8.295821044921874,-4.033797264099121,-8.120016098022461,-3.736870765686035
1663860965438678000,8.305677978515625,-3.9855189323425293,-8.185771942138672,-3.644059181213379
1663860965448565800,8.315565673828125,-3.910006523132324,-8.267217636108398,-3.540530204772949
1663860965458453500,8.32545361328125,-3.817831039428711,-8.355103492736816,-3.433192491531372
1663860965468310500,8.335310546875,-3.7193479537963867,-8.443639755249023,-3.3229169845581055
1663860965478198300,8.3451982421875,-3.6113717555999756,-8.533838272094727,-3.209671974182129
1663860965488055600,8.3550556640625,-3.4903197288513184,-8.623283386230469,-3.102745294570923
1663860965497943300,8.364943359375,-3.355668544769287,-8.707931518554688,-3.0136051177978516
1663860965507861500,8.374861572265624,-3.203413248062134,-8.787598609924316,-2.94731068611145
1663860965517749000,8.3847490234375,-3.030538558959961,-8.861893653869629,-2.9074156284332275
1663860965527636700,8.39463671875,-2.856182336807251,-8.926628112792969,-2.8858132362365723
1663860965537494000,8.404493896484375,-2.713243007659912,-8.976324081420898,-2.869548797607422
1663860965547351000,8.41435107421875,-2.604457378387451,-9.014142036437988,-2.8517439365386963
1663860965557238800,8.42423876953125,-2.500981330871582,-9.054476737976074,-2.8163695335388184
1663860965567157000,8.434156982421875,-2.3763267993927,-9.106830596923828,-2.754830837249756
1663860965577014300,8.44401416015625,-2.2257497310638428,-9.166031837463379,-2.683337926864624
1663860965586902000,8.453902099609374,-2.0750157833099365,-9.217412948608398,-2.6275463104248047
1663860965596789800,8.463789794921874,-1.9641873836517334,-9.24587631225586,-2.6126837730407715
1663860965606646800,8.473646728515625,-1.8938888311386108,-9.25185775756836,-2.643235445022583
1663860965616534500,8.483534423828125,-1.840054988861084,-9.252147674560547,-2.6799895763397217
1663860965626422300,8.49342236328125,-1.7830450534820557,-9.262149810791016,-2.6839723587036133
1663860965636340500,8.503340576171874,-1.7307549715042114,-9.276456832885742,-2.668750524520874
1663860965646197500,8.513197509765625,-1.7176356315612793,-9.28010368347168,-2.664546251296997
1663860965656115700,8.52311572265625,-1.7533432245254517,-9.26954460144043,-2.678004264831543
1663860965665973000,8.532972900390625,-1.8212542533874512,-9.250925064086914,-2.697000026702881
1663860965675860700,8.54286083984375,-1.9143906831741333,-9.230238914489746,-2.7033658027648926
1663860965685748500,8.55274853515625,-2.0253419876098633,-9.210626602172852,-2.68937349319458
1663860965695636000,8.562635986328125,-2.146479845046997,-9.191523551940918,-2.6606223583221436
1663860965705493200,8.5724931640625,-2.2766411304473877,-9.170605659484863,-2.624364137649536
1663860965715381000,8.582381103515624,-2.4168741703033447,-9.146517753601074,-2.5826971530914307
1663860965725268700,8.592268798828124,-2.559377908706665,-9.12090015411377,-2.5355751514434814
1663860965735125800,8.602125732421875,-2.6926767826080322,-9.097796440124512,-2.4799182415008545
1663860965745044000,8.6120439453125,-2.8198230266571045,-9.078709602355957,-2.4074904918670654
1663860965754931700,8.621931640625,-2.941270112991333,-9.063469886779785,-2.31793475151062
1663860965764789000,8.6317890625,-3.041576385498047,-9.053298950195312,-2.2264246940612793
1663860965774707200,8.641707275390624,-3.103100299835205,-9.04985237121582,-2.154374837875366
1663860965784564200,8.651564208984375,-3.1216320991516113,-9.05325984954834,-2.112888813018799
1663860965794482400,8.661482421875,-3.108819007873535,-9.062053680419922,-2.093996524810791
1663860965804339700,8.671339599609375,-3.08101487159729,-9.0731201171875,-2.0871572494506836
1663860965814196700,8.68119677734375,-3.046610116958618,-9.084793090820312,-2.0868825912475586
1663860965824084500,8.69108447265625,-3.011852264404297,-9.095572471618652,-2.090383291244507
1663860965834002700,8.701002685546875,-2.9826862812042236,-9.103828430175781,-2.096252679824829
1663860965843860000,8.71085986328125,-2.9622435569763184,-9.10795783996582,-2.1072733402252197
1663860965853778200,8.720778076171875,-2.952608585357666,-9.10535717010498,-2.131889581680298
1663860965863666000,8.730666015625,-2.955212354660034,-9.093087196350098,-2.1801095008850098
1663860965873553700,8.7405537109375,-2.9772214889526367,-9.06658935546875,-2.2590925693511963
1663860965883410700,8.75041064453125,-3.037001132965088,-9.019136428833008,-2.3668949604034424
1663860965893298400,8.76029833984375,-3.1501009464263916,-8.943703651428223,-2.501481294631958
1663860965903155700,8.77015576171875,-3.31520414352417,-8.837142944335938,-2.6617138385772705
1663860965913074000,8.780073974609374,-3.5085339546203613,-8.703299522399902,-2.8483593463897705
1663860965922961400,8.78996142578125,-3.698638677597046,-8.557073593139648,-3.0441675186157227
1663860965932849200,8.79984912109375,-3.8796865940093994,-8.412784576416016,-3.216127395629883
1663860965942706400,8.80970654296875,-4.057137966156006,-8.280186653137207,-3.338937997817993
1663860965952563500,8.8195634765625,-4.226252555847168,-8.161416053771973,-3.4205939769744873
1663860965962451200,8.829451171875,-4.385738849639893,-8.050378799438477,-3.4823951721191406
1663860965972339000,8.8393388671875,-4.54459810256958,-7.938496112823486,-3.5351510047912598
1663860965982226700,8.849226806640624,-4.706310272216797,-7.820395469665527,-3.586423397064209
1663860965992114400,8.859114501953124,-4.8672895431518555,-7.696789264678955,-3.6385879516601562
1663860966002032600,8.86903271484375,-5.020229339599609,-7.572668075561523,-3.6908509731292725
1663860966011889700,8.8788896484375,-5.150378704071045,-7.454137325286865,-3.7523105144500732
1663860966021747000,8.888746826171875,-5.261591911315918,-7.336264610290527,-3.829523801803589
1663860966031634700,8.898634765625,-5.370346546173096,-7.208428382873535,-3.9202468395233154
1663860966041553000,8.908552978515624,-5.4935407638549805,-7.063422679901123,-4.012413501739502
1663860966051440400,8.9184404296875,-5.6386003494262695,-6.899680137634277,-4.095240592956543
1663860966061328100,8.928328125,-5.804283618927002,-6.717468738555908,-4.166088581085205
1663860966071185400,8.938185302734375,-5.982821464538574,-6.523526191711426,-4.221355438232422
1663860966081073200,8.9480732421875,-6.165235996246338,-6.320591449737549,-4.267360210418701
1663860966090930200,8.95793017578125,-6.3458709716796875,-6.106777191162109,-4.313651084899902
1663860966100848400,8.967848388671875,-6.525818824768066,-5.880198955535889,-4.3597412109375
1663860966110736100,8.977736083984375,-6.702254295349121,-5.650555610656738,-4.395609378814697
1663860966120593400,8.987593505859374,-6.871462821960449,-5.419914245605469,-4.424693584442139
1663860966130511600,8.99751171875,-7.030215263366699,-5.176827430725098,-4.466197490692139
1663860966140399400,9.0073994140625,-7.178510665893555,-4.913247585296631,-4.527622699737549
1663860966150256400,9.01725634765625,-7.319144248962402,-4.636883735656738,-4.593455791473389
1663860966160144100,9.02714404296875,-7.443539619445801,-4.367482662200928,-4.657167434692383
1663860966170001400,9.03700146484375,-7.54767370223999,-4.112639904022217,-4.721145153045654
1663860966179919600,9.046919677734374,-7.6397247314453125,-3.8636255264282227,-4.783032417297363
1663860966189807000,9.05680712890625,-7.722249507904053,-3.621088981628418,-4.839934349060059
1663860966199664400,9.066664306640625,-7.790643692016602,-3.3930907249450684,-4.895222187042236
1663860966209552100,9.07655224609375,-7.843725681304932,-3.1898653507232666,-4.946828365325928
1663860966219439900,9.08643994140625,-7.885137557983398,-3.0276904106140137,-4.982779026031494
1663860966229327400,9.096327392578125,-7.921878337860107,-2.911550521850586,-4.9937052726745605
1663860966239215000,9.106215087890625,-7.954093933105469,-2.8334054946899414,-4.987442970275879
1663860966249072400,9.116072265625,-7.980456829071045,-2.785526752471924,-4.972277641296387
1663860966258990600,9.125990478515625,-8.000000953674316,-2.767599582672119,-4.950835227966309
1663860966268878300,9.13587841796875,-8.002409934997559,-2.7839064598083496,-4.937780380249023
1663860966278765800,9.145765869140625,-7.990381240844727,-2.8323585987091064,-4.929698467254639
1663860966288623000,9.155623046875,-7.975030422210693,-2.9021494388580322,-4.913939476013184
1663860966298510800,9.1655107421875,-7.960544109344482,-2.9844958782196045,-4.888038158416748
1663860966308398600,9.175398681640624,-7.948578357696533,-3.079813003540039,-4.848219871520996
1663860966318286300,9.185286376953124,-7.942039489746094,-3.187516212463379,-4.788960933685303
1663860966328173800,9.195173828125,-7.93794584274292,-3.3034379482269287,-4.716641426086426
1663860966338061600,9.2050615234375,-7.930954456329346,-3.4263722896575928,-4.640077590942383
1663860966347949300,9.21494921875,-7.91821813583374,-3.5568928718566895,-4.562973499298096
1663860966357837000,9.224837158203124,-7.896510601043701,-3.6996288299560547,-4.486451625823975
1663860966367694000,9.234694091796875,-7.864655494689941,-3.8597657680511475,-4.406787872314453
1663860966377581800,9.244581787109375,-7.823894500732422,-4.035001277923584,-4.321555137634277
1663860966387439000,9.254439208984374,-7.773263454437256,-4.219679832458496,-4.235690116882324
1663860966397357300,9.264357421875,-7.715033531188965,-4.4098124504089355,-4.147552490234375
1663860966407245000,9.2742451171875,-7.6510515213012695,-4.598978519439697,-4.059704780578613
1663860966417132500,9.284132568359375,-7.575733184814453,-4.791805744171143,-3.9770898818969727
1663860966427020300,9.294020263671875,-7.492365837097168,-4.988097667694092,-3.8927769660949707
1663860966436908000,9.303907958984375,-7.409732818603516,-5.177156448364258,-3.8030662536621094
1663860966446765300,9.313765380859374,-7.322671890258789,-5.358316898345947,-3.71985125541687
1663860966456622300,9.323622314453125,-7.223696231842041,-5.539434432983398,-3.6473636627197266
1663860966466510000,9.333510009765625,-7.1202311515808105,-5.719342231750488,-3.572368621826172
1663860966476428300,9.34342822265625,-7.019141674041748,-5.892645359039307,-3.4898078441619873
1663860966486285600,9.35328564453125,-6.914320945739746,-6.061395168304443,-3.4091103076934814
1663860966496173000,9.363173095703125,-6.7964186668396,-6.2337565422058105,-3.334569215774536
1663860966506030300,9.3730302734375,-6.670977592468262,-6.402891159057617,-3.266716718673706
1663860966515948500,9.382948486328125,-6.546586990356445,-6.559842109680176,-3.2064099311828613
1663860966525836300,9.392836181640625,-6.423782825469971,-6.704988479614258,-3.1541285514831543
1663860966535724000,9.40272412109375,-6.2928972244262695,-6.851367950439453,-3.102994441986084
1663860966545581000,9.4125810546875,-6.150622844696045,-7.003344535827637,-3.048506736755371
1663860966555499300,9.422499267578125,-6.003493785858154,-7.15343713760376,-2.9927878379821777
1663860966565356500,9.4323564453125,-5.863555908203125,-7.290440559387207,-2.9391448497772217
1663860966575213800,9.4422138671875,-5.732327938079834,-7.414714813232422,-2.886658191680908
1663860966585132000,9.452132080078124,-5.605367183685303,-7.531767845153809,-2.8324413299560547
1663860966595019500,9.46201953125,-5.478872299194336,-7.643404960632324,-2.7804129123687744
1663860966604907300,9.4719072265625,-5.350855827331543,-7.750126361846924,-2.733909845352173
1663860966614764500,9.4817646484375,-5.222013473510742,-7.8526611328125,-2.6901071071624756
1663860966624682800,9.491682861328124,-5.092504024505615,-7.953396320343018,-2.6420202255249023
1663860966634570500,9.501570556640624,-4.963588237762451,-8.052895545959473,-2.585355043411255
1663860966644427500,9.511427490234375,-4.829075813293457,-8.15185260772705,-2.5293691158294678
1663860966654284800,9.521284912109374,-4.683908939361572,-8.250394821166992,-2.482410430908203
1663860966664172500,9.531172607421874,-4.532363414764404,-8.34675407409668,-2.4412636756896973
1663860966674090800,9.5410908203125,-4.384666442871094,-8.437851905822754,-2.397446870803833
1663860966683978200,9.550978271484375,-4.249008655548096,-8.521669387817383,-2.344667434692383
1663860966693866000,9.560865966796875,-4.120538234710693,-8.601056098937988,-2.2832870483398438
1663860966703753700,9.570753662109375,-3.9855728149414062,-8.680981636047363,-2.2194950580596924
1663860966713641500,9.580641357421875,-3.8415253162384033,-8.760957717895508,-2.1584019660949707
1663860966723498500,9.59049853515625,-3.703237771987915,-8.833465576171875,-2.1038761138916016
1663860966733355800,9.600355712890625,-3.5830583572387695,-8.892841339111328,-2.0614213943481445
1663860966743274000,9.61027392578125,-3.468261957168579,-8.945565223693848,-2.029383897781372
1663860966753161700,9.62016162109375,-3.3427603244781494,-9.001523971557617,-1.9922106266021729
1663860966763019000,9.63001904296875,-3.209697723388672,-9.06065559387207,-1.9423596858978271
1663860966772906500,9.639906494140625,-3.083278179168701,-9.11668586730957,-1.8840974569320679
1663860966782794200,9.649794189453125,-2.9683678150177,-9.166471481323242,-1.8261898756027222
1663860966792682000,9.659681884765625,-2.8595027923583984,-9.211977005004883,-1.7700589895248413
1663860966802569700,9.66956982421875,-2.754753351211548,-9.25423526763916,-1.714890718460083
1663860966812457500,9.67945751953125,-2.659923791885376,-9.291388511657715,-1.6629176139831543
1663860966822314500,9.689314453125,-2.5828700065612793,-9.32094669342041,-1.6183693408966064
1663860966832232700,9.699232666015625,-2.5288331508636475,-9.341541290283203,-1.5846096277236938
1663860966842090000,9.709090087890624,-2.5072720050811768,-9.351522445678711,-1.5598053932189941
1663860966851977700,9.718977783203124,-2.518550157546997,-9.351839065551758,-1.5396127700805664
1663860966861834800,9.728834716796875,-2.5527455806732178,-9.345062255859375,-1.5243663787841797
1663860966871722500,9.738722412109375,-2.604396104812622,-9.331704139709473,-1.5188192129135132
1663860966881610200,9.7486103515625,-2.672720193862915,-9.31100082397461,-1.5271568298339844
1663860966891498000,9.758498046875,-2.75363826751709,-9.284097671508789,-1.5470596551895142
1663860966901416200,9.768416259765624,-2.8529345989227295,-9.249616622924805,-1.5734540224075317
1663860966911273200,9.778273193359375,-2.9696571826934814,-9.208036422729492,-1.6011240482330322
1663860966921161000,9.788160888671875,-3.1137161254882812,-9.158003807067871,-1.6143475770950317
1663860966931048700,9.798048583984375,-3.294379234313965,-9.09323787689209,-1.621874213218689
1663860966940905700,9.80790576171875,-3.491339683532715,-9.014344215393066,-1.6500135660171509
1663860966950824000,9.817823974609375,-3.683640718460083,-8.928997039794922,-1.6953407526016235
1663860966960681200,9.82768115234375,-3.864729881286621,-8.844559669494629,-1.734363079071045
1663860966970569000,9.83756884765625,-4.040611743927002,-8.75938606262207,-1.7655047178268433
1663860966980487200,9.847487060546875,-4.230778217315674,-8.661260604858398,-1.8037359714508057
1663860966990375000,9.857375,-4.455207824707031,-8.53582763671875,-1.860417366027832
1663860967000262700,9.8672626953125,-4.700916767120361,-8.387799263000488,-1.927844762802124
1663860967010150100,9.877150146484375,-4.945462703704834,-8.234745979309082,-1.9752832651138306
1663860967020038000,9.887037841796875,-5.190308570861816,-8.075888633728027,-2.002772808074951
1663860967029925600,9.896925537109375,-5.453751087188721,-7.887426376342773,-2.0531673431396484
1663860967039813400,9.9068134765625,-5.7433624267578125,-7.653739929199219,-2.1457972526550293
1663860967049670400,9.91667041015625,-6.040705680847168,-7.392818927764893,-2.2419793605804443
1663860967059558100,9.92655810546875,-6.32852840423584,-7.136845588684082,-2.2771806716918945
1663860967069415400,9.93641552734375,-6.573078632354736,-6.915095329284668,-2.2685868740081787
1663860967079303200,9.94630322265625,-6.76832914352417,-6.714791774749756,-2.2960116863250732
1663860967089160200,9.95616015625,-6.955177307128906,-6.497788906097412,-2.361065626144409
1663860967099078400,9.966078369140625,-7.174482345581055,-6.234385967254639,-2.4144608974456787
1663860967108966100,9.975966064453125,-7.423161506652832,-5.9243621826171875,-2.443150758743286
1663860967118854000,9.98585400390625,-7.6760101318359375,-5.585746765136719,-2.4594061374664307
1663860967128711000,9.9957109375,-7.894691467285156,-5.2508087158203125,-2.5046463012695312
1663860967138598700,10.0055986328125,-8.085725784301758,-4.906968593597412,-2.590963125228882
1663860967148486400,10.015486328125,-8.28010368347168,-4.532493591308594,-2.658339500427246
1663860967158374100,10.0253740234375,-8.472705841064453,-4.144050121307373,-2.6852357387542725
1663860967168262000,10.035261962890624,-8.648560523986816,-3.763338804244995,-2.685155153274536
1663860967178149400,10.0451494140625,-8.795675277709961,-3.3922781944274902,-2.7016515731811523
1663860967188037000,10.055037109375,-8.914044380187988,-3.0278844833374023,-2.7462892532348633
1663860967197924900,10.0649248046875,-9.021439552307129,-2.6695961952209473,-2.7671780586242676
1663860967207812600,10.0748125,-9.125782012939453,-2.312068223953247,-2.7467892169952393
1663860967217700400,10.084700439453124,-9.214043617248535,-1.9576267004013062,-2.7275407314300537
1663860967227588000,10.094588134765624,-9.277410507202148,-1.6219279766082764,-2.733017921447754
1663860967237475600,10.1044755859375,-9.31555461883545,-1.3276058435440063,-2.761934280395508
1663860967247332900,10.114332763671875,-9.334811210632324,-1.0852199792861938,-2.8024985790252686
1663860967257220600,10.124220703125,-9.342879295349121,-0.8809806108474731,-2.8469059467315674
1663860967267077600,10.13407763671875,-9.340510368347168,-0.6956688165664673,-2.905388355255127
1663860967276965400,10.14396533203125,-9.325543403625488,-0.5321186184883118,-2.9868855476379395
1663860967286853000,10.15385302734375,-9.305341720581055,-0.41457486152648926,-3.067431688308716
1663860967296740900,10.163740966796874,-9.292344093322754,-0.3476400673389435,-3.1147844791412354
1663860967306628600,10.173628662109374,-9.286474227905273,-0.31321680545806885,-3.1358697414398193
1663860967316485600,10.183485595703125,-9.288859367370605,-0.27655044198036194,-3.132254123687744
1663860967326403800,10.19340380859375,-9.30955696105957,-0.21284721791744232,-3.075263738632202
1663860967336291600,10.20329150390625,-9.32736873626709,-0.1471203714609146,-3.024721622467041
1663860967346179300,10.213179443359374,-9.338688850402832,-0.11683487147092819,-2.9909234046936035
1663860967356067000,10.223067138671874,-9.359198570251465,-0.11377879977226257,-2.9262356758117676
1663860967365924000,10.232924072265625,-9.378326416015625,-0.12107013911008835,-2.8640384674072266
1663860967375781400,10.242781494140624,-9.385697364807129,-0.1430414468050003,-2.838768482208252
1663860967385699600,10.252699462890625,-9.388839721679688,-0.17193801701068878,-2.826749801635742
1663860967395556600,10.262556640625,-9.401640892028809,-0.22247594594955444,-2.7802937030792236
1663860967405444400,10.2724443359375,-9.414959907531738,-0.29610109329223633,-2.7278637886047363
1663860967415332000,10.28233203125,-9.42757797241211,-0.37374749779701233,-2.6742234230041504
1663860967425219800,10.2922197265625,-9.438953399658203,-0.4570077657699585,-2.6206276416778564
1663860967435107600,10.302107666015624,-9.44590950012207,-0.5575282573699951,-2.575721025466919
1663860967444995000,10.3119951171875,-9.448822021484375,-0.6654936671257019,-2.5391483306884766
1663860967454852400,10.321852294921875,-9.451070785522461,-0.7754625678062439,-2.499262571334839
1663860967464740000,10.331739990234375,-9.452957153320312,-0.8952186107635498,-2.4516470432281494
1663860967474627800,10.3416279296875,-9.450419425964355,-1.0312217473983765,-2.4076006412506104
1663860967484515600,10.351515625,-9.442338943481445,-1.17439603805542,-2.373478651046753
1663860967494403000,10.361403076171875,-9.427840232849121,-1.324901819229126,-2.3517754077911377
1663860967504260400,10.37126025390625,-9.40784740447998,-1.4948008060455322,-2.329885482788086
1663860967514148000,10.381148193359374,-9.385326385498047,-1.6744844913482666,-2.298288345336914
1663860967524035800,10.391035888671874,-9.361071586608887,-1.8509024381637573,-2.2616074085235596
1663860967533923300,10.40092333984375,-9.327388763427734,-2.0412237644195557,-2.236875295639038
1663860967543811000,10.41081103515625,-9.283361434936523,-2.276240587234497,-2.1927902698516846
1663860967553698800,10.42069873046875,-9.232325553894043,-2.5456249713897705,-2.110531806945801
1663860967563556000,10.43055615234375,-9.172871589660645,-2.8108513355255127,-2.031726598739624
1663860967573443600,10.440443603515625,-9.093636512756348,-3.0789942741394043,-1.9989898204803467
1663860967583331300,10.450331298828125,-8.995826721191406,-3.360668420791626,-1.9878122806549072
1663860967593219000,10.460218994140625,-8.893143653869629,-3.6558237075805664,-1.9280438423156738
1663860967603106800,10.47010693359375,-8.770071029663086,-3.9547412395477295,-1.9016491174697876
1663860967612994600,10.47999462890625,-8.629531860351562,-4.249552249908447,-1.9086354970932007
1663860967622882000,10.489882080078125,-8.493246078491211,-4.5363545417785645,-1.859200358390808
1663860967632769800,10.499769775390625,-8.363727569580078,-4.800930023193359,-1.7803106307983398
1663860967642657500,10.509657470703125,-8.233532905578613,-5.037074089050293,-1.734131932258606
1663860967652545300,10.519545166015625,-8.095786094665527,-5.266104698181152,-1.7019903659820557
1663860967662433000,10.52943310546875,-7.941981315612793,-5.5145649909973145,-1.6385654211044312
1663860967672290000,10.5392900390625,-7.769875526428223,-5.783176898956299,-1.5343698263168335
1663860967682177800,10.549177734375,-7.588953018188477,-6.047389984130859,-1.4167753458023071
1663860967692065500,10.5590654296875,-7.423196792602539,-6.2731404304504395,-1.3092939853668213
1663860967701953300,10.568953369140624,-7.284566402435303,-6.4523234367370605,-1.2136740684509277
1663860967711810300,10.578810302734375,-7.149925231933594,-6.611237525939941,-1.1577926874160767
1663860967721698000,10.588697998046875,-6.983765125274658,-6.784958839416504,-1.1669416427612305
1663860967731585800,10.598585693359375,-6.815922260284424,-6.955615043640137,-1.1545555591583252
1663860967741504000,10.60850390625,-6.676875114440918,-7.097334384918213,-1.103434681892395
1663860967751361300,10.618361328125,-6.558772087097168,-7.207306861877441,-1.0989136695861816
1663860967761248800,10.628248779296875,-6.452142715454102,-7.294594764709473,-1.152875304222107
1663860967771136500,10.638136474609375,-6.351424217224121,-7.378927230834961,-1.1752620935440063
1663860967781024300,10.648024169921875,-6.248518943786621,-7.468100070953369,-1.1635624170303345
1663860967790912000,10.657912109375,-6.150552272796631,-7.549883842468262,-1.1577389240264893
1663860967800799700,10.6677998046875,-6.068833827972412,-7.6153950691223145,-1.1599147319793701
1663860967810656800,10.67765673828125,-6.005230903625488,-7.66525936126709,-1.1624947786331177
1663860967820544500,10.68754443359375,-5.961000919342041,-7.700694561004639,-1.155930519104004
1663860967830432300,10.697432373046874,-5.933465957641602,-7.722134113311768,-1.1545690298080444
1663860967840289300,10.707289306640625,-5.922649383544922,-7.727904796600342,-1.171363115310669
1663860967850177000,10.717177001953125,-5.928832054138184,-7.717644691467285,-1.2071843147277832
1663860967860095200,10.72709521484375,-5.9553704261779785,-7.692348003387451,-1.2376298904418945
1663860967869983000,10.73698291015625,-6.005223751068115,-7.65550422668457,-1.2251254320144653
1663860967879870700,10.74687060546875,-6.067516803741455,-7.612910270690918,-1.18289053440094
1663860967889758500,10.756758544921874,-6.124807834625244,-7.570158958435059,-1.1618118286132812
1663860967899646000,10.76664599609375,-6.183705806732178,-7.5204668045043945,-1.1725019216537476
1663860967909533700,10.77653369140625,-6.253869533538818,-7.457037448883057,-1.2050305604934692
1663860967919421400,10.78642138671875,-6.334634304046631,-7.381773948669434,-1.2458758354187012
1663860967929309200,10.79630908203125,-6.413826942443848,-7.302914142608643,-1.3040919303894043
1663860967939197000,10.806197021484374,-6.489937782287598,-7.22212028503418,-1.3755228519439697
1663860967949084700,10.816084716796874,-6.568400859832764,-7.138262748718262,-1.4393411874771118
1663860967958972200,10.82597216796875,-6.638712406158447,-7.061365604400635,-1.4949899911880493
1663860967968829400,10.835829345703125,-6.691102504730225,-6.998456001281738,-1.5560040473937988
1663860967978717200,10.84571728515625,-6.7251787185668945,-6.950062274932861,-1.624496579170227
1663860967988605000,10.85560498046875,-6.751049041748047,-6.913889408111572,-1.670885682106018
1663860967998492400,10.865492431640625,-6.779735088348389,-6.881227970123291,-1.6894598007202148
1663860968008380200,10.875380126953125,-6.815195560455322,-6.839502334594727,-1.716011643409729
1663860968018237400,10.885237548828124,-6.856022834777832,-6.779637813568115,-1.7893731594085693
1663860968028094500,10.895094482421875,-6.916414737701416,-6.7007598876953125,-1.8529425859451294
1663860968037982200,10.904982177734375,-6.989708423614502,-6.618163585662842,-1.874638319015503
1663860968047870000,10.914869873046875,-7.070324897766113,-6.535511493682861,-1.8622525930404663
1663860968057757700,10.9247578125,-7.155842304229736,-6.443702697753906,-1.8555309772491455
1663860968067614700,10.93461474609375,-7.248144626617432,-6.333368301391602,-1.8770281076431274
1663860968077533000,10.944532958984375,-7.352969169616699,-6.2031474113464355,-1.9039965867996216
1663860968087390200,10.95439013671875,-7.461297035217285,-6.061172008514404,-1.939491629600525
1663860968097308400,10.964308349609375,-7.567475318908691,-5.909395217895508,-1.995682716369629
1663860968107196200,10.974196044921875,-7.6694817543029785,-5.751956462860107,-2.065049648284912
1663860968117084000,10.984083984375,-7.767940044403076,-5.58901834487915,-2.1429834365844727
1663860968126971400,10.993971435546875,-7.865119934082031,-5.4178147315979,-2.2265570163726807
1663860968136859100,11.003859130859375,-7.965312957763672,-5.2389702796936035,-2.2972517013549805
1663860968146747000,11.013746826171875,-8.066221237182617,-5.054666042327881,-2.357287645339966
1663860968156634600,11.023634521484375,-8.166208267211914,-4.862392902374268,-2.4167280197143555
1663860968166492000,11.033491943359374,-8.269002914428711,-4.661496162414551,-2.462608814239502
1663860968176379400,11.04337939453125,-8.379011154174805,-4.452021598815918,-2.4783170223236084
1663860968186267100,11.05326708984375,-8.484946250915527,-4.233990669250488,-2.4998810291290283
1663860968196124400,11.06312451171875,-8.583857536315918,-4.006662368774414,-2.5366194248199463
1663860968205981400,11.0729814453125,-8.681530952453613,-3.7731897830963135,-2.562115430831909
1663860968215899600,11.082899658203125,-8.770524978637695,-3.531642436981201,-2.603032350540161
1663860968225757000,11.0927568359375,-8.844931602478027,-3.2936549186706543,-2.6625967025756836
1663860968235675100,11.102675048828125,-8.912073135375977,-3.0597546100616455,-2.717212200164795
1663860968245563000,11.11256298828125,-8.97369384765625,-2.8249802589416504,-2.7681572437286377
1663860968255450600,11.12245068359375,-9.028077125549316,-2.5867490768432617,-2.823640823364258
1663860968265307600,11.1323076171875,-9.073789596557617,-2.355768918991089,-2.878727436065674
1663860968275195400,11.1421953125,-9.108965873718262,-2.13396954536438,-2.9399497509002686
1663860968285083100,11.152083251953124,-9.128098487854004,-1.9159737825393677,-3.0293948650360107
1663860968294971000,11.161970947265624,-9.142003059387207,-1.7108867168426514,-3.1091861724853516
1663860968304858400,11.1718583984375,-9.155802726745605,-1.5149999856948853,-3.1696112155914307
1663860968314746000,11.18174609375,-9.168472290039062,-1.3225730657577515,-3.2187421321868896
1663860968324633900,11.1916337890625,-9.183802604675293,-1.1380035877227783,-3.2454757690429688
1663860968334521600,11.201521484375,-9.199527740478516,-0.9525533318519592,-3.2606301307678223
1663860968344378600,11.211378662109375,-9.21972370147705,-0.7711692452430725,-3.251519203186035
1663860968354266400,11.221266357421875,-9.245634078979492,-0.5988237857818604,-3.2140398025512695
1663860968364123600,11.23112353515625,-9.270964622497559,-0.43594303727149963,-3.1669487953186035
1663860968374041900,11.241041748046875,-9.291913986206055,-0.2832494080066681,-3.1225779056549072
1663860968383899100,11.250899169921874,-9.30888557434082,-0.14539293944835663,-3.0812158584594727
1663860968393786600,11.26078662109375,-9.325611114501953,-0.026485901325941086,-3.033588171005249
1663860968403674400,11.27067431640625,-9.341985702514648,0.06972164660692215,-2.9820821285247803
1663860968413562000,11.28056201171875,-9.359227180480957,0.1514972597360611,-2.9244327545166016
1663860968423419400,11.29041943359375,-9.37965202331543,0.22211287915706635,-2.8536252975463867
1663860968433337600,11.300337646484374,-9.39272689819336,0.2743487060070038,-2.8056743144989014
1663860968443225000,11.31022509765625,-9.409314155578613,0.2955106496810913,-2.74733829498291
1663860968453112800,11.32011279296875,-9.422792434692383,0.28097236156463623,-2.7023019790649414
1663860968462970000,11.32997021484375,-9.434471130371094,0.22963719069957733,-2.666159152984619
1663860968472857900,11.33985791015625,-9.456628799438477,0.14698512852191925,-2.592480182647705
1663860968482715000,11.34971484375,-9.474825859069824,0.036323439329862595,-2.529179334640503
1663860968492602600,11.3596025390625,-9.481073379516602,-0.10648928582668304,-2.5036542415618896
1663860968502520800,11.369520751953125,-9.489474296569824,-0.26568591594696045,-2.4596097469329834
1663860968512408600,11.37940869140625,-9.49586009979248,-0.44060614705085754,-2.4093363285064697
1663860968522296300,11.38929638671875,-9.485508918762207,-0.6414955854415894,-2.4049930572509766
1663860968532183800,11.399183837890625,-9.465341567993164,-0.8516545295715332,-2.4191718101501465
1663860968542071600,11.409071533203125,-9.4504976272583,-1.0560857057571411,-2.396487236022949
1663860968551959300,11.418959228515625,-9.42588996887207,-1.2593086957931519,-2.395228862762451
1663860968561816600,11.428816650390624,-9.39085578918457,-1.4631532430648804,-2.4168994426727295
1663860968571673600,11.438673583984375,-9.358953475952148,-1.6688730716705322,-2.4073281288146973
1663860968581591800,11.448591796875,-9.321786880493164,-1.8832978010177612,-2.3932981491088867
1663860968591479600,11.4584794921875,-9.268921852111816,-2.121718645095825,-2.3991189002990723
1663860968601367300,11.4683671875,-9.212859153747559,-2.381784677505493,-2.3708033561706543
1663860968611224300,11.478224365234375,-9.15754508972168,-2.6381523609161377,-2.3129870891571045
1663860968621112000,11.488112060546875,-9.08959674835205,-2.8948116302490234,-2.273698568344116
1663860968630969300,11.49796923828125,-9.005684852600098,-3.1674487590789795,-2.243942975997925
1663860968640887600,11.507887451171875,-8.908584594726562,-3.462456703186035,-2.195199966430664
1663860968650775300,11.517775390625,-8.803343772888184,-3.7664287090301514,-2.117907762527466
1663860968660663000,11.5276630859375,-8.688331604003906,-4.0560712814331055,-2.057077646255493
1663860968670550500,11.537550537109375,-8.571063995361328,-4.326751708984375,-1.9966156482696533
1663860968680438300,11.547438232421875,-8.451825141906738,-4.589186191558838,-1.9173911809921265
1663860968690295600,11.557295654296874,-8.312183380126953,-4.851830959320068,-1.8808857202529907
1663860968700183300,11.567183349609374,-8.160215377807617,-5.115767478942871,-1.8466734886169434
1663860968710040300,11.577040283203125,-8.013769149780273,-5.373325347900391,-1.754212737083435
1663860968719958500,11.58695849609375,-7.865131378173828,-5.618873596191406,-1.6547999382019043
1663860968729846300,11.59684619140625,-7.707878589630127,-5.849475383758545,-1.5945628881454468
1663860968739703600,11.60670361328125,-7.548882007598877,-6.067189693450928,-1.5407699346542358
1663860968749591000,11.616591064453125,-7.39802360534668,-6.2687907218933105,-1.4635223150253296
1663860968759478800,11.626478759765625,-7.249841690063477,-6.449820518493652,-1.4177465438842773
1663860968769366500,11.636366455078125,-7.105282306671143,-6.611435890197754,-1.405085563659668
1663860968779254300,11.646254150390625,-6.965406894683838,-6.7625322341918945,-1.386237621307373
1663860968789111300,11.656111328125,-6.824902057647705,-6.90431547164917,-1.3861947059631348
1663860968799029500,11.666029541015625,-6.691269874572754,-7.029662132263184,-1.4075340032577515
1663860968808917200,11.675917236328125,-6.577920913696289,-7.136317253112793,-1.4051010608673096
1663860968818774500,11.6857744140625,-6.477864742279053,-7.228081703186035,-1.4008868932724
1663860968828631600,11.695631591796875,-6.388454437255859,-7.303305625915527,-1.4211856126785278
1663860968838549800,11.7055498046875,-6.317970275878906,-7.363448619842529,-1.425922155380249
1663860968848437500,11.7154375,-6.254073143005371,-7.416520595550537,-1.4325412511825562
1663860968858325200,11.7253251953125,-6.200378894805908,-7.458785057067871,-1.4464486837387085
1663860968868182500,11.7351826171875,-6.165408134460449,-7.488661766052246,-1.4415544271469116
1663860968878070300,11.7450703125,-6.1405839920043945,-7.5100836753845215,-1.43605637550354
1663860968887927300,11.75492724609375,-6.1387715339660645,-7.514543056488037,-1.4203906059265137
1663860968897845500,11.764845458984375,-6.1562910079956055,-7.504696846008301,-1.3964227437973022
1663860968907733200,11.774733154296875,-6.186873435974121,-7.481407165527344,-1.3861947059631348
1663860968917621000,11.78462109375,-6.237178802490234,-7.4400200843811035,-1.383506417274475
1663860968927478000,11.79447802734375,-6.299198627471924,-7.384970664978027,-1.3973884582519531
1663860968937365800,11.80436572265625,-6.376476764678955,-7.315021991729736,-1.4147087335586548
1663860968947253500,11.81425341796875,-6.467097759246826,-7.2348222732543945,-1.415764570236206
1663860968957110800,11.82411083984375,-6.547127723693848,-7.157016277313232,-1.443132996559143
1663860968966998300,11.833998291015625,-6.627467632293701,-7.076109409332275,-1.4750343561172485
1663860968976916500,11.84391650390625,-6.702561378479004,-7.000293731689453,-1.4973137378692627
1663860968986804200,11.85380419921875,-6.752995014190674,-6.939054012298584,-1.5546644926071167
1663860968996692000,11.86369189453125,-6.798140048980713,-6.878161430358887,-1.6268258094787598
1663860969006579700,11.873579833984374,-6.852677345275879,-6.812901020050049,-1.6719943284988403
1663860969016467500,11.883467529296874,-6.901134490966797,-6.749314785003662,-1.7295889854431152
1663860969026355000,11.89335498046875,-6.958537578582764,-6.672854423522949,-1.7950369119644165
1663860969036242700,11.90324267578125,-7.041528701782227,-6.575091361999512,-1.8317850828170776
1663860969046130400,11.91313037109375,-7.119873523712158,-6.470000743865967,-1.9018094539642334
1663860969056018200,11.92301806640625,-7.197649002075195,-6.3538384437561035,-1.998240351676941
1663860969065875200,11.932875244140625,-7.30333137512207,-6.222006797790527,-2.0293772220611572
1663860969075763000,11.942762939453125,-7.406274318695068,-6.096120834350586,-2.0383310317993164
1663860969085620200,11.9526201171875,-7.495964527130127,-5.971959590911865,-2.0776424407958984
1663860969095508000,11.962508056640624,-7.598932266235352,-5.828980445861816,-2.109410285949707
1663860969105395700,11.972395751953124,-7.708770275115967,-5.67433500289917,-2.1324081420898438
1663860969115283200,11.982283203125,-7.817483901977539,-5.510247707366943,-2.1666769981384277
1663860969125140500,11.992140380859375,-7.926048755645752,-5.335177898406982,-2.209979295730591
1663860969135058700,12.00205859375,-8.032273292541504,-5.150052070617676,-2.264936923980713
1663860969144946400,12.011946533203124,-8.130258560180664,-4.951138973236084,-2.35701060295105
1663860969154834200,12.021834228515624,-8.220925331115723,-4.73376989364624,-2.4855973720550537
1663860969164691200,12.031691162109375,-8.30526065826416,-4.507830619812012,-2.6215434074401855
1663860969174579000,12.041578857421875,-8.383201599121094,-4.281578063964844,-2.749619483947754
1663860969184466700,12.051466796875,-8.457884788513184,-4.065132141113281,-2.8476788997650146
1663860969194354400,12.0613544921875,-8.531131744384766,-3.8508896827697754,-2.925886631011963
1663860969204242000,12.071241943359375,-8.590119361877441,-3.6242151260375977,-3.0406076908111572
1663860969214129700,12.081129638671875,-8.646808624267578,-3.3892152309417725,-3.1490180492401123
1663860969223987000,12.090987060546874,-8.70927619934082,-3.147583484649658,-3.2267041206359863
1663860969233874700,12.100874755859374,-8.758374214172363,-2.8921337127685547,-3.3311901092529297
1663860969243762200,12.11076220703125,-8.802477836608887,-2.6356608867645264,-3.426377296447754
1663860969253619500,12.120619384765625,-8.85165786743164,-2.381995916366577,-3.4849162101745605
1663860969263507200,12.130507080078125,-8.896424293518066,-2.1203529834747314,-3.5395102500915527
1663860969273425400,12.14042529296875,-8.931212425231934,-1.855477213859558,-3.6001458168029785
1663860969283282400,12.150282470703125,-8.964940071105957,-1.5924570560455322,-3.642022132873535
1663860969293200600,12.16020068359375,-9.00068187713623,-1.3367643356323242,-3.6566624641418457
1663860969303058000,12.170057861328125,-9.027373313903809,-1.0941048860549927,-3.6714906692504883
1663860969312945700,12.179945556640625,-9.047890663146973,-0.859732985496521,-3.6833300590515137
1663860969322802700,12.189802734375,-9.071772575378418,-0.6326090097427368,-3.6705775260925293
1663860969332721200,12.19972119140625,-9.08700180053711,-0.4083419442176819,-3.6647019386291504
1663860969342608600,12.209608642578125,-9.090811729431152,-0.2016574740409851,-3.67244815826416
1663860969352496400,12.219496337890625,-9.093561172485352,-0.01843300648033619,-3.671128511428833
1663860969362384100,12.229384033203125,-9.090985298156738,0.13981501758098602,-3.674888849258423
1663860969372241400,12.239241455078124,-9.084694862365723,0.28301945328712463,-3.682201623916626
1663860969382098400,12.249098388671875,-9.076805114746094,0.42053619027137756,-3.68851375579834
1663860969391986200,12.258986083984375,-9.064788818359375,0.5465885996818542,-3.7015187740325928
1663860969401874000,12.2688740234375,-9.053580284118652,0.6503419280052185,-3.712158203125
1663860969411792100,12.278792236328124,-9.050800323486328,0.7429897785186768,-3.701535940170288
1663860969421649200,12.288649169921875,-9.05587100982666,0.8408015370368958,-3.668057441711426
1663860969431567400,12.2985673828125,-9.065787315368652,0.9175482392311096,-3.6249117851257324
1663860969441455000,12.308455078125,-9.078872680664062,0.9477470517158508,-3.5841636657714844
1663860969451342800,12.3183427734375,-9.094923973083496,0.9519689679145813,-3.542104482650757
1663860969461200100,12.3282001953125,-9.119478225708008,0.9271785616874695,-3.4850893020629883
1663860969471057200,12.33805712890625,-9.149105072021484,0.8683000206947327,-3.4220356941223145
1663860969480945000,12.34794482421875,-9.169964790344238,0.8003472089767456,-3.3825385570526123
1663860969490863000,12.357863037109375,-9.17944622039795,0.7056244611740112,-3.377903699874878
1663860969500750800,12.367750732421875,-9.198904037475586,0.5598390102386475,-3.352182149887085
1663860969510608000,12.37760791015625,-9.227014541625977,0.40212282538414,-3.297102928161621
1663860969520465200,12.387465087890625,-9.244312286376953,0.25937074422836304,-3.2627921104431152
1663860969530383400,12.39738330078125,-9.25399398803711,0.08535648137331009,-3.2444875240325928
1663860969540271000,12.40727099609375,-9.265242576599121,-0.131073996424675,-3.210684061050415
1663860969550128000,12.417128173828125,-9.279640197753906,-0.3489970266819,-3.152280569076538
1663860969560046600,12.427046630859374,-9.284008026123047,-0.5724087357521057,-3.1064329147338867
1663860969569903600,12.436903564453125,-9.271673202514648,-0.8173866271972656,-3.0884201526641846
1663860969579791400,12.446791259765625,-9.257890701293945,-1.0775514841079712,-3.0497095584869385
1663860969589679000,12.45667919921875,-9.236692428588867,-1.3559011220932007,-3.0025691986083984
1663860969599566800,12.46656689453125,-9.200116157531738,-1.661557674407959,-2.9609909057617188
1663860969609424000,12.476423828125,-9.158476829528809,-1.9712029695510864,-2.899488687515259
1663860969619342000,12.486342041015625,-9.106340408325195,-2.2700963020324707,-2.8445751667022705
1663860969629229800,12.496229736328125,-9.034319877624512,-2.5793631076812744,-2.8103983402252197
1663860969639117600,12.50611767578125,-8.956716537475586,-2.89791202545166,-2.747675657272339
1663860969649005300,12.51600537109375,-8.87697982788086,-3.2060790061950684,-2.6628308296203613
1663860969658892800,12.525892822265625,-8.783535957336426,-3.5131897926330566,-2.584064483642578
1663860969668750000,12.53575,-8.672435760498047,-3.8171305656433105,-2.527599811553955
1663860969678607400,12.545607421875,-8.547040939331055,-4.107151508331299,-2.4999561309814453
1663860969688525600,12.555525634765624,-8.407719612121582,-4.393172264099121,-2.486095905303955
1663860969698382600,12.565382568359375,-8.260416030883789,-4.679550647735596,-2.4571778774261475
1663860969708300800,12.57530078125,-8.115983009338379,-4.955347537994385,-2.397028684616089
1663860969718188500,12.5851884765625,-7.985223293304443,-5.198695182800293,-2.319518566131592
1663860969728076300,12.595076171875,-7.85792350769043,-5.4130659103393555,-2.263219118118286
1663860969737964000,12.604964111328124,-7.721194744110107,-5.616733551025391,-2.237375497817993
1663860969747851500,12.6148515625,-7.570702075958252,-5.825776100158691,-2.2170214653015137
1663860969757739300,12.6247392578125,-7.409966945648193,-6.040652751922607,-2.184783935546875
1663860969767627000,12.634626953125,-7.257394790649414,-6.241771221160889,-2.1309399604797363
1663860969777514800,12.6445146484375,-7.113131999969482,-6.419683933258057,-2.08839750289917
1663860969787402500,12.654402587890624,-6.9644455909729,-6.578798294067383,-2.0943477153778076
1663860969797259500,12.664259521484375,-6.828688144683838,-6.717835903167725,-2.100017786026001
1663860969807147300,12.674147216796875,-6.7038726806640625,-6.8440775871276855,-2.0945332050323486
1663860969817035000,12.684034912109375,-6.585960388183594,-6.958328723907471,-2.0921707153320312
1663860969826922800,12.6939228515625,-6.486542224884033,-7.054258346557617,-2.0814874172210693
1663860969836810500,12.703810546875,-6.392868995666504,-7.138875484466553,-2.082801342010498
1663860969846698000,12.713697998046875,-6.319596290588379,-7.2060546875,-2.075056552886963
1663860969856585700,12.723585693359375,-6.275453567504883,-7.254643440246582,-2.0394155979156494
1663860969866443000,12.733443115234374,-6.227517127990723,-7.2957963943481445,-2.0395538806915283
1663860969876330800,12.743330810546874,-6.196963787078857,-7.317890644073486,-2.053413152694702
1663860969886187800,12.753187744140625,-6.198354244232178,-7.323663234710693,-2.028485059738159
1663860969896075500,12.763075439453125,-6.204211711883545,-7.325577735900879,-2.0035128593444824
1663860969905932800,12.772932861328124,-6.222193717956543,-7.312790870666504,-1.9944349527359009
1663860969915851000,12.78285107421875,-6.25629186630249,-7.284489154815674,-1.9913389682769775
1663860969925738500,12.792738525390625,-6.291407585144043,-7.2508039474487305,-2.00360107421875
1663860969935626200,12.802626220703125,-6.345660209655762,-7.206774711608887,-1.9913251399993896
1663860969945483500,12.8124833984375,-6.408395290374756,-7.158619403839111,-1.963932991027832
