time,seconds_elapsed,z,y,x
1663860957363969800,0.2309697265625,0.30255126953125,-0.981231689453125,0.323089599609375
1663860957373857500,0.240857421875,0.1630096435546875,-1.0089263916015625,0.521240234375
1663860957383745300,0.250745361328125,0.0607452392578125,-1.1346282958984375,0.642669677734375
1663860957393633000,0.260633056640625,0.0596771240234375,-1.0526123046875,0.7087249755859375
1663860957403520800,0.270520751953125,0.1065521240234375,-1.037689208984375,0.7119140625
1663860957413408500,0.280408447265625,0.1310577392578125,-0.8736419677734375,0.621368408203125
1663860957423296000,0.2902958984375,0.0575408935546875,-0.4763031005859375,0.47222900390625
1663860957433183700,0.300183837890625,-0.0660247802734375,-0.0661773681640625,0.3390655517578125
1663860957443071500,0.310071533203125,-0.1800079345703125,0.1287689208984375,0.276214599609375
1663860957452959200,0.319959228515625,-0.265228271484375,0.0723114013671875,0.3145751953125
1663860957462847000,0.329846923828125,-0.321685791015625,-0.238739013671875,0.450927734375
1663860957472734500,0.339734375,-0.3515167236328125,-0.722381591796875,0.60113525390625
1663860957482591700,0.349591796875,-0.4069061279296875,-1.2060089111328125,0.7065887451171875
1663860957492479500,0.3594794921875,-0.5081024169921875,-1.5106658935546875,0.7470703125
1663860957502367200,0.3693671875,-0.573089599609375,-1.5138702392578125,0.734283447265625
1663860957512254700,0.379254638671875,-0.48040771484375,-1.178314208984375,0.64373779296875
1663860957522142500,0.389142578125,-0.173614501953125,-0.6318359375,0.463714599609375
1663860957532030200,0.3990302734375,0.1331787109375,-0.071502685546875,0.1388092041015625
1663860957541918000,0.40891796875,0.2748565673828125,0.1756439208984375,-0.12005615234375
1663860957551805700,0.4188056640625,0.3227996826171875,0.0723114013671875,-0.106201171875
1663860957561662700,0.428662841796875,0.303619384765625,-0.2930755615234375,0.0791473388671875
1663860957571550500,0.438550537109375,0.1843109130859375,-0.6467437744140625,0.24639892578125
1663860957581407700,0.44840771484375,0.06500244140625,-0.8043975830078125,0.3518524169921875
1663860957591264800,0.4582646484375,0.0458221435546875,-0.6691131591796875,0.4200286865234375
1663860957601183000,0.468182861328125,0.1395721435546875,-0.3846893310546875,0.439208984375
1663860957611070700,0.47807080078125,0.25994873046875,-0.19293212890625,0.415771484375
1663860957620958500,0.48795849609375,0.3334503173828125,-0.1290283203125,0.407257080078125
1663860957630846200,0.49784619140625,0.376068115234375,-0.151397705078125,0.4200286865234375
1663860957640734000,0.50773388671875,0.376068115234375,-0.1758880615234375,0.40618896484375
1663860957650621400,0.517621337890625,0.3110809326171875,-0.136474609375,0.3209686279296875
1663860957660509200,0.52750927734375,0.216278076171875,-0.026763916015625,0.1824798583984375
1663860957670397000,0.53739697265625,0.14703369140625,0.13623046875,0.0301513671875
1663860957680284700,0.54728466796875,0.134246826171875,0.20440673828125,-0.1147308349609375
1663860957690172400,0.55717236328125,0.1608734130859375,0.1202545166015625,-0.1956939697265625
1663860957700029400,0.567029541015625,0.22265625,-0.0406036376953125,-0.1733245849609375
1663860957709917200,0.576917236328125,0.282318115234375,-0.2110443115234375,-0.04974365234375
1663860957719805000,0.586804931640625,0.317474365234375,-0.365509033203125,0.1505279541015625
1663860957729692700,0.596692626953125,0.31427001953125,-0.4880218505859375,0.323089599609375
1663860957739580200,0.606580078125,0.2887115478515625,-0.5327606201171875,0.368896484375
1663860957749468000,0.616468017578125,0.2769927978515625,-0.466705322265625,0.2826080322265625
1663860957759355600,0.626355712890625,0.30682373046875,-0.3473968505859375,0.1270904541015625
1663860957769213000,0.636212890625,0.3590240478515625,-0.2216949462890625,-0.03057861328125
1663860957779100400,0.646100341796875,0.3654022216796875,-0.0736236572265625,-0.1626739501953125
1663860957788988200,0.65598828125,0.33984375,-0.00439453125,-0.2500152587890625
1663860957798876000,0.6658759765625,0.2876434326171875,-0.050201416015625,-0.292633056640625
1663860957808763600,0.675763671875,0.225860595703125,-0.124755859375,-0.2638702392578125
1663860957818651400,0.6856513671875,0.2088165283203125,-0.160980224609375,-0.1285858154296875
1663860957828508400,0.69550830078125,0.223724365234375,-0.1673736572265625,0.0365447998046875
1663860957838396200,0.705396240234375,0.24609375,-0.1993255615234375,0.1377410888671875
1663860957848284000,0.715283935546875,0.2855072021484375,-0.2600555419921875,0.16436767578125
1663860957858171600,0.725171630859375,0.3206634521484375,-0.2952117919921875,0.1451873779296875
1663860957868028700,0.735028564453125,0.32598876953125,-0.2707061767578125,0.1015167236328125
1663860957877886000,0.744885986328125,0.28125,-0.196136474609375,0.01629638671875
1663860957887804200,0.75480419921875,0.2183990478515625,-0.0821533203125,-0.1008758544921875
1663860957897692000,0.76469189453125,0.1843109130859375,0.053131103515625,-0.2084808349609375
1663860957907579600,0.77457958984375,0.1747283935546875,0.11492919921875,-0.2542724609375
1663860957917467100,0.784467041015625,0.18963623046875,0.03076171875,-0.19781494140625
1663860957927355000,0.79435498046875,0.2269287109375,-0.1226348876953125,-0.0486907958984375
1663860957937242600,0.80424267578125,0.261016845703125,-0.2451324462890625,0.1153717041015625
1663860957947130400,0.81413037109375,0.26953125,-0.2728271484375,0.208038330078125
1663860957956987400,0.8239873046875,0.2418365478515625,-0.198272705078125,0.1856689453125
1663860957966875100,0.833875244140625,0.2269287109375,-0.08428955078125,0.0578460693359375
1663860957976732400,0.843732421875,0.223724365234375,0.04248046875,-0.109405517578125
1663860957986620200,0.8536201171875,0.2098846435546875,0.1085357666015625,-0.243621826171875
1663860957996466400,0.863466552734375,0.1843109130859375,0.06805419921875,-0.3288421630859375
1663860958006384600,0.873384521484375,0.14276123046875,-0.0065155029296875,-0.3597412109375
1663860958016242000,0.883241943359375,0.1289215087890625,-0.0438079833984375,-0.2830352783203125
1663860958026129700,0.893129638671875,0.1406402587890625,0.0030670166015625,-0.1051483154296875
1663860958036017400,0.903017333984375,0.181121826171875,0.0925445556640625,0.0791473388671875
1663860958045905000,0.91290478515625,0.249298095703125,0.0233154296875,0.151580810546875
1663860958055792600,0.922792724609375,0.2535552978515625,-0.0001220703125,0.177154541015625
1663860958065650000,0.93264990234375,0.22265625,0.055267333984375,0.1920623779296875
1663860958075568000,0.942568115234375,0.2429046630859375,0.0595245361328125,0.17822265625
1663860958085456000,0.952455810546875,0.2855072021484375,0.029693603515625,0.144134521484375
1663860958095343400,0.96234326171875,0.3110809326171875,-0.0278167724609375,0.1270904541015625
1663860958105231000,0.972231201171875,0.2982940673828125,-0.071502685546875,0.128143310546875
1663860958115118800,0.982118896484375,0.258880615234375,-0.071502685546875,0.09832763671875
1663860958124976000,0.99197607421875,0.2290496826171875,-0.045928955078125,0.0333404541015625
1663860958134863600,1.001863525390625,0.23651123046875,0.008392333984375,-0.0209808349609375
1663860958144751400,1.01175146484375,0.26953125,0.04461669921875,-0.0359039306640625
1663860958154639000,1.02163916015625,0.2887115478515625,0.0179901123046875,-0.0103302001953125
1663860958164526800,1.03152685546875,0.2748565673828125,-0.07257080078125,0.0354766845703125
1663860958174414600,1.04141455078125,0.2397003173828125,-0.1780242919921875,0.0674285888671875
1663860958184302000,1.051302001953125,0.204559326171875,-0.23980712890625,0.0791473388671875
1663860958194189800,1.06118994140625,0.1832427978515625,-0.2003936767578125,0.0237579345703125
1663860958204077600,1.07107763671875,0.190704345703125,-0.092803955078125,-0.07318115234375
1663860958213934800,1.080934814453125,0.2088165283203125,0.0243682861328125,-0.129638671875
1663860958223822600,1.090822509765625,0.2205352783203125,0.0957489013671875,-0.1456298828125
1663860958233710000,1.1007099609375,0.2311859130859375,0.0936126708984375,-0.130706787109375
1663860958243597800,1.110597900390625,0.2429046630859375,0.0275726318359375,-0.0934295654296875
1663860958253485600,1.120485595703125,0.2450408935546875,-0.0406036376953125,-0.0518798828125
1663860958263342800,1.1303427734375,0.249298095703125,-0.0587158203125,-0.0220489501953125
1663860958273199900,1.140199951171875,0.25994873046875,-0.04486083984375,-0.015655517578125
1663860958283118000,1.1501181640625,0.2737884521484375,-0.0001220703125,-0.0103302001953125
1663860958293005800,1.160005859375,0.294036865234375,0.0403594970703125,-0.0007476806640625
1663860958302893600,1.1698935546875,0.303619384765625,0.0360870361328125,-0.0113983154296875
1663860958312781300,1.17978125,0.3121490478515625,0.00946044921875,-0.0220489501953125
1663860958322668800,1.189668701171875,0.31427001953125,-0.012908935546875,-0.015655517578125
1663860958332556500,1.199556640625,0.3004302978515625,-0.034210205078125,-0.008209228515625
1663860958342444300,1.2094443359375,0.2780609130859375,-0.038482666015625,0.0333404541015625
1663860958352332000,1.21933203125,0.2769927978515625,-0.0533905029296875,0.095123291015625
1663860958362219800,1.2292197265625,0.3046875,-0.158843994140625,0.155853271484375
1663860958372107300,1.239107177734375,0.395233154296875,-0.490142822265625,0.2272186279296875
1663860958381964500,1.248964599609375,0.5188140869140625,-0.8874969482421875,0.2740936279296875
1663860958391852300,1.258852294921875,0.646636962890625,-1.3317108154296875,0.2858123779296875
1663860958401740000,1.268739990234375,0.7915191650390625,-1.8792572021484375,0.2495880126953125
1663860958411627500,1.27862744140625,1.0290679931640625,-2.4715423583984375,0.1249542236328125
1663860958421515300,1.288515380859375,1.2900543212890625,-3.1213531494140625,-0.0582733154296875
1663860958431403000,1.298403076171875,1.47967529296875,-3.5996551513671875,-0.24468994140625
1663860958441290800,1.308290771484375,1.6085662841796875,-3.3812713623046875,-0.3874359130859375
1663860958451148000,1.31814794921875,1.5989837646484375,-2.292572021484375,-0.5131378173828125
1663860958461035500,1.328035400390625,1.318817138671875,-1.58416748046875,-0.656951904296875
1663860958470923300,1.33792333984375,0.841583251953125,-1.6480865478515625,-0.835906982421875
1663860958480780500,1.347780517578125,0.747833251953125,-2.269134521484375,-0.803955078125
1663860958490637600,1.357637451171875,1.2687530517578125,-3.4398651123046875,-0.1850433349609375
1663860958500525300,1.367525390625,1.7960662841796875,-4.447601318359375,0.710845947265625
1663860958510382600,1.377382568359375,1.9888763427734375,-5.441497802734375,1.5151214599609375
1663860958520300800,1.38730078125,2.00592041015625,-6.3565673828125,2.13616943359375
1663860958530188500,1.3971884765625,1.8301544189453125,-6.6079559326171875,2.673065185546875
1663860958540076000,1.407075927734375,1.504180908203125,-6.7038421630859375,3.222747802734375
1663860958549963800,1.4169638671875,1.5648956298828125,-7.1565704345703125,3.6605682373046875
1663860958559821000,1.426821044921875,2.0879364013671875,-8.037551879882812,4.0046539306640625
1663860958569739300,1.4367392578125,2.5790252685546875,-9.022918701171875,4.3806915283203125
1663860958579596300,1.44659619140625,2.79315185546875,-9.380844116210938,4.7439422607421875
1663860958589484000,1.456484130859375,2.9124603271484375,-8.993087768554688,4.9719085693359375
1663860958599341300,1.46634130859375,3.1595916748046875,-8.411453247070312,5.0848236083984375
1663860958609259500,1.476259521484375,3.610198974609375,-7.6710968017578125,5.0038604736328125
1663860958619147300,1.486147216796875,4.26214599609375,-6.834869384765625,4.80572509765625
1663860958629034800,1.49603466796875,5.051513671875,-6.0998382568359375,4.5724334716796875
1663860958638922500,1.505922607421875,5.86749267578125,-5.5363006591796875,4.3924102783203125
1663860958648810200,1.515810302734375,6.5013275146484375,-5.1293792724609375,4.3572540283203125
1663860958658698000,1.525697998046875,6.749542236328125,-4.802337646484375,4.3998565673828125
1663860958668585700,1.535585693359375,6.5940093994140625,-4.38262939453125,4.3806915283203125
1663860958678473200,1.54547314453125,6.248870849609375,-3.7392120361328125,4.2049102783203125
1663860958688330500,1.55533056640625,5.9569854736328125,-2.67926025390625,3.871490478515625
1663860958698187800,1.565187744140625,5.8621673583984375,-1.3295745849609375,3.370819091796875
1663860958708075500,1.575075439453125,5.9463348388671875,0.022247314453125,2.7806549072265625
1663860958717963000,1.584962890625,6.0762939453125,0.9298553466796875,2.2373809814453125
1663860958727820300,1.5948203125,6.0475311279296875,1.140777587890625,1.8496246337890625
1663860958737708000,1.6047080078125,5.78759765625,0.819061279296875,1.702606201171875
1663860958747626200,1.614626220703125,5.3487091064453125,0.4281158447265625,1.8155364990234375
1663860958757514000,1.624513916015625,4.8810577392578125,0.3343658447265625,1.9625396728515625
1663860958767401500,1.6344013671875,4.5092926025390625,0.5058746337890625,2.055206298828125
1663860958777289200,1.644289306640625,4.237640380859375,0.7924346923828125,2.1787872314453125
1663860958787177000,1.654177001953125,3.9574737548828125,1.014007568359375,2.3023529052734375
1663860958797064700,1.664064697265625,3.632568359375,1.082183837890625,2.4184722900390625
1663860958806952400,1.673952392578125,3.2277679443359375,1.0672607421875,2.5090179443359375
1663860958816840000,1.68383984375,2.655731201171875,1.2121429443359375,2.4035491943359375
1663860958826727700,1.693727783203125,1.9217529296875,1.432647705078125,2.010467529296875
1663860958836615400,1.703615478515625,1.03759765625,1.6457061767578125,1.439483642578125
1663860958846503200,1.713503173828125,0.2652740478515625,1.7831268310546875,1.0602569580078125
1663860958856360200,1.723360107421875,-0.45697021484375,1.808685302734375,0.8365478515625
1663860958866248000,1.733248046875,-1.1739044189453125,1.7650146484375,0.5936737060546875
1663860958876105200,1.743105224609375,-1.726776123046875,1.7969818115234375,0.3965911865234375
1663860958885993000,1.752992919921875,-2.0452880859375,2.130401611328125,0.052520751953125
1663860958895850000,1.76285009765625,-2.194427490234375,2.5117645263671875,-0.3181915283203125
1663860958905768200,1.772768310546875,-2.3680572509765625,2.4563751220703125,-0.647369384765625
1663860958915625500,1.78262548828125,-2.502288818359375,2.0462493896484375,-1.0361785888671875
1663860958925513200,1.79251318359375,-2.4948272705078125,1.60736083984375,-1.349365234375
1663860958935370200,1.802370361328125,-2.398956298828125,1.3176116943359375,-1.578399658203125
1663860958945288400,1.812288330078125,-2.3009490966796875,1.2036285400390625,-1.6561737060546875
1663860958955176200,1.82217626953125,-2.1507415771484375,1.0896453857421875,-1.5677490234375
1663860958965064000,1.83206396484375,-1.885498046875,0.760467529296875,-1.3333892822265625
1663860958974951700,1.84195166015625,-1.402923583984375,0.1745758056640625,-0.9328460693359375
1663860958984839400,1.85183935546875,-1.1398162841796875,-0.517852783203125,-0.544036865234375
1663860958994727000,1.861726806640625,-0.8649749755859375,-1.0312957763671875,-0.2159271240234375
1663860959004614700,1.87161474609375,-0.791473388671875,-1.06005859375,-0.188232421875
1663860959014502400,1.88150244140625,-0.99493408203125,-0.8054656982421875,-0.6260528564453125
1663860959024390100,1.89139013671875,-0.9885406494140625,-0.1886749267578125,-0.8763885498046875
1663860959034247200,1.9012470703125,-0.754180908203125,0.2789764404296875,-0.9328460693359375
1663860959044135000,1.911135009765625,-0.7147674560546875,0.0052032470703125,-0.5120697021484375
1663860959054022700,1.921022705078125,-0.779754638671875,-0.6478118896484375,0.3145751953125
1663860959063910400,1.930910400390625,-0.7435302734375,-1.1271820068359375,1.35321044921875
1663860959073798100,1.940798095703125,-0.707305908203125,-1.4222564697265625,1.8357696533203125
1663860959083685600,1.950685546875,-0.643402099609375,-1.3295745849609375,1.6504058837890625
1663860959093573400,1.960573486328125,-0.608245849609375,-0.9514007568359375,1.3563995361328125
1663860959103461000,1.970461181640625,-0.403717041015625,-0.83636474609375,1.387298583984375
1663860959113348900,1.980348876953125,-0.288665771484375,-1.0323638916015625,1.3585357666015625
1663860959123236600,1.990236572265625,-0.4559173583984375,-1.3657989501953125,1.4703826904296875
1663860959133093600,2.00009375,-0.5113067626953125,-1.359405517578125,1.7089996337890625
1663860959142951000,2.009950927734375,-0.319549560546875,-1.19854736328125,1.8123321533203125
1663860959152838700,2.019838623046875,-0.140594482421875,-1.3210601806640625,1.9604034423828125
1663860959162726400,2.029726318359375,-0.035125732421875,-1.519195556640625,2.1425628662109375
1663860959172614000,2.03961376953125,0.148101806640625,-1.6257171630859375,2.1223297119140625
1663860959182471200,2.04947119140625,0.31427001953125,-1.507476806640625,1.9358978271484375
1663860959192389400,2.059389404296875,0.48577880859375,-1.379638671875,1.690887451171875
1663860959202277000,2.069277099609375,0.77447509765625,-1.26885986328125,1.4022064208984375
1663860959212164900,2.079164794921875,1.1995086669921875,-1.053680419921875,1.011260986328125
1663860959222052400,2.08905224609375,1.761962890625,-0.776702880859375,0.4935302734375
1663860959231940000,2.098940185546875,2.3862152099609375,-0.4049224853515625,-0.083831787109375
1663860959241797400,2.10879736328125,2.7750396728515625,0.0254364013671875,-0.6260528564453125
1663860959251685000,2.11868505859375,2.5811614990234375,0.4696502685546875,-0.8231353759765625
1663860959261572600,2.128572509765625,1.7161712646484375,1.00335693359375,-0.3874359130859375
1663860959271460400,2.13846044921875,1.1526336669921875,1.75543212890625,0.0812835693359375
1663860959281317600,2.148317626953125,1.0972442626953125,2.37115478515625,0.1505279541015625
1663860959291205400,2.158205322265625,1.151580810546875,1.8182830810546875,-0.0018157958984375
1663860959301092900,2.1680927734375,1.083404541015625,0.8574066162109375,-0.2649383544921875
1663860959310980600,2.177980712890625,1.067413330078125,0.8957672119140625,-0.42578125
1663860959320868400,2.187868408203125,1.0429229736328125,0.976715087890625,-0.3639984130859375
1663860959330756000,2.197756103515625,0.9246673583984375,0.6432952880859375,-0.3533477783203125
1663860959340643800,2.207643798828125,0.706298828125,0.5069427490234375,-0.4470977783203125
1663860959350531300,2.21753125,0.3994903564453125,0.762603759765625,-0.5014190673828125
1663860959360388600,2.227388671875,0.1630096435546875,1.36767578125,-0.52911376953125
1663860959370276400,2.2372763671875,0.20135498046875,2.048370361328125,-0.3565521240234375
1663860959380164000,2.2471640625,0.691375732421875,2.1602325439453125,-0.0284423828125
1663860959390021000,2.257021240234375,1.231475830078125,2.0228118896484375,0.588348388671875
1663860959399939300,2.266939208984375,1.90045166015625,2.0228118896484375,0.804595947265625
1663860959409796600,2.276796630859375,3.3119354248046875,-0.4730987548828125,-0.4918365478515625
1663860959419684400,2.286684326171875,4.5859832763671875,-3.2832794189453125,-1.5762786865234375
1663860959429572000,2.296572021484375,4.73193359375,-3.9075164794921875,-0.450286865234375
1663860959439459600,2.30645947265625,3.5153961181640625,-2.0816497802734375,0.9899444580078125
1663860959449316900,2.31631689453125,2.474639892578125,-0.355926513671875,0.858917236328125
1663860959459204600,2.32620458984375,2.6365509033203125,-0.278167724609375,0.3103179931640625
1663860959469092400,2.33609228515625,1.400848388671875,-0.277099609375,0.290069580078125
1663860959478979800,2.345979736328125,-0.015960693359375,0.4398345947265625,0.16650390625
1663860959488837000,2.355837158203125,0.13531494140625,0.10321044921875,-0.03802490234375
1663860959498755300,2.36575537109375,0.223724365234375,-0.0395355224609375,0.0791473388671875
1663860959508643000,2.37564306640625,-0.0447235107421875,0.2065277099609375,-0.0753173828125
1663860959518530800,2.38553076171875,-0.1555023193359375,0.8254547119140625,-0.4311065673828125
1663860959528418300,2.395418212890625,-0.21728515625,1.0992279052734375,-0.54296875
1663860959538306000,2.40530615234375,-0.2833404541015625,0.920257568359375,-0.4577484130859375
1663860959548193800,2.41519384765625,-0.617828369140625,0.39935302734375,-0.316070556640625
1663860959558081500,2.42508154296875,-0.867095947265625,-0.0438079833984375,-0.4918365478515625
1663860959567969300,2.43496923828125,-0.4900054931640625,0.659271240234375,-0.8433685302734375
1663860959577826300,2.444826416015625,-0.0330047607421875,1.2078857421875,-0.9168701171875
1663860959587683600,2.45468359375,-0.0436553955078125,0.6539459228515625,-0.8998260498046875
1663860959597571300,2.4645712890625,-0.1118316650390625,-0.1918792724609375,-0.8220672607421875
1663860959607458800,2.474458740234375,0.1385040283203125,-0.731964111328125,-0.6825103759765625
1663860959617346600,2.4843466796875,0.4698028564453125,-1.02703857421875,-0.5589447021484375
1663860959627203800,2.494203857421875,0.542236328125,-1.14208984375,-0.4897003173828125
1663860959637091600,2.504091552734375,0.5283966064453125,-1.1953582763671875,-0.3544158935546875
1663860959646979300,2.513979248046875,0.542236328125,-1.3657989501953125,-0.1711883544921875
1663860959656897500,2.5238974609375,0.4996337890625,-1.6172027587890625,-0.107269287109375
1663860959666754600,2.533754638671875,0.406951904296875,-1.60760498046875,-0.006072998046875
1663860959676642300,2.543642333984375,0.38671875,-1.3072052001953125,0.2261505126953125
1663860959686530000,2.553530029296875,0.4527587890625,-0.99615478515625,0.4871368408203125
1663860959696417800,2.563417724609375,0.46234130859375,-0.8033294677734375,0.6490631103515625
1663860959706305300,2.57330517578125,0.31640625,-0.5210418701171875,0.6405487060546875
1663860959716162600,2.58316259765625,0.181121826171875,-0.1993255615234375,0.482879638671875
1663860959726080800,2.593080810546875,-0.084136962890625,0.0936126708984375,0.3412017822265625
1663860959735938000,2.60293798828125,-0.1448516845703125,0.010528564453125,0.00457763671875
1663860959745825500,2.612825439453125,-0.0777435302734375,0.3194580078125,-0.211669921875
1663860959755713300,2.62271337890625,0.07672119140625,0.6187896728515625,-0.2425689697265625
1663860959765601000,2.63260107421875,0.2216033935546875,0.37591552734375,-0.2148590087890625
1663860959775488800,2.64248876953125,0.3132171630859375,0.3013458251953125,-0.0018157958984375
1663860959785376500,2.65237646484375,0.420806884765625,0.4472808837890625,0.2144317626953125
1663860959795233500,2.662233642578125,0.5486297607421875,0.487762451171875,0.3667755126953125
1663860959805151700,2.67215185546875,0.62213134765625,0.2555389404296875,0.497802734375
1663860959815009000,2.682009033203125,0.64556884765625,-0.358062744140625,0.4669036865234375
1663860959824896800,2.691896728515625,0.7659454345703125,-0.570037841796875,0.393402099609375
1663860959834784300,2.7017841796875,0.9694061279296875,-0.8161163330078125,0.5148468017578125
1663860959844672000,2.711672119140625,1.1153564453125,-1.8004302978515625,0.940948486328125
1663860959854559700,2.721559814453125,1.1995086669921875,-2.0496978759765625,1.0922088623046875
1663860959864447500,2.731447509765625,1.3347930908203125,-1.2187957763671875,0.8802337646484375
1663860959874335200,2.741335205078125,1.6128387451171875,-0.386810302734375,0.623504638671875
1663860959884192300,2.751192138671875,2.049591064453125,-0.3143768310546875,0.6384124755859375
1663860959894080000,2.761080078125,2.6003265380859375,-0.207855224609375,0.5947418212890625
1663860959903967700,2.7709677734375,3.2213897705078125,-0.0438079833984375,0.2495880126953125
1663860959913855500,2.78085546875,3.6634674072265625,-0.31011962890625,0.1377410888671875
1663860959923743200,2.7907431640625,4.47625732421875,-1.367919921875,0.4232330322265625
1663860959933600300,2.800600341796875,5.003570556640625,-2.3916473388671875,0.5915374755859375
1663860959943518500,2.8105185546875,4.7148895263671875,-2.9743499755859375,0.3976593017578125
1663860959953406200,2.82040625,4.228057861328125,-2.555694580078125,-0.1221923828125
1663860959963294000,2.8302939453125,3.7540130615234375,-0.616912841796875,-0.6377716064453125
1663860959973181700,2.840181640625,3.292755126953125,-0.0523223876953125,-0.5493621826171875
1663860959983069200,2.850069091796875,2.802734375,-0.8640594482421875,-0.3171234130859375
1663860959992957000,2.85995703125,2.1838226318359375,-1.3871002197265625,-0.074249267578125
1663860960002844700,2.8698447265625,1.34332275390625,-1.521331787109375,0.0706329345703125
1663860960012732400,2.879732421875,0.5262603759765625,-1.41693115234375,0.14306640625
1663860960022589400,2.88958935546875,0.007476806640625,-1.108001708984375,0.2325439453125
1663860960032477200,2.899477294921875,-0.1469879150390625,-0.821441650390625,0.32415771484375
1663860960042365000,2.909364990234375,-0.24285888671875,-0.560455322265625,0.21337890625
1663860960052252700,2.919252685546875,-0.4207611083984375,-0.367645263671875,-0.083831787109375
1663860960062140400,2.929140380859375,-0.575225830078125,-0.4134521484375,-0.4236602783203125
1663860960072028200,2.939028076171875,-0.5347442626953125,-0.7681884765625,-0.783721923828125
1663860960081915600,2.94891552734375,-0.3610992431640625,-1.520263671875,-1.1757354736328125
1663860960091773000,2.95877294921875,-0.1235504150390625,-2.3351898193359375,-1.3419189453125
1663860960101660700,2.96866064453125,0.148101806640625,-2.3309326171875,-0.93072509765625
1663860960111548400,2.97854833984375,0.315338134765625,-1.0930938720703125,-0.18609619140625
1663860960121436000,2.988435791015625,0.235443115234375,0.35247802734375,0.1505279541015625
1663860960131323600,2.99832373046875,0.044769287109375,0.454742431640625,0.132415771484375
1663860960141211400,3.00821142578125,0.0255889892578125,-0.127960205078125,0.019500732421875
1663860960151099100,3.01809912109375,0.0351715087890625,-0.5306243896484375,-0.0401611328125
1663860960160956200,3.0279560546875,0.033050537109375,-0.61798095703125,-0.029510498046875
1663860960170844000,3.037843994140625,0.0255889892578125,-0.6041259765625,0.0312042236328125
1663860960180701200,3.047701171875,0.0245208740234375,-0.515716552734375,0.0557098388671875
1663860960190589000,3.0575888671875,-0.003173828125,-0.4251708984375,0.01416015625
1663860960200476400,3.067476318359375,-0.0319366455078125,-0.3484649658203125,-0.0753173828125
1663860960210364200,3.0773642578125,-0.0223541259765625,-0.287750244140625,-0.177581787109375
1663860960220252000,3.087251953125,0.0138702392578125,-0.23980712890625,-0.2542724609375
1663860960230139600,3.0971396484375,0.0362396240234375,-0.13861083984375,-0.2990264892578125
1663860960240027400,3.10702734375,0.044769287109375,0.06591796875,-0.3533477783203125
1663860960249915000,3.116914794921875,0.148101806640625,0.440887451171875,-0.51739501953125
1663860960259802600,3.126802734375,1.180328369140625,0.7434234619140625,-0.6612091064453125
1663860960269690400,3.1366904296875,2.1262969970703125,-0.775634765625,-0.097686767578125
1663860960279547600,3.146547607421875,2.3116455078125,-2.226531982421875,0.1835479736328125
1663860960289435100,3.15643505859375,2.6610565185546875,-3.011627197265625,0.07275390625
1663860960299323000,3.166322998046875,2.7068634033203125,-3.65185546875,-0.0934295654296875
1663860960309210600,3.176210693359375,2.6045989990234375,-3.95758056640625,-0.223388671875
1663860960319098400,3.186098388671875,2.6056671142578125,-4.3975372314453125,-0.1125946044921875
1663860960328986000,3.195986083984375,2.6610565185546875,-4.675567626953125,0.0205535888671875
1663860960338873900,3.205873779296875,2.573699951171875,-4.1706390380859375,0.0301513671875
1663860960348761300,3.21576123046875,2.3318939208984375,-3.5890045166015625,-0.0113983154296875
1663860960358649000,3.225649169921875,1.9164276123046875,-4.244140625,-0.1104736328125
1663860960368506400,3.23550634765625,1.375274658203125,-5.178375244140625,-0.1008758544921875
1663860960378394000,3.24539404296875,0.8234710693359375,-5.4446868896484375,0.0887298583984375
1663860960388281600,3.255281494140625,0.33770751953125,-4.7533416748046875,0.2091064453125
1663860960398169300,3.26516943359375,-0.1448516845703125,-3.2033843994140625,0.336944580078125
1663860960408057000,3.27505712890625,-1.1856231689453125,-1.178314208984375,0.37103271484375
1663860960417944800,3.28494482421875,-2.1209259033203125,1.1695404052734375,-0.05401611328125
1663860960427832600,3.29483251953125,-0.5581817626953125,0.1170501708984375,0.243194580078125
1663860960437689600,3.304689697265625,0.9033660888671875,-1.5575408935546875,0.22296142578125
1663860960447547000,3.314546875,0.8245391845703125,-1.9804534912109375,0.0013885498046875
1663860960457434600,3.3244345703125,0.38671875,-1.371124267578125,0.017364501953125
1663860960467322000,3.334322021484375,0.1843109130859375,-0.527435302734375,-0.088104248046875
1663860960477179400,3.344179443359375,-0.0553741455078125,-0.0182342529296875,-0.2777099609375
1663860960487067100,3.354067138671875,-0.218353271484375,0.2555389404296875,-0.4087371826171875
1663860960496955000,3.363954833984375,-0.025543212890625,0.1639251708984375,-0.471588134765625
1663860960506842400,3.37384228515625,0.2737884521484375,-0.130096435546875,-0.55255126953125
1663860960516730000,3.383730224609375,0.477264404296875,-0.3314208984375,-0.6281890869140625
1663860960526617900,3.393617919921875,0.5742034912109375,-0.3026580810546875,-0.7506866455078125
1663860960536505600,3.403505615234375,0.5869903564453125,-0.081085205078125,-0.9584197998046875
1663860960546362600,3.413362548828125,0.5529022216796875,0.1383514404296875,-1.1320648193359375
1663860960556250400,3.42325048828125,0.500701904296875,0.297088623046875,-1.202362060546875
1663860960566138000,3.43313818359375,0.41973876953125,0.38336181640625,-1.1512298583984375
1663860960576025900,3.44302587890625,0.317474365234375,0.3556671142578125,-0.9871826171875
1663860960585913600,3.45291357421875,0.28338623046875,0.337554931640625,-0.815673828125
1663860960595770600,3.4627705078125,0.3355865478515625,0.1980133056640625,-0.621795654296875
1663860960605658400,3.472658447265625,0.34942626953125,-0.0352783203125,-0.372528076171875
1663860960615546000,3.482546142578125,0.268463134765625,-0.0235595703125,-0.1573333740234375
1663860960625433900,3.492433837890625,0.2407684326171875,0.261932373046875,-0.029510498046875
1663860960635321600,3.502321533203125,0.258880615234375,0.5996246337890625,-0.0518798828125
1663860960645209000,3.512208984375,0.227996826171875,0.661407470703125,-0.08489990234375
1663860960655096800,3.522096923828125,0.2173309326171875,0.433441162109375,0.050384521484375
1663860960664984600,3.531984619140625,0.2535552978515625,0.3886871337890625,0.1622314453125
1663860960674872300,3.541872314453125,0.2503662109375,0.476043701171875,0.1270904541015625
1663860960684729300,3.551729248046875,0.1736602783203125,0.2747039794921875,0.2400054931640625
1663860960694617000,3.5616171875,0.102294921875,0.0179901123046875,0.4306793212890625
1663860960704504800,3.5715048828125,0.101226806640625,-0.3250274658203125,0.621368408203125
1663860960714392600,3.581392578125,0.068206787109375,-0.5082550048828125,0.734283447265625
1663860960724249600,3.59124951171875,-0.0106353759765625,-0.2589874267578125,0.584075927734375
1663860960734137300,3.601137451171875,0.0980224609375,0.0595245361328125,0.235748291015625
1663860960744025000,3.611025146484375,0.327056884765625,0.1958770751953125,-0.12005615234375
1663860960753912800,3.620912841796875,0.4921722412109375,0.191619873046875,-0.3512115478515625
1663860960763800600,3.630800537109375,0.6200103759765625,0.25872802734375,-0.4417724609375
1663860960773688000,3.64068798828125,0.6775360107421875,0.4014739990234375,-0.4769134521484375
1663860960783575800,3.650575927734375,0.6072235107421875,0.6560821533203125,-0.5578765869140625
1663860960793463600,3.660463623046875,0.5283966064453125,0.908538818359375,-0.6622772216796875
1663860960803351300,3.670351318359375,0.5283966064453125,1.023590087890625,-0.7389678955078125
1663860960813239000,3.680239013671875,0.533721923828125,0.9841766357421875,-0.7517547607421875
1663860960823096000,3.690095947265625,0.5188140869140625,0.898956298828125,-0.68145751953125
1663860960832983800,3.69998388671875,0.577392578125,0.79669189453125,-0.5365753173828125
1663860960842871600,3.70987158203125,0.6871185302734375,0.67205810546875,-0.3405609130859375
1663860960852759300,3.71975927734375,0.7840576171875,0.5751190185546875,-0.152008056640625
1663860960862616300,3.7296162109375,0.829864501953125,0.4632568359375,0.0312042236328125
1663860960872473600,3.7394736328125,0.8128204345703125,0.2800445556640625,0.257049560546875
1663860960882391800,3.749391845703125,0.8256072998046875,0.11492919921875,0.543609619140625
1663860960892249000,3.7592490234375,0.8660888671875,0.00732421875,0.828033447265625
1663860960902167300,3.769167236328125,0.8660888671875,-0.15032958984375,1.02935791015625
1663860960912054800,3.7790546875,0.816009521484375,-0.4390106201171875,1.1188507080078125
1663860960921942500,3.788942626953125,0.7542266845703125,-0.755401611328125,1.0804901123046875
1663860960931830300,3.798830322265625,0.6753997802734375,-1.0089263916015625,0.915374755859375
1663860960941718000,3.808718017578125,0.6178741455078125,-1.164459228515625,0.6288299560546875
1663860960951605800,3.818605712890625,0.644500732421875,-1.3306427001953125,0.2485198974609375
1663860960961462800,3.828462890625,0.76275634765625,-1.5042877197265625,-0.13177490234375
1663860960971350500,3.8383505859375,0.91827392578125,-1.380706787109375,-0.3309783935546875
1663860960981238300,3.84823828125,0.99072265625,-0.638214111328125,-0.1946258544921875
1663860960991095300,3.85809521484375,1.013092041015625,0.5378265380859375,0.2517242431640625
1663860961000983000,3.867983154296875,1.048248291015625,1.559417724609375,0.8003387451171875
1663860961010870800,3.877870849609375,1.08233642578125,1.832122802734375,1.2626495361328125
1663860961020758500,3.887758544921875,1.139862060546875,1.1567535400390625,1.5406951904296875
1663860961030646300,3.897646240234375,1.285797119140625,-0.0278167724609375,1.5481414794921875
1663860961040534000,3.907533935546875,1.51483154296875,-1.143157958984375,1.352142333984375
1663860961050421500,3.91742138671875,1.6373291015625,-1.6981658935546875,1.143341064453125
1663860961060309200,3.927309326171875,1.6234893798828125,-1.4116058349609375,1.0389556884765625
1663860961070197000,3.937197021484375,1.6096343994140625,-0.69573974609375,1.044281005859375
1663860961080084700,3.947084716796875,1.5894012451171875,-0.20465087890625,1.1156463623046875
1663860961089941800,3.956941650390625,1.53399658203125,-0.1780242919921875,1.2072601318359375
1663860961099860000,3.96685986328125,1.4988555908203125,-0.2483367919921875,1.227508544921875
1663860961109747700,3.976747802734375,1.49139404296875,-0.083221435546875,1.12310791015625
1663860961119635500,3.986635498046875,1.513763427734375,0.0808258056640625,0.97503662109375
1663860961129523200,3.996523193359375,1.570220947265625,-0.026763916015625,0.8993988037109375
1663860961139380200,4.006380126953125,1.6554412841796875,-0.20465087890625,0.9441375732421875
1663860961149237500,4.016237548828125,1.7609100341796875,-0.2153167724609375,1.0464019775390625
1663860961159125200,4.026125244140625,1.8727569580078125,-0.1535186767578125,1.0858306884765625
1663860961169043500,4.03604345703125,2.01336669921875,-0.0885467529296875,1.022979736328125
1663860961178931200,4.04593115234375,2.2040557861328125,-0.092803955078125,0.9111175537109375
1663860961188818700,4.055818603515625,2.3606414794921875,-0.1524658203125,0.779022216796875
1663860961198706400,4.06570654296875,2.435211181640625,-0.059783935546875,0.63201904296875
1663860961208594200,4.07559423828125,2.45758056640625,0.144744873046875,0.4583892822265625
1663860961218482000,4.08548193359375,2.4298858642578125,0.2555389404296875,0.299652099609375
1663860961228369700,4.09536962890625,2.3777008056640625,0.250213623046875,0.1920623779296875
1663860961238257200,4.105257080078125,2.345733642578125,0.1500701904296875,0.073822021484375
1663860961248145000,4.115144775390625,2.3073883056640625,0.0019989013671875,-0.0753173828125
1663860961258032600,4.12503271484375,2.2818145751953125,-0.059783935546875,-0.2031402587890625
1663860961267901700,4.134901611328125,2.263702392578125,-0.036346435546875,-0.339508056640625
1663860961277759000,4.144759033203125,2.2509307861328125,0.029693603515625,-0.5014190673828125
1663860961287646500,4.154646484375,2.2413330078125,0.0946807861328125,-0.635650634765625
1663860961297534200,4.1645341796875,2.20086669921875,0.0808258056640625,-0.7762603759765625
1663860961307422000,4.174421875,2.2019195556640625,0.08721923828125,-0.9456329345703125
1663860961317279200,4.184279296875,2.2157745361328125,0.18310546875,-1.09051513671875
1663860961327166700,4.194166748046875,2.221099853515625,0.2683258056640625,-1.223663330078125
1663860961337024000,4.20402392578125,2.2168426513671875,0.386566162109375,-1.3674774169921875
1663860961346942200,4.213942138671875,2.1934051513671875,0.4984130859375,-1.4729461669921875
1663860961356830000,4.223829833984375,2.13055419921875,0.454742431640625,-1.535797119140625
1663860961366717700,4.2337177734375,2.014434814453125,0.3663177490234375,-1.6029052734375
1663860961376605200,4.243605224609375,1.9217529296875,0.3258514404296875,-1.683868408203125
1663860961386432000,4.253431884765625,1.8067169189453125,0.337554931640625,-1.8159637451171875
1663860961396319700,4.26331982421875,1.6245574951171875,0.396148681640625,-1.9842681884765625
1663860961406207200,4.273207275390625,1.4306793212890625,0.3130645751953125,-2.125946044921875
1663860961416095000,4.283094970703125,1.286865234375,0.043548583984375,-2.1653594970703125
1663860961425982700,4.292982666015625,1.2016448974609375,-0.1577911376953125,-2.2133026123046875
1663860961435870500,4.302870361328125,1.1334686279296875,-0.1918792724609375,-2.320892333984375
1663860961445727700,4.312727783203125,1.0312042236328125,-0.149261474609375,-2.379486083984375
1663860961455615200,4.322615234375,0.909759521484375,-0.1194305419921875,-2.4188995361328125
1663860961465503000,4.3325029296875,0.832000732421875,-0.1460723876953125,-2.5147705078125
1663860961475390700,4.342390625,0.785125732421875,-0.163116455078125,-2.6234283447265625
1663860961485309000,4.352308837890625,0.6732635498046875,-0.0320892333984375,-2.744873046875
1663860961495196700,4.36219677734375,0.475128173828125,0.11279296875,-2.8726959228515625
1663860961505053700,4.3720537109375,0.256744384765625,0.1852264404296875,-3.017578125
1663860961514941400,4.38194140625,0.0394439697265625,0.1617889404296875,-3.1454010009765625
1663860961524829200,4.3918291015625,-0.1565704345703125,0.0467376708984375,-3.243408203125
1663860961534717000,4.401717041015625,-0.3824005126953125,-0.024627685546875,-3.394683837890625
1663860961544604700,4.411604736328125,-0.6338043212890625,-0.08001708984375,-3.5704498291015625
1663860961554492200,4.4214921875,-0.8660430908203125,-0.083221435546875,-3.7398223876953125
1663860961564349400,4.431349365234375,-1.08441162109375,-0.06085205078125,-3.8655242919921875
1663860961574237200,4.4412373046875,-1.2953338623046875,-0.071502685546875,-3.91986083984375
1663860961584125000,4.451125,-1.4796295166015625,-0.0523223876953125,-3.917724609375
1663860961594012400,4.461012451171875,-1.644744873046875,-0.0118408203125,-3.8165283203125
1663860961603900200,4.470900146484375,-1.802398681640625,-0.1119842529296875,-3.65673828125
1663860961613757400,4.48075732421875,-1.9483489990234375,-0.266448974609375,-3.630096435546875
1663860961623645200,4.490645263671875,-2.0634002685546875,-0.35699462890625,-3.723846435546875
1663860961633532700,4.50053271484375,-2.157135009765625,-0.3473968505859375,-3.7739105224609375
1663860961643420400,4.51042041015625,-2.2317047119140625,-0.1567230224609375,-3.737701416015625
1663860961653338600,4.520338623046875,-2.283905029296875,-0.01397705078125,-3.610931396484375
1663860961663196000,4.53019580078125,-2.3009490966796875,-0.1002655029296875,-3.495880126953125
1663860961673083600,4.540083740234375,-2.2657928466796875,-0.2696380615234375,-3.4905548095703125
1663860961682971400,4.549971435546875,-2.2008209228515625,-0.5380859375,-3.531036376953125
1663860961692828400,4.559828369140625,-2.1518096923828125,-0.7127838134765625,-3.618377685546875
1663860961702716200,4.569716064453125,-2.100677490234375,-0.562591552734375,-3.733428955078125
1663860961712634400,4.57963427734375,-2.0367584228515625,-0.3143768310546875,-3.7419586181640625
1663860961722522000,4.589522216796875,-1.9611358642578125,-0.22808837890625,-3.6759033203125
1663860961732409900,4.599409912109375,-1.8428802490234375,-0.3069305419921875,-3.6631317138671875
1663860961742297300,4.60929736328125,-1.677764892578125,-0.44647216796875,-3.6950836181640625
1663860961752185000,4.61918505859375,-1.47216796875,-0.5146484375,-3.712127685546875
1663860961762072800,4.62907275390625,-1.2378082275390625,-0.60626220703125,-3.70147705078125
1663860961771960600,4.638960693359375,-0.982147216796875,-0.7213134765625,-3.7078704833984375
1663860961781848300,4.648848388671875,-0.730743408203125,-0.7617950439453125,-3.7281036376953125
1663860961791705300,4.658705322265625,-0.540069580078125,-0.81292724609375,-3.6812286376953125
1663860961801562600,4.668562744140625,-0.427154541015625,-0.665924072265625,-3.528900146484375
1663860961811450400,4.678450439453125,-0.3504486083984375,-0.5444793701171875,-3.4266357421875
1663860961821337900,4.688337890625,-0.2684173583984375,-0.4763031005859375,-3.345672607421875
1663860961831195100,4.698195068359375,-0.12994384765625,-0.4507293701171875,-3.1922760009765625
1663860961841113300,4.70811328125,0.02984619140625,-0.4411468505859375,-2.97283935546875
1663860961851001000,4.7180009765625,0.1214599609375,-0.250457763671875,-2.6713714599609375
1663860961860888800,4.727888916015625,0.1172027587890625,-0.00439453125,-2.2015838623046875
1663860961870745900,4.737745849609375,0.030914306640625,0.0360870361328125,-1.728607177734375
1663860961880633600,4.747633544921875,-0.073486328125,-0.0896148681640625,-1.510223388671875
1663860961890521300,4.757521240234375,-0.1022491455078125,-0.21636962890625,-1.5091552734375
1663860961900378600,4.767378662109375,-0.011688232421875,-0.34527587890625,-1.554962158203125
1663860961910296800,4.777296875,0.0351715087890625,-0.490142822265625,-1.502777099609375
1663860961920184300,4.787184326171875,-0.082000732421875,-0.6360931396484375,-1.3483123779296875
1663860961930041600,4.79704150390625,-0.312103271484375,-0.718109130859375,-1.145904541015625
1663860961939959800,4.806959716796875,-0.5794830322265625,-0.6808319091796875,-0.9243316650390625
1663860961949847600,4.81684765625,-0.8180999755859375,-0.6137237548828125,-0.6846466064453125
1663860961959735300,4.8267353515625,-0.958709716796875,-0.5966796875,-0.520599365234375
1663860961969622800,4.836622802734375,-1.01837158203125,-0.5263671875,-0.4801177978515625
1663860961979510500,4.846510498046875,-1.10040283203125,-0.3037261962890625,-0.42578125
1663860961989398300,4.856398193359375,-1.245269775390625,-0.0001220703125,-0.2606658935546875
1663860961999286000,4.8662861328125,-1.39654541015625,0.2225189208984375,-0.04974365234375
1663860962009143000,4.87614306640625,-1.5147857666015625,0.306671142578125,0.0897979736328125
1663860962019030800,4.88603076171875,-1.609588623046875,0.283233642578125,0.144134521484375
1663860962028918500,4.89591845703125,-1.7022705078125,0.1522064208984375,0.10577392578125
1663860962038806300,4.90580615234375,-1.756591796875,-0.069366455078125,-0.02630615234375
1663860962048663300,4.915663330078125,-1.769378662109375,-0.18548583984375,-0.187164306640625
1663860962058551000,4.925551025390625,-1.77044677734375,-0.2131805419921875,-0.3181915283203125
1663860962068408300,4.935408203125,-1.7651214599609375,-0.278167724609375,-0.3970184326171875
1663860962078326500,4.945326416015625,-1.724639892578125,-0.28668212890625,-0.4566802978515625
1663860962088183600,4.95518359375,-1.58721923828125,-0.2557830810546875,-0.4556121826171875
1663860962098040800,4.965040771484375,-1.3890838623046875,-0.4560546875,-0.3288421630859375
1663860962107959000,4.974958984375,-1.1611175537109375,-0.70001220703125,-0.1371002197265625
1663860962117846800,4.9848466796875,-0.9331512451171875,-0.7468719482421875,0.1260223388671875
1663860962127734500,4.994734619140625,-0.7169036865234375,-0.4794921875,0.2645111083984375
1663860962137622300,5.004622314453125,-0.3866729736328125,0.03076171875,0.040802001953125
1663860962147509800,5.014509765625,-0.04791259765625,0.13623046875,-0.2393646240234375
1663860962157397500,5.0243974609375,0.1512908935546875,-0.207855224609375,-0.4609375
1663860962167285200,5.03428515625,0.225860595703125,-0.433685302734375,-0.678253173828125
1663860962177173000,5.044173095703125,0.1970977783203125,-0.35272216796875,-0.815673828125
1663860962187060700,5.054060791015625,0.0831146240234375,-0.231292724609375,-0.835906982421875
1663860962196948200,5.0639482421875,-0.0457763671875,-0.170562744140625,-0.82525634765625
1663860962206836000,5.0738359375,-0.1352691650390625,-0.1354217529296875,-0.7443084716796875
1663860962216723700,5.0837236328125,-0.2034454345703125,-0.15032958984375,-0.5951690673828125
1663860962226611500,5.093611572265625,-0.2386016845703125,-0.1524658203125,-0.49609375
1663860962236468500,5.103468505859375,-0.24285888671875,-0.102386474609375,-0.4609375
1663860962246325800,5.11332568359375,-0.2449951171875,-0.0533905029296875,-0.46307373046875
1663860962256213500,5.123213623046875,-0.24072265625,0.0605926513671875,-0.5248565673828125
1663860962266101200,5.133101318359375,-0.26416015625,0.1607208251953125,-0.5908966064453125
1663860962275988700,5.14298876953125,-0.3184967041015625,0.168182373046875,-0.6143341064453125
1663860962285876500,5.15287646484375,-0.36749267578125,0.102142333984375,-0.612213134765625
1663860962295733800,5.162733642578125,-0.4069061279296875,0.01904296875,-0.5738525390625
1663860962305621500,5.17262158203125,-0.43353271484375,-0.0438079833984375,-0.49822998046875
1663860962315509000,5.182509033203125,-0.4527130126953125,-0.10345458984375,-0.4087371826171875
1663860962325396700,5.192396728515625,-0.4665679931640625,-0.124755859375,-0.3437652587890625
1663860962335284500,5.202284423828125,-0.4708251953125,-0.102386474609375,-0.327789306640625
1663860962345172200,5.212172119140625,-0.4559173583984375,-0.071502685546875,-0.3448333740234375
1663860962355029500,5.222029541015625,-0.4303436279296875,-0.078948974609375,-0.370391845703125
1663860962364917000,5.2319169921875,-0.4101104736328125,-0.1077117919921875,-0.4087371826171875
1663860962374804700,5.2418046875,-0.4047698974609375,-0.116241455078125,-0.4577484130859375
1663860962384692500,5.2516923828125,-0.3962554931640625,-0.071502685546875,-0.5078125
1663860962394580200,5.261580322265625,-0.378143310546875,-0.0001220703125,-0.5610809326171875
1663860962404468000,5.271468017578125,-0.345123291015625,0.0243682861328125,-0.6260528564453125
1663860962414325000,5.281324951171875,-0.3035736083984375,0.00732421875,-0.6590728759765625
1663860962424212700,5.291212646484375,-0.300384521484375,-0.0235595703125,-0.5738525390625
1663860962434100500,5.3011005859375,-0.3525848388671875,-0.08001708984375,-0.33843994140625
1663860962443988200,5.31098828125,-0.4527130126953125,-0.1077117919921875,-0.0252532958984375
1663860962453875700,5.320875732421875,-0.563507080078125,-0.04486083984375,0.219757080078125
1663860962463763500,5.330763427734375,-0.6487274169921875,-0.034210205078125,0.37103271484375
1663860962473651200,5.340651123046875,-0.643402099609375,-0.026763916015625,0.4647674560546875
1663860962483508500,5.350508544921875,-0.5699005126953125,0.07550048828125,0.5521240234375
1663860962493396000,5.36039599609375,-0.481475830078125,0.1500701904296875,0.630950927734375
1663860962503283700,5.37028369140625,-0.36962890625,0.10107421875,0.5915374755859375
1663860962513171500,5.38017138671875,-0.263092041015625,0.0840301513671875,0.427490234375
1663860962523028700,5.39002880859375,-0.27374267578125,0.1862945556640625,0.2591705322265625
1663860962532916200,5.399916259765625,-0.36962890625,0.34075927734375,0.2048492431640625
1663860962542804000,5.409803955078125,-0.46868896484375,0.4696502685546875,0.254913330078125
1663860962552691700,5.419691650390625,-0.5091705322265625,0.419586181640625,0.2943267822265625
1663860962562579500,5.429579345703125,-0.493194580078125,0.1852264404296875,0.221893310546875
1663860962572467200,5.43946728515625,-0.4761505126953125,-0.0075836181640625,0.0322723388671875
1663860962582355000,5.44935498046875,-0.4825439453125,-0.0001220703125,-0.1935577392578125
1663860962592212000,5.4592119140625,-0.495330810546875,0.1277008056640625,-0.35015869140625
1663860962602130200,5.469130126953125,-0.5059814453125,0.2491455078125,-0.3863677978515625
1663860962612018000,5.479017822265625,-0.49212646484375,0.376983642578125,-0.346954345703125
1663860962621905700,5.48890576171875,-0.3632354736328125,0.1511383056640625,-0.316070556640625
1663860962631793400,5.49879345703125,-0.23114013671875,-0.0438079833984375,-0.1477508544921875
1663860962641650400,5.508650390625,-0.2002410888671875,0.0403594970703125,0.1047210693359375
1663860962651538200,5.5185380859375,-0.2471160888671875,0.1735076904296875,0.2836761474609375
1663860962661395500,5.5283955078125,-0.29931640625,0.19268798828125,0.3742218017578125
1663860962671313700,5.538313720703125,-0.323822021484375,0.1404876708984375,0.459442138671875
1663860962681201200,5.548201171875,-0.356842041015625,0.18096923828125,0.5904693603515625
1663860962691089000,5.5580888671875,-0.415435791015625,0.4142608642578125,0.76837158203125
1663860962700976600,5.5679765625,-0.458038330078125,0.588958740234375,0.905792236328125
1663860962710864400,5.577864501953125,-0.547515869140625,0.6560821533203125,0.9569244384765625
1663860962720752000,5.587752197265625,-0.6614990234375,0.774322509765625,0.95159912109375
1663860962730639600,5.5976396484375,-0.7136993408203125,1.1428985595703125,0.9558563232421875
1663860962740527400,5.60752734375,-0.674285888671875,1.653167724609375,1.0059356689453125
1663860962750415000,5.6174150390625,-0.61676025390625,2.0015106201171875,1.1273651123046875
1663860962760302800,5.627302734375,-0.6125030517578125,2.2294769287109375,1.246673583984375
1663860962770190600,5.637190673828125,-0.65191650390625,2.210296630859375,1.279693603515625
1663860962780047600,5.647047607421875,-0.662567138671875,1.733062744140625,1.260528564453125
1663860962789935400,5.656935302734375,-0.56243896484375,1.2238616943359375,1.1508026123046875
1663860962799823000,5.666822998046875,-0.427154541015625,0.9234619140625,0.8748931884765625
1663860962809680400,5.676680419921875,-0.4122314453125,0.673126220703125,0.56170654296875
1663860962819537400,5.686537353515625,-0.4772186279296875,0.57086181640625,0.346527099609375
1663860962829455600,5.69645556640625,-0.561370849609375,0.490966796875,0.2559814453125
1663860962839343400,5.70634326171875,-0.627410888671875,0.3695220947265625,0.280487060546875
1663860962849231000,5.716231201171875,-0.6572418212890625,0.444091796875,0.438140869140625
1663860962859118800,5.726118896484375,-0.6593780517578125,0.611328125,0.5702362060546875
1663860962868975900,5.735975830078125,-0.7179718017578125,0.4632568359375,0.6139068603515625
1663860962878863600,5.745863525390625,-0.8319549560546875,0.177764892578125,0.7843475341796875
1663860962888721000,5.755720947265625,-0.8916015625,0.109588623046875,1.019775390625
1663860962898639000,5.76563916015625,-0.8681640625,0.04248046875,0.97503662109375
1663860962908526600,5.775526611328125,-0.768035888671875,-0.137542724609375,0.7854156494140625
1663860962918414300,5.785414306640625,-0.6370086669921875,-0.1769561767578125,0.8227081298828125
1663860962928302000,5.795302001953125,-0.5432586669921875,-0.09173583984375,1.0059356689453125
1663860962938189800,5.80518994140625,-0.491058349609375,-0.106658935546875,1.09967041015625
1663860962948077600,5.81507763671875,-0.4654998779296875,-0.253662109375,1.0581207275390625
1663860962957965000,5.824965087890625,-0.483612060546875,-0.4517974853515625,0.971832275390625
1663860962967852800,5.834852783203125,-0.5208892822265625,-0.50079345703125,0.9697113037109375
1663860962977740500,5.844740478515625,-0.5762786865234375,-0.402801513671875,1.054931640625
1663860962987597800,5.854597900390625,-0.6039886474609375,-0.38043212890625,1.075164794921875
1663860962997485300,5.8644853515625,-0.575225830078125,-0.4794921875,0.9771728515625
1663860963007373000,5.874373046875,-0.5411376953125,-0.4315643310546875,0.85784912109375
1663860963017260800,5.8842607421875,-0.5549774169921875,-0.1460723876953125,0.7523956298828125
1663860963027148500,5.8941484375,-0.583740234375,0.0627288818359375,0.6458740234375
1663860963037036300,5.904036376953125,-0.594390869140625,0.1266326904296875,0.5989990234375
1663860963046924000,5.913924072265625,-0.607177734375,0.2406158447265625,0.6021881103515625
1663860963056811500,5.9238115234375,-0.607177734375,0.444091796875,0.5926055908203125
1663860963066699300,5.93369921875,-0.5571136474609375,0.6198577880859375,0.555328369140625
1663860963076556500,5.943556640625,-0.4644317626953125,0.693359375,0.5052490234375
1663860963086413600,5.95341357421875,-0.3600311279296875,0.6635284423828125,0.471160888671875
1663860963096301300,5.96330126953125,-0.2620391845703125,0.6869659423828125,0.4775543212890625
1663860963106158600,5.97315869140625,-0.15338134765625,0.875518798828125,0.539337158203125
1663860963116076800,5.983076904296875,-0.048980712890625,1.0630035400390625,0.6341552734375
1663860963125964500,5.992964599609375,0.040496826171875,1.0970916748046875,0.7044525146484375
1663860963135852000,6.00285205078125,0.114013671875,0.99163818359375,0.734283447265625
1663860963145739800,6.01273974609375,0.15875244140625,0.9042816162109375,0.7353515625
1663860963155627500,6.02262744140625,0.1523590087890625,0.9500885009765625,0.74493408203125
1663860963165484800,6.03248486328125,0.0799102783203125,1.0417022705078125,0.783294677734375
1663860963175372300,6.042372314453125,-0.0319366455078125,1.070465087890625,0.8333587646484375
1663860963185229600,6.0522294921875,-0.126739501953125,0.9468994140625,0.8461456298828125
1663860963195147800,6.062147705078125,-0.16510009765625,0.7817840576171875,0.8067169189453125
1663860963205035500,6.072035400390625,-0.159759521484375,0.809478759765625,0.755584716796875
1663860963214923300,6.08192333984375,-0.1778717041015625,0.9586181640625,0.70977783203125
1663860963224810800,6.091810791015625,-0.2162322998046875,0.9735260009765625,0.6607818603515625
1663860963234668000,6.10166796875,-0.2098388671875,0.7764434814453125,0.6107177734375
1663860963244555800,6.1115556640625,-0.1682891845703125,0.5740509033203125,0.5254974365234375
1663860963254443500,6.121443603515625,-0.1427154541015625,0.5825653076171875,0.4115142822265625
1663860963264331300,6.131331298828125,-0.1203460693359375,0.7338409423828125,0.3188323974609375
1663860963274188300,6.141188232421875,-0.0873260498046875,0.842498779296875,0.2517242431640625
1663860963284076000,6.151075927734375,-0.046844482421875,0.8606109619140625,0.1728973388671875
1663860963293963800,6.1609638671875,0.0021514892578125,0.840362548828125,0.083404541015625
1663860963303820800,6.17082080078125,0.04156494140625,0.8233184814453125,0.0184326171875
1663860963313708500,6.18070849609375,0.0735321044921875,0.795623779296875,-0.0326995849609375
1663860963323626800,6.190626708984375,0.102294921875,0.73809814453125,-0.0753173828125
1663860963333514500,6.200514404296875,0.110809326171875,0.6411590576171875,-0.1008758544921875
1663860963343402200,6.21040234375,0.1161346435546875,0.5175933837890625,-0.1040802001953125
1663860963353259300,6.22025927734375,0.145965576171875,0.4004058837890625,-0.0934295654296875
1663860963363116500,6.230116455078125,0.178985595703125,0.3013458251953125,-0.09661865234375
1663860963373004300,6.24000439453125,0.1747283935546875,0.281097412109375,-0.121124267578125
1663860963382922500,6.249922607421875,0.13531494140625,0.376983642578125,-0.118988037109375
1663860963392810200,6.259810302734375,0.066070556640625,0.4281158447265625,-0.0817108154296875
1663860963402697700,6.26969775390625,-0.0106353759765625,0.308807373046875,-0.0753173828125
1663860963412585500,6.27958544921875,-0.0681610107421875,0.0499420166015625,-0.1125946044921875
1663860963422473200,6.28947314453125,-0.1001129150390625,-0.1758880615234375,-0.1253814697265625
1663860963432361000,6.29936083984375,-0.115020751953125,-0.194000244140625,-0.08489990234375
1663860963442218000,6.309218017578125,-0.1086273193359375,-0.07257080078125,-0.0326995849609375
1663860963452105700,6.319105712890625,-0.1001129150390625,0.0392913818359375,0.0003204345703125
1663860963461963000,6.328962890625,-0.093719482421875,0.06591796875,0.019500732421875
1663860963471881200,6.338881103515625,-0.070281982421875,0.00946044921875,0.050384521484375
1663860963481738200,6.34873828125,-0.0425872802734375,0.029693603515625,0.14093017578125
1663860963491626000,6.3586259765625,-0.03619384765625,0.144744873046875,0.245330810546875
1663860963501513700,6.368513671875,-0.0436553955078125,0.1298370361328125,0.2602386474609375
1663860963511371000,6.37837109375,-0.0553741455078125,-0.034210205078125,0.17822265625
1663860963521289200,6.388289306640625,-0.0649566650390625,-0.09173583984375,0.1249542236328125
1663860963531177000,6.398177001953125,-0.107574462890625,0.078704833984375,0.2368011474609375
1663860963541064400,6.408064453125,-0.152313232421875,0.3141326904296875,0.3667755126953125
1663860963550952200,6.4179521484375,-0.199188232421875,0.522918701171875,0.357177734375
1663860963560840000,6.42783984375,-0.220489501953125,0.5879058837890625,0.2506561279296875
1663860963570697200,6.437697265625,-0.2034454345703125,0.365264892578125,0.1110992431640625
1663860963580584700,6.447584716796875,-0.199188232421875,-0.07257080078125,-0.019927978515625
1663860963590472400,6.457472412109375,-0.267364501953125,-0.501861572265625,-0.0817108154296875
1663860963600360200,6.467360107421875,-0.39093017578125,-0.7564697265625,-0.0337677001953125
1663860963610248000,6.477248046875,-0.4985198974609375,-0.89068603515625,0.0791473388671875
1663860963620135700,6.4871357421875,-0.583740234375,-0.9876251220703125,0.2272186279296875
1663860963630023200,6.497023193359375,-0.6721649169921875,-1.0121307373046875,0.415771484375
1663860963639880400,6.50688037109375,-0.746734619140625,-0.9418182373046875,0.6128387451171875
1663860963649737700,6.51673779296875,-0.7733612060546875,-0.8981475830078125,0.746002197265625
1663860963659625200,6.526625244140625,-0.7392730712890625,-0.8949432373046875,0.85784912109375
1663860963669543400,6.53654345703125,-0.60504150390625,-0.513580322265625,0.972900390625
1663860963679431200,6.54643115234375,-0.458038330078125,0.123443603515625,1.0400238037109375
1663860963689319000,6.55631884765625,-0.347259521484375,0.490966796875,0.973968505859375
1663860963699206700,6.56620654296875,-0.1682891845703125,0.525054931640625,0.7758331298828125
1663860963709063700,6.576063720703125,0.052215576171875,0.1426239013671875,0.5009918212890625
1663860963718951400,6.585951416015625,0.1832427978515625,-0.435821533203125,0.2048492431640625
1663860963728808700,6.59580859375,0.1949615478515625,-0.4326171875,0.2442626953125
1663860963738696400,6.605696533203125,0.06500244140625,-0.012908935546875,0.609649658203125
1663860963748584200,6.615584228515625,-0.0574951171875,0.398284912109375,0.8599853515625
1663860963758502400,6.62550244140625,-0.0180816650390625,0.5570068359375,0.8322906494140625
1663860963768390000,6.635389892578125,0.08843994140625,0.297088623046875,0.600067138671875
1663860963778247200,6.6452470703125,0.0820465087890625,-0.2121124267578125,0.3401336669921875
1663860963788135000,6.655135009765625,0.009613037109375,-0.76605224609375,0.2325439453125
1663860963798022700,6.665022705078125,-0.061767578125,-1.1474151611328125,0.2527923583984375
1663860963807910100,6.67491015625,-0.0905303955078125,-1.12823486328125,0.3049774169921875
1663860963817767400,6.684767333984375,-0.079864501953125,-0.7681884765625,0.3497314453125
1663860963827655200,6.6946552734375,-0.0745391845703125,-0.4283599853515625,0.40191650390625
1663860963837543000,6.70454296875,-0.0745391845703125,-0.285614013671875,0.447723388671875
1663860963847430400,6.714430419921875,-0.051116943359375,-0.2451324462890625,0.4221649169921875
1663860963857287700,6.72428759765625,-0.003173828125,-0.2824249267578125,0.3071136474609375
1663860963867175400,6.734175537109375,0.0383758544921875,-0.3484649658203125,0.1483917236328125
1663860963877093600,6.74409375,0.0351715087890625,-0.2941436767578125,0.0216217041015625
1663860963886981400,6.7539814453125,-0.025543212890625,-0.2376861572265625,-0.0113983154296875
1663860963896868900,6.763868896484375,-0.1096954345703125,-0.311187744140625,0.007781982421875
1663860963906756600,6.773756591796875,-0.183197021484375,-0.421966552734375,0.0099029541015625
1663860963916644400,6.783644287109375,-0.2279510498046875,-0.4858856201171875,0.0013885498046875
1663860963926532000,6.793531982421875,-0.239654541015625,-0.50506591796875,-0.0092620849609375
1663860963936419800,6.803419921875,-0.2162322998046875,-0.515716552734375,-0.0231170654296875
1663860963946307300,6.813307373046875,-0.1682891845703125,-0.558319091796875,-0.0326995849609375
1663860963956195000,6.823195068359375,-0.10650634765625,-0.6233062744140625,-0.0444183349609375
1663860963966082800,6.833082763671875,-0.061767578125,-0.6978759765625,-0.060394287109375
1663860963975940000,6.842940185546875,-0.0404510498046875,-0.755401611328125,-0.0678558349609375
1663860963985827800,6.852827880859375,-0.038330078125,-0.6819000244140625,-0.0912933349609375
1663860963995684900,6.862684814453125,-0.039398193359375,-0.45819091796875,-0.15521240234375
1663860964005572600,6.872572509765625,-0.0319366455078125,-0.250457763671875,-0.243621826171875
1663860964015460400,6.88246044921875,0.0032196044921875,-0.125823974609375,-0.34588623046875
1663860964025317400,6.8923173828125,0.0703277587890625,-0.0416717529296875,-0.407684326171875
1663860964035205000,6.902205078125,0.132110595703125,0.008392333984375,-0.3661346435546875
1663860964045092900,6.9120927734375,0.167266845703125,0.06805419921875,-0.2425689697265625
1663860964054980600,6.921980712890625,0.192840576171875,0.1287689208984375,-0.1360321044921875
1663860964064868400,6.931868408203125,0.22479248046875,0.0403594970703125,-0.095550537109375
1663860964074755800,6.941755859375,0.2066802978515625,-0.276031494140625,-0.132843017578125
1663860964084613000,6.951613037109375,0.13531494140625,-0.586029052734375,-0.2659912109375
1663860964094500900,6.9615009765625,0.0831146240234375,-0.5316925048828125,-0.4225921630859375
1663860964104388600,6.971388671875,0.0394439697265625,-0.2600555419921875,-0.49395751953125
1663860964114276000,6.981276123046875,-0.038330078125,-0.1407470703125,-0.47265625
1663860964124163800,6.991163818359375,-0.0862579345703125,-0.22064208984375,-0.42791748046875
1663860964134051600,7.001051513671875,-0.046844482421875,-0.35699462890625,-0.4098052978515625
1663860964143908900,7.010908935546875,0.0021514892578125,-0.36444091796875,-0.395965576171875
1663860964153796400,7.02079638671875,-0.00531005859375,-0.1812286376953125,-0.35015869140625
1663860964163684000,7.03068408203125,-0.025543212890625,0.0595245361328125,-0.31500244140625
1663860964173571800,7.04057177734375,-0.013824462890625,0.217193603515625,-0.3554840087890625
1663860964183459600,7.05045947265625,0.0128021240234375,0.182037353515625,-0.405548095703125
1663860964193347300,7.060347412109375,0.052215576171875,-0.04913330078125,-0.43963623046875
1663860964203235000,7.070235107421875,0.0852508544921875,-0.160980224609375,-0.544036865234375
1663860964213122600,7.08012255859375,0.0841827392578125,-0.0768280029296875,-0.7325897216796875
1663860964222979800,7.089979736328125,0.0809783935546875,0.0147857666015625,-0.96588134765625
1663860964232867600,7.09986767578125,0.10015869140625,-0.00225830078125,-1.1608123779296875
1663860964242755300,7.10975537109375,0.157684326171875,-0.2216949462890625,-1.2641448974609375
1663860964252642800,7.119642822265625,0.2439727783203125,-0.574310302734375,-1.2779998779296875
1663860964262530600,7.129530517578125,0.303619384765625,-0.7969512939453125,-1.270538330078125
1663860964272387800,7.139387939453125,0.3132171630859375,-0.7564697265625,-1.2641448974609375
1663860964282275600,7.149275634765625,0.3121490478515625,-0.517852783203125,-1.2204742431640625
1663860964292163000,7.1591630859375,0.3121490478515625,-0.23236083984375,-1.112884521484375
1663860964302050800,7.16905078125,0.2908477783203125,-0.0736236572265625,-0.9221954345703125
1663860964311938600,7.1789384765625,0.2311859130859375,-0.069366455078125,-0.6963653564453125
1663860964321826300,7.188826416015625,0.1725921630859375,-0.0938720703125,-0.5493621826171875
1663860964331683300,7.198683349609375,0.157684326171875,-0.0853424072265625,-0.4790496826171875
1663860964341601500,7.2086015625,0.1800537109375,-0.159912109375,-0.419403076171875
1663860964351489300,7.2184892578125,0.1949615478515625,-0.3026580810546875,-0.3831787109375
1663860964361377000,7.228376953125,0.1853790283203125,-0.42303466796875,-0.407684326171875
1663860964371234300,7.238234375,0.1843109130859375,-0.506134033203125,-0.4811859130859375
1663860964381121800,7.248121826171875,0.214141845703125,-0.5561981201171875,-0.5845184326171875
1663860964391040000,7.2580400390625,0.258880615234375,-0.5572662353515625,-0.699554443359375
1663860964400927700,7.267927734375,0.317474365234375,-0.503997802734375,-0.7869110107421875
1663860964410815500,7.2778154296875,0.4016265869140625,-0.3942718505859375,-0.828460693359375
1663860964420703200,7.287703125,0.5113525390625,-0.2270355224609375,-0.83697509765625
1663860964430591000,7.297591064453125,0.6391754150390625,-0.057647705078125,-0.8327178955078125
1663860964440478700,7.307478759765625,0.7808685302734375,0.1202545166015625,-0.9115447998046875
1663860964450335700,7.317335693359375,0.942779541015625,0.2747039794921875,-1.1086273193359375
1663860964460223500,7.327223388671875,1.1270751953125,0.259796142578125,-1.3120880126953125
1663860964470111200,7.337111328125,1.2826080322265625,0.1181182861328125,-1.4857177734375
1663860964479999000,7.3469990234375,1.3646240234375,0.10321044921875,-1.68280029296875
1663860964489886500,7.356886474609375,1.3688812255859375,0.2960205078125,-1.8873291015625
1663860964499774200,7.366774169921875,1.330535888671875,0.522918701171875,-2.0077056884765625
1663860964509662000,7.376661865234375,1.2794036865234375,0.5218505859375,-1.9267425537109375
1663860964519519200,7.386519287109375,1.2250823974609375,0.445159912109375,-1.749908447265625
1663860964529376300,7.396376220703125,1.1537017822265625,0.464324951171875,-1.6561737060546875
1663860964539264000,7.406263916015625,1.0567626953125,0.3780364990234375,-1.6188812255859375
1663860964549121300,7.416121337890625,0.9502410888671875,0.0467376708984375,-1.5762786865234375
1663860964559039500,7.42603955078125,0.8554229736328125,-0.1790924072265625,-1.531524658203125
1663860964568896500,7.435896484375,0.7531585693359375,-0.2941436767578125,-1.475067138671875
1663860964578814700,7.445814697265625,0.671142578125,-0.4986724853515625,-1.431396484375
1663860964588702500,7.455702392578125,0.6295928955078125,-0.6914825439453125,-1.4399261474609375
1663860964598590200,7.465590087890625,0.62213134765625,-0.8534088134765625,-1.479339599609375
1663860964608447200,7.475447265625,0.646636962890625,-0.9673919677734375,-1.48785400390625
1663860964618335000,7.4853349609375,0.6849822998046875,-0.9524688720703125,-1.44097900390625
1663860964628222700,7.49522265625,0.724395751953125,-0.834228515625,-1.37493896484375
1663860964638110500,7.5051103515625,0.7563629150390625,-0.6786956787109375,-1.3781280517578125
1663860964647998200,7.514998291015625,0.81707763671875,-0.5444793701171875,-1.5059661865234375
1663860964657885700,7.5248857421875,0.9289398193359375,-0.4976043701171875,-1.7435150146484375
1663860964667773400,7.5347734375,1.0631561279296875,-0.5146484375,-2.03326416015625
1663860964677661200,7.5446611328125,1.1739501953125,-0.4890899658203125,-2.3017120361328125
1663860964687549000,7.554548828125,1.1984405517578125,-0.4432830810546875,-2.4913330078125
1663860964697436700,7.564436767578125,1.149444580078125,-0.3410186767578125,-2.604248046875
1663860964707324400,7.574324462890625,1.0887298583984375,-0.254730224609375,-2.6095733642578125
1663860964717212000,7.5842119140625,1.06634521484375,-0.217437744140625,-2.5382080078125
1663860964727069200,7.594069091796875,1.0503692626953125,-0.0853424072265625,-2.4306182861328125
1663860964736957000,7.60395703125,0.97900390625,0.1649932861328125,-2.297454833984375
1663860964746844700,7.6138447265625,0.8213348388671875,0.363128662109375,-2.137664794921875
1663860964756732200,7.623732177734375,0.615753173828125,0.4515380859375,-1.9597625732421875
1663860964766620000,7.633619873046875,0.475128173828125,0.4004058837890625,-1.8564300537109375
1663860964776507600,7.643507568359375,0.4016265869140625,0.2885589599609375,-1.8234100341796875
1663860964786395400,7.6533955078125,0.340911865234375,0.26300048828125,-1.76483154296875
1663860964796283100,7.663283203125,0.2524871826171875,0.337554931640625,-1.6870574951171875
1663860964806140200,7.67314013671875,0.1150665283203125,0.316253662109375,-1.6433868408203125
1663860964816028000,7.68302783203125,-0.011688232421875,0.1735076904296875,-1.5869293212890625
1663860964825915600,7.69291552734375,-0.0809326171875,0.06591796875,-1.5091552734375
1663860964835803400,7.702803466796875,-0.085205078125,0.10107421875,-1.443115234375
1663860964845691000,7.71269091796875,-0.0287322998046875,0.1969451904296875,-1.37493896484375
1663860964855578600,7.72257861328125,-0.011688232421875,0.250213623046875,-1.30462646484375
1663860964865436000,7.732435791015625,-0.0809326171875,0.27044677734375,-1.25030517578125
1663860964875323600,7.74232373046875,-0.1246185302734375,0.2118682861328125,-1.2226104736328125
1663860964885180700,7.7521806640625,-0.152313232421875,0.135162353515625,-1.2407073974609375
1663860964895068400,7.762068359375,-0.14166259765625,0.04248046875,-1.124603271484375
1663860964904956200,7.7719560546875,-0.038330078125,-0.0821533203125,-0.9104766845703125
1663860964914844000,7.781843994140625,0.0799102783203125,-0.081085205078125,-0.802886962890625
1663860964924731600,7.791731689453125,0.1491546630859375,-0.0864105224609375,-0.6175384521484375
1663860964934619100,7.801619140625,0.1843109130859375,-0.0523223876953125,-0.415130615234375
1663860964944476400,7.811476318359375,0.1832427978515625,0.00946044921875,-0.2766571044921875
1663860964954394600,7.82139453125,0.1747283935546875,-0.0182342529296875,-0.15521240234375
1663860964964252000,7.831251953125,0.1523590087890625,-0.048065185546875,-0.0146026611328125
1663860964974139400,7.841139404296875,0.08843994140625,-0.050201416015625,0.1228179931640625
1663860964984027100,7.851027099609375,-0.00531005859375,-0.0661773681640625,0.254913330078125
1663860964993915000,7.860914794921875,-0.1086273193359375,-0.0001220703125,0.4243011474609375
1663860965003802600,7.870802734375,-0.206634521484375,0.05419921875,0.5872802734375
1663860965013690400,7.8806904296875,-0.2812042236328125,0.08935546875,0.7875518798828125
1663860965023577900,7.890577880859375,-0.3610992431640625,0.217193603515625,0.9803619384765625
1663860965033465600,7.900465576171875,-0.50384521484375,0.294952392578125,1.0826263427734375
1663860965043353300,7.910353271484375,-0.700927734375,0.2065277099609375,1.2339019775390625
1663860965053210600,7.920210693359375,-0.8202362060546875,0.170318603515625,1.5108642578125
1663860965063067600,7.930067626953125,-0.83514404296875,0.2683258056640625,1.6983489990234375
1663860965072985900,7.93998583984375,-0.845794677734375,0.273651123046875,1.695159912109375
1663860965082873600,7.94987353515625,-0.871368408203125,0.1394195556640625,1.660003662109375
1663860965092731000,7.95973095703125,-0.9118499755859375,0.0467376708984375,1.683441162109375
1663860965102618400,7.969618408203125,-0.9757537841796875,0.000946044921875,1.6962127685546875
1663860965112506000,7.979506103515625,-1.07696533203125,-0.0736236572265625,1.65679931640625
1663860965122393900,7.989393798828125,-1.176025390625,-0.1684417724609375,1.5832977294921875
1663860965132281600,7.999281494140625,-1.2197113037109375,-0.2685699462890625,1.5140533447265625
1663860965142169300,8.00916943359375,-1.24847412109375,-0.3399505615234375,1.509796142578125
1663860965152026400,8.0190263671875,-1.2740325927734375,-0.386810302734375,1.5737152099609375
1663860965161944600,8.028944580078125,-1.3006591796875,-0.3026580810546875,1.6163177490234375
1663860965171832300,8.038832275390625,-1.31451416015625,-0.1077117919921875,1.5737152099609375
1663860965181689600,8.048689697265624,-1.2505950927734375,-0.0118408203125,1.5502777099609375
1663860965191577300,8.058577392578124,-1.1451416015625,0.00946044921875,1.64508056640625
1663860965201464800,8.06846484375,-1.0812225341796875,0.069122314453125,1.8016815185546875
1663860965211352600,8.0783525390625,-1.0439300537109375,0.23529052734375,1.8347015380859375
1663860965221240300,8.088240234375,-0.951263427734375,0.36419677734375,1.7601318359375
1663860965231128000,8.098128173828124,-0.7946624755859375,0.3578033447265625,1.7100677490234375
1663860965241015800,8.108015869140624,-0.6583099365234375,0.3663177490234375,1.7441558837890625
1663860965250903300,8.1179033203125,-0.5879974365234375,0.454742431640625,1.873046875
1663860965260791000,8.127791015625,-0.5773468017578125,0.5218505859375,2.022186279296875
1663860965270648300,8.1376484375,-0.5986480712890625,0.544219970703125,2.1457672119140625
1663860965280536000,8.1475361328125,-0.6487274169921875,0.50054931640625,2.216064453125
1663860965290423600,8.157423583984375,-0.697723388671875,0.37164306640625,2.162811279296875
1663860965300280800,8.16728076171875,-0.6370086669921875,0.1074676513671875,1.942291259765625
1663860965310168600,8.17716845703125,-0.411163330078125,-0.1886749267578125,1.694091796875
1663860965320056300,8.187056396484374,-0.1555023193359375,-0.196136474609375,1.6557464599609375
1663860965329913300,8.196913330078125,0.066070556640625,0.0808258056640625,1.751617431640625
1663860965339831600,8.20683154296875,0.30682373046875,0.37164306640625,1.648284912109375
1663860965349719300,8.21671923828125,0.5390472412109375,0.39935302734375,1.36065673828125
1663860965359607000,8.22660693359375,0.7872467041015625,0.1735076904296875,1.1944732666015625
1663860965369494800,8.236494873046874,0.9481048583984375,0.2906951904296875,1.168914794921875
1663860965379382500,8.246382568359374,0.8341217041015625,0.8957672119140625,1.0858306884765625
1663860965389270000,8.25627001953125,0.646636962890625,1.2334442138671875,0.9697113037109375
1663860965399157800,8.26615771484375,0.49749755859375,0.9745941162109375,0.9771728515625
1663860965409045500,8.27604541015625,0.29510498046875,0.57830810546875,1.0251007080078125
1663860965418933200,8.285933349609374,0.0586090087890625,0.5484771728515625,0.938812255859375
1663860965428821000,8.295821044921874,-0.175750732421875,0.92132568359375,0.8898162841796875
1663860965438678000,8.305677978515625,-0.413299560546875,1.173797607421875,1.1156463623046875
1663860965448565800,8.315565673828125,-0.63275146484375,1.0086822509765625,1.37451171875
1663860965458453500,8.32545361328125,-0.85858154296875,0.649688720703125,1.462921142578125
1663860965468310500,8.335310546875,-1.099334716796875,0.217193603515625,1.3787689208984375
1663860965478198300,8.3451982421875,-1.2655181884765625,-0.0629730224609375,1.29248046875
1663860965488055600,8.3550556640625,-1.22503662109375,-0.1119842529296875,1.3681182861328125
1663860965497943300,8.364943359375,-1.0343475341796875,-0.136474609375,1.4703826904296875
1663860965507861500,8.374861572265624,-0.8500518798828125,-0.2941436767578125,1.5694580078125
1663860965517749000,8.3847490234375,-0.7254180908203125,-0.755401611328125,1.682373046875
1663860965527636700,8.39463671875,-0.709442138671875,-1.31573486328125,1.615264892578125
1663860965537494000,8.404493896484375,-0.775482177734375,-1.734375,1.2519989013671875
1663860965547351000,8.41435107421875,-0.7935943603515625,-1.862213134765625,0.757720947265625
1663860965557238800,8.42423876953125,-0.69879150390625,-1.0206451416015625,0.677825927734375
1663860965567157000,8.434156982421875,-0.584808349609375,0.4281158447265625,1.281829833984375
1663860965577014300,8.44401416015625,-0.5879974365234375,1.1024169921875,1.86346435546875
1663860965586902000,8.453902099609374,-0.5539093017578125,0.8254547119140625,1.930572509765625
1663860965596789800,8.463789794921874,-0.3302154541015625,-0.1194305419921875,1.3787689208984375
1663860965606646800,8.473646728515625,0.0266571044921875,-1.0675201416015625,0.5382843017578125
1663860965616534500,8.483534423828125,0.2066802978515625,-0.96844482421875,0.208038330078125
1663860965626422300,8.49342236328125,0.0010833740234375,-0.342071533203125,0.4317474365234375
1663860965636340500,8.503340576171874,-0.1704254150390625,-0.003326416015625,0.5723724365234375
1663860965646197500,8.513197509765625,-0.0766754150390625,-0.034210205078125,0.2368011474609375
1663860965656115700,8.52311572265625,0.0692596435546875,-0.3665771484375,-0.360809326171875
1663860965665973000,8.532972900390625,0.089508056640625,-0.7010650634765625,-0.851898193359375
1663860965675860700,8.54286083984375,-0.02447509765625,-0.6392822265625,-1.145904541015625
1663860965685748500,8.55274853515625,-0.206634521484375,-0.4432830810546875,-1.2833251953125
1663860965695636000,8.562635986328125,-0.3728179931640625,-0.4070587158203125,-1.3813323974609375
1663860965705493200,8.5724931640625,-0.4708251953125,-0.433685302734375,-1.491058349609375
1663860965715381000,8.582381103515624,-0.53900146484375,-0.457122802734375,-1.60504150390625
1663860965725268700,8.592268798828124,-0.6220855712890625,-0.4997406005859375,-1.6806640625
1663860965735125800,8.602125732421875,-0.723297119140625,-0.426239013671875,-1.63592529296875
1663860965745044000,8.6120439453125,-0.8053131103515625,-0.0235595703125,-1.4814605712890625
1663860965754931700,8.621931640625,-0.87030029296875,0.4281158447265625,-1.2865142822265625
1663860965764789000,8.6317890625,-0.9097137451171875,0.4504852294921875,-1.030853271484375
1663860965774707200,8.641707275390624,-0.8745574951171875,-0.090667724609375,-0.6910400390625
1663860965784564200,8.651564208984375,-0.8180999755859375,-0.926910400390625,-0.3948974609375
1663860965794482400,8.661482421875,-0.765899658203125,-1.5266571044921875,-0.199951171875
1663860965804339700,8.671339599609375,-0.674285888671875,-1.702423095703125,-0.085968017578125
1663860965814196700,8.68119677734375,-0.5699005126953125,-1.6875,-0.0231170654296875
1663860965824084500,8.69108447265625,-0.4963836669921875,-1.6512908935546875,-0.0220489501953125
1663860965834002700,8.701002685546875,-0.4420623779296875,-1.5788421630859375,-0.0817108154296875
1663860965843860000,8.71085986328125,-0.354705810546875,-1.404144287109375,-0.1509552001953125
1663860965853778200,8.720778076171875,-0.1768035888671875,-1.1389007568359375,-0.1967620849609375
1663860965863666000,8.730666015625,0.089508056640625,-0.9705810546875,-0.2489471435546875
1663860965873553700,8.7405537109375,0.4154815673828125,-0.9514007568359375,-0.4140625
1663860965883410700,8.75041064453125,0.79364013671875,-0.869384765625,-0.791168212890625
1663860965893298400,8.76029833984375,1.215484619140625,-0.6339569091796875,-1.337646484375
1663860965903155700,8.77015576171875,1.6586456298828125,-0.323974609375,-1.888397216796875
1663860965913074000,8.780073974609374,2.0506591796875,-0.151397705078125,-2.2250213623046875
1663860965922961400,8.78996142578125,2.2381439208984375,-0.0885467529296875,-2.23992919921875
1663860965932849200,8.79984912109375,2.117767333984375,0.1553955078125,-2.0876007080078125
1663860965942706400,8.80970654296875,1.8141632080078125,0.673126220703125,-1.90863037109375
1663860965952563500,8.8195634765625,1.5787506103515625,1.126922607421875,-1.6614990234375
1663860965962451200,8.829451171875,1.4775390625,1.2931060791015625,-1.465484619140625
1663860965972339000,8.8393388671875,1.3923187255859375,1.2334442138671875,-1.488922119140625
1663860965982226700,8.849226806640624,1.2815399169921875,1.00335693359375,-1.6668243408203125
1663860965992114400,8.859114501953124,1.157958984375,0.740234375,-1.829803466796875
1663860966002032600,8.86903271484375,1.0333251953125,0.501617431640625,-1.8713531494140625
1663860966011889700,8.8788896484375,0.9353179931640625,0.1287689208984375,-1.806365966796875
1663860966021747000,8.888746826171875,0.9012298583984375,-0.2494049072265625,-1.74884033203125
1663860966031634700,8.898634765625,0.92041015625,-0.49334716796875,-1.8361968994140625
1663860966041553000,8.908552978515624,0.92999267578125,-0.513580322265625,-2.0641632080078125
1663860966051440400,8.9184404296875,0.931060791015625,-0.353790283203125,-2.334747314453125
1663860966061328100,8.928328125,0.9704742431640625,-0.106658935546875,-2.550994873046875
1663860966071185400,8.938185302734375,0.99072265625,0.149017333984375,-2.66070556640625
1663860966081073200,8.9480732421875,0.989654541015625,0.2672576904296875,-2.70013427734375
1663860966090930200,8.95793017578125,0.9971160888671875,0.2203826904296875,-2.7810821533203125
1663860966100848400,8.967848388671875,0.9694061279296875,0.1607208251953125,-2.915313720703125
1663860966110736100,8.977736083984375,0.9150848388671875,0.23956298828125,-2.962188720703125
1663860966120593400,8.987593505859374,0.9044342041015625,0.306671142578125,-2.927032470703125
1663860966130511600,8.99751171875,0.9821929931640625,0.133026123046875,-2.938751220703125
1663860966140399400,9.0073994140625,1.08978271484375,-0.136474609375,-3.0910797119140625
1663860966150256400,9.01725634765625,1.1622314453125,-0.1897430419921875,-3.2008056640625
1663860966160144100,9.02714404296875,1.1675567626953125,-0.1780242919921875,-3.0356903076171875
1663860966170001400,9.03700146484375,1.137725830078125,-0.2696380615234375,-2.7704315185546875
1663860966179919600,9.046919677734374,1.06634521484375,-0.3069305419921875,-2.652191162109375
1663860966189807000,9.05680712890625,1.0152130126953125,-0.26324462890625,-2.57122802734375
1663860966199664400,9.066664306640625,0.93212890625,-0.2898712158203125,-2.4188995361328125
1663860966209552100,9.07655224609375,0.7872467041015625,-0.288818359375,-2.2005157470703125
1663860966219439900,9.08643994140625,0.6093597412109375,-0.1695098876953125,-1.7978515625
1663860966229327400,9.096327392578125,0.3994903564453125,0.0467376708984375,-1.331268310546875
1663860966239215000,9.106215087890625,0.178985595703125,0.1426239013671875,-0.953094482421875
1663860966249072400,9.116072265625,-0.085205078125,0.125579833984375,-0.6931610107421875
1663860966258990600,9.125990478515625,-0.4079742431640625,0.102142333984375,-0.487579345703125
1663860966268878300,9.13587841796875,-0.676422119140625,-0.0544586181640625,-0.22552490234375
1663860966278765800,9.145765869140625,-0.8042449951171875,-0.1450042724609375,0.1004486083984375
1663860966288623000,9.155623046875,-0.8543243408203125,-0.0406036376953125,0.3646392822265625
1663860966298510800,9.1655107421875,-0.8734893798828125,0.0936126708984375,0.5361480712890625
1663860966308398600,9.175398681640624,-0.9075775146484375,0.22784423828125,0.6863555908203125
1663860966318286300,9.185286376953124,-0.9683074951171875,0.421722412109375,0.8120574951171875
1663860966328173800,9.195173828125,-1.0045166015625,0.5452880859375,0.8951416015625
1663860966338061600,9.2050615234375,-1.0226287841796875,0.5388946533203125,0.9771728515625
1663860966347949300,9.21494921875,-1.06097412109375,0.4941558837890625,1.054931640625
1663860966357837000,9.224837158203124,-1.129150390625,0.4398345947265625,1.16571044921875
1663860966367694000,9.234694091796875,-1.233551025390625,0.410003662109375,1.3457489013671875
1663860966377581800,9.244581787109375,-1.3549957275390625,0.397216796875,1.4916839599609375
1663860966387439000,9.254439208984374,-1.463653564453125,0.34075927734375,1.5822296142578125
1663860966397357300,9.264357421875,-1.5254364013671875,0.297088623046875,1.6408233642578125
1663860966407245000,9.2742451171875,-1.5584564208984375,0.2544708251953125,1.64508056640625
1663860966417132500,9.284132568359375,-1.5680389404296875,0.158599853515625,1.7015533447265625
1663860966427020300,9.294020263671875,-1.54461669921875,0.144744873046875,1.81658935546875
1663860966436908000,9.303907958984375,-1.5009307861328125,0.2075958251953125,1.8016815185546875
1663860966446765300,9.313765380859374,-1.426361083984375,0.1671142578125,1.75054931640625
1663860966456622300,9.323622314453125,-1.3240966796875,0.0595245361328125,1.83258056640625
1663860966466510000,9.333510009765625,-1.266571044921875,0.0978851318359375,1.908203125
1663860966476428300,9.34342822265625,-1.221832275390625,0.2406158447265625,1.8773193359375
1663860966486285600,9.35328564453125,-1.1057281494140625,0.3247833251953125,1.908203125
1663860966496173000,9.363173095703125,-0.9789581298828125,0.3130645751953125,2.078643798828125
1663860966506030300,9.3730302734375,-0.9001312255859375,0.2566070556640625,2.1755828857421875
1663860966515948500,9.382948486328125,-0.826629638671875,0.1862945556640625,2.0775909423828125
1663860966525836300,9.392836181640625,-0.7318115234375,0.1319732666015625,1.9476165771484375
1663860966535724000,9.40272412109375,-0.6572418212890625,0.156463623046875,1.9838409423828125
1663860966545581000,9.4125810546875,-0.627410888671875,0.2257080078125,2.14044189453125
1663860966555499300,9.422499267578125,-0.607177734375,0.257659912109375,2.2128753662109375
1663860966565356500,9.4323564453125,-0.58160400390625,0.2683258056640625,2.11273193359375
1663860966575213800,9.4422138671875,-0.528350830078125,0.3365020751953125,1.955078125
1663860966585132000,9.452132080078124,-0.4409942626953125,0.490966796875,1.878387451171875
1663860966595019500,9.46201953125,-0.34405517578125,0.5857696533203125,1.8719940185546875
1663860966604907300,9.4719072265625,-0.26416015625,0.5825653076171875,1.8538818359375
1663860966614764500,9.4817646484375,-0.2268829345703125,0.55914306640625,1.83258056640625
1663860966624682800,9.491682861328124,-0.232208251953125,0.5879058837890625,1.8112640380859375
1663860966634570500,9.501570556640624,-0.27587890625,0.6635284423828125,1.805938720703125
1663860966644427500,9.511427490234375,-0.319549560546875,0.5974884033203125,1.8261871337890625
1663860966654284800,9.521284912109374,-0.35577392578125,0.3812408447265625,1.8677215576171875
1663860966664172500,9.531172607421874,-0.4069061279296875,0.1873626708984375,1.8805084228515625
1663860966674090800,9.5410908203125,-0.45697021484375,0.177764892578125,1.827239990234375
1663860966683978200,9.550978271484375,-0.4644317626953125,0.40679931640625,1.7441558837890625
1663860966693866000,9.560865966796875,-0.378143310546875,0.8030853271484375,1.718597412109375
1663860966703753700,9.570753662109375,-0.21728515625,1.21746826171875,1.8368377685546875
1663860966713641500,9.580641357421875,-0.0574951171875,1.546630859375,2.0168609619140625
1663860966723498500,9.59049853515625,0.054351806640625,1.700042724609375,2.0445556640625
1663860966733355800,9.600355712890625,0.145965576171875,1.6212005615234375,1.82830810546875
1663860966743274000,9.61027392578125,0.2173309326171875,1.4507598876953125,1.6195220947265625
1663860966753161700,9.62016162109375,0.14276123046875,1.3623504638671875,1.6621246337890625
1663860966763019000,9.63001904296875,-0.0574951171875,1.2377166748046875,1.7462921142578125
1663860966772906500,9.639906494140625,-0.2599029541015625,1.0161285400390625,1.6642608642578125
1663860966782794200,9.649794189453125,-0.389862060546875,0.7093353271484375,1.4757080078125
1663860966792682000,9.659681884765625,-0.458038330078125,0.5143890380859375,1.32763671875
1663860966802569700,9.66956982421875,-0.4559173583984375,0.569793701171875,1.2552032470703125
1663860966812457500,9.67945751953125,-0.4079742431640625,0.7221221923828125,1.1731719970703125
1663860966822314500,9.689314453125,-0.35791015625,0.7104034423828125,1.0059356689453125
1663860966832232700,9.699232666015625,-0.300384521484375,0.5218505859375,0.7396087646484375
1663860966842090000,9.709090087890624,-0.2332763671875,0.398284912109375,0.3859405517578125
1663860966851977700,9.718977783203124,-0.1778717041015625,0.4036102294921875,0.0237579345703125
1663860966861834800,9.728834716796875,-0.1086273193359375,0.4717864990234375,-0.231903076171875
1663860966871722500,9.738722412109375,0.009613037109375,0.5186614990234375,-0.3970184326171875
1663860966881610200,9.7486103515625,0.148101806640625,0.4494171142578125,-0.574920654296875
1663860966891498000,9.758498046875,0.2578125,0.3482208251953125,-0.7315216064453125
1663860966901416200,9.768416259765624,0.328125,0.30560302734375,-0.9168701171875
1663860966911273200,9.778273193359375,0.3803253173828125,0.339691162109375,-1.1395111083984375
1663860966921161000,9.788160888671875,0.362213134765625,0.70294189453125,-1.3887786865234375
1663860966931048700,9.798048583984375,0.3984375,0.97991943359375,-1.7350006103515625
1663860966940905700,9.80790576171875,0.5166778564453125,0.6081390380859375,-2.03753662109375
1663860966950824000,9.817823974609375,0.53265380859375,0.0712432861328125,-2.186676025390625
1663860966960681200,9.82768115234375,0.430389404296875,-0.0533905029296875,-2.170684814453125
1663860966970569000,9.83756884765625,0.3451690673828125,-0.01397705078125,-2.0769500732421875
1663860966980487200,9.847487060546875,0.3579559326171875,-0.0821533203125,-2.1685638427734375
1663860966990375000,9.857375,0.5049591064453125,-0.148193359375,-2.6106414794921875
1663860967000262700,9.8672626953125,0.736114501953125,0.0467376708984375,-3.0090484619140625
1663860967010150100,9.877150146484375,0.851165771484375,0.5729827880859375,-2.97283935546875
1663860967020038000,9.887037841796875,0.7883148193359375,0.8243865966796875,-2.8609771728515625
1663860967029925600,9.896925537109375,0.853302001953125,0.501617431640625,-3.1496734619140625
1663860967039813400,9.9068134765625,1.1739501953125,0.111724853515625,-3.6972198486328125
1663860967049670400,9.91667041015625,1.40936279296875,0.217193603515625,-3.996551513671875
1663860967059558100,9.92655810546875,1.3731536865234375,1.072601318359375,-3.812255859375
1663860967069415400,9.93641552734375,1.169677734375,1.420928955078125,-3.1922760009765625
1663860967079303200,9.94630322265625,0.966217041015625,0.579376220703125,-2.7693634033203125
1663860967089160200,9.95616015625,0.907623291015625,-0.05657958984375,-2.9281005859375
1663860967099078400,9.966078369140625,1.03546142578125,0.2225189208984375,-3.3776397705078125
1663860967108966100,9.975966064453125,1.2559661865234375,0.705078125,-3.813323974609375
1663860967118854000,9.98585400390625,1.43280029296875,0.9362335205078125,-4.0689849853515625
1663860967128711000,9.9957109375,1.4754180908203125,0.511199951171875,-3.926239013671875
1663860967138598700,10.0055986328125,1.5084381103515625,-0.0310211181640625,-3.89642333984375
1663860967148486400,10.015486328125,1.638397216796875,0.2523345947265625,-4.1392974853515625
1663860967158374100,10.0253740234375,1.8589019775390625,0.795623779296875,-4.13397216796875
1663860967168262000,10.035261962890624,2.061309814453125,1.08111572265625,-3.8878936767578125
1663860967178149400,10.0451494140625,2.155059814453125,0.728515625,-3.679107666015625
1663860967188037000,10.055037109375,2.1092529296875,0.2534027099609375,-3.540618896484375
1663860967197924900,10.0649248046875,2.051727294921875,0.4249114990234375,-3.384033203125
1663860967207812600,10.0748125,2.075164794921875,0.78497314453125,-3.325439453125
1663860967217700400,10.084700439453124,2.016571044921875,0.626251220703125,-3.3051910400390625
1663860967227588000,10.094588134765624,1.7928619384765625,0.201202392578125,-3.1475372314453125
1663860967237475600,10.1044755859375,1.4530487060546875,-0.2355499267578125,-2.8162384033203125
1663860967247332900,10.114332763671875,0.93212890625,-0.4315643310546875,-2.4380645751953125
1663860967257220600,10.124220703125,0.432525634765625,-0.31011962890625,-2.140869140625
1663860967267077600,10.13407763671875,0.4176025390625,-0.4741668701171875,-1.91290283203125
1663860967276965400,10.14396533203125,0.3771209716796875,-0.8842926025390625,-1.68280029296875
1663860967286853000,10.15385302734375,0.067138671875,-0.868316650390625,-1.2886505126953125
1663860967296740900,10.163740966796874,-0.0532379150390625,-0.4070587158203125,-0.7549591064453125
1663860967306628600,10.173628662109374,0.1395721435546875,-0.069366455078125,-0.3171234130859375
1663860967316485600,10.183485595703125,0.57952880859375,0.3801727294921875,-0.129638671875
1663860967326403800,10.19340380859375,1.231475830078125,0.7199859619140625,-0.2521514892578125
1663860967336291600,10.20329150390625,1.07061767578125,0.3780364990234375,-0.3863677978515625
1663860967346179300,10.213179443359374,0.4452972412109375,0.396148681640625,-0.1850433349609375
1663860967356067000,10.223067138671874,0.39630126953125,0.8574066162109375,0.11962890625
1663860967365924000,10.232924072265625,0.510284423828125,0.668853759765625,0.2368011474609375
1663860967375781400,10.242781494140624,0.1715240478515625,0.14581298828125,0.2634429931640625
1663860967385699600,10.252699462890625,-0.230072021484375,0.2065277099609375,0.2751617431640625
1663860967395556600,10.262556640625,-0.1096954345703125,0.6070709228515625,0.5350799560546875
1663860967405444400,10.2724443359375,0.02984619140625,0.611328125,0.7982025146484375
1663860967415332000,10.28233203125,-0.0084991455078125,0.61346435546875,0.835479736328125
1663860967425219800,10.2922197265625,-0.0809326171875,0.5974884033203125,0.8599853515625
1663860967435107600,10.302107666015624,-0.1672210693359375,0.452606201171875,0.99847412109375
1663860967444995000,10.3119951171875,-0.274810791015625,0.4121246337890625,1.067718505859375
1663860967454852400,10.321852294921875,-0.2386016845703125,0.525054931640625,1.135894775390625
1663860967464740000,10.331739990234375,-0.0862579345703125,0.5570068359375,1.2786407470703125
1663860967474627800,10.3416279296875,-0.1224822998046875,0.417449951171875,1.4043426513671875
1663860967484515600,10.351515625,-0.34619140625,0.31732177734375,1.4053955078125
1663860967494403000,10.361403076171875,-0.4548492431640625,0.2544708251953125,1.4597320556640625
1663860967504260400,10.37126025390625,-0.401580810546875,0.2917633056640625,1.71539306640625
1663860967514148000,10.381148193359374,-0.28973388671875,0.431304931640625,1.8805084228515625
1663860967524035800,10.391035888671874,-0.115020751953125,0.455810546875,1.873046875
1663860967533923300,10.40092333984375,-0.08306884765625,0.2757720947265625,2.0168609619140625
1663860967543811000,10.41081103515625,-0.1981201171875,0.5218505859375,2.5218048095703125
1663860967553698800,10.42069873046875,-0.185333251953125,0.957550048828125,2.971343994140625
1663860967563556000,10.43055615234375,-0.0926513671875,0.8062744140625,2.934051513671875
1663860967573443600,10.440443603515625,-0.3067779541015625,0.0936126708984375,2.8243408203125
1663860967583331300,10.450331298828125,-0.695587158203125,-0.1173095703125,2.91168212890625
1663860967593219000,10.460218994140625,-0.7477874755859375,0.3897552490234375,3.093841552734375
1663860967603106800,10.47010693359375,-0.6678924560546875,0.02117919921875,3.2035675048828125
1663860967612994600,10.47999462890625,-0.69879150390625,-0.4049224853515625,3.2046356201171875
1663860967622882000,10.489882080078125,-0.6572418212890625,0.2544708251953125,3.1790618896484375
1663860967632769800,10.499769775390625,-0.4005126953125,0.7338409423828125,3.02886962890625
1663860967642657500,10.509657470703125,-0.084136962890625,0.5218505859375,2.8051605224609375
1663860967652545300,10.519545166015625,-0.0543060302734375,0.372711181640625,2.77532958984375
1663860967662433000,10.52943310546875,-0.2013092041015625,0.693359375,3.029937744140625
1663860967672290000,10.5392900390625,-0.300384521484375,1.220672607421875,3.4070281982421875
1663860967682177800,10.549177734375,-0.276947021484375,1.493377685546875,3.5327301025390625
1663860967692065500,10.5590654296875,-0.0756072998046875,1.592437744140625,3.185455322265625
1663860967701953300,10.568953369140624,0.2503662109375,1.63079833984375,2.6134185791015625
1663860967711810300,10.578810302734375,0.3920440673828125,1.004425048828125,2.28851318359375
1663860967721698000,10.588697998046875,0.270599365234375,0.1415557861328125,2.3513641357421875
1663860967731585800,10.598585693359375,0.428253173828125,0.85101318359375,2.4738616943359375
1663860967741504000,10.60850390625,0.625335693359375,1.5636749267578125,2.3758544921875
1663860967751361300,10.618361328125,0.5113525390625,0.581512451171875,1.9849090576171875
1663860967761248800,10.628248779296875,0.5028228759765625,-0.3378143310546875,1.4245758056640625
1663860967771136500,10.638136474609375,0.5987091064453125,0.2331695556640625,1.3468170166015625
1663860967781024300,10.648024169921875,0.48577880859375,0.7317047119140625,1.50128173828125
1663860967790912000,10.657912109375,0.4591522216796875,0.7700653076171875,1.4235076904296875
1663860967800799700,10.6677998046875,0.5529022216796875,0.7317047119140625,1.2339019775390625
1663860967810656800,10.67765673828125,0.4591522216796875,0.5804443359375,0.9899444580078125
1663860967820544500,10.68754443359375,0.3132171630859375,0.5601959228515625,0.7300262451171875
1663860967830432300,10.697432373046874,0.2748565673828125,0.398284912109375,0.4903411865234375
1663860967840289300,10.707289306640625,0.270599365234375,0.05419921875,0.2059173583984375
1663860967850177000,10.717177001953125,0.272735595703125,-0.2142486572265625,-0.1125946044921875
1663860967860095200,10.72709521484375,0.340911865234375,0.0744476318359375,-0.3863677978515625
1663860967869983000,10.73698291015625,0.4239959716796875,0.9064178466796875,-0.530181884765625
1663860967879870700,10.74687060546875,0.420806884765625,1.263275146484375,-0.5504302978515625
1663860967889758500,10.756758544921874,0.3217315673828125,0.760467529296875,-0.567474365234375
1663860967899646000,10.76664599609375,0.307891845703125,0.2374267578125,-0.699554443359375
1663860967909533700,10.77653369140625,0.3696746826171875,-0.0416717529296875,-0.943511962890625
1663860967919421400,10.78642138671875,0.3813934326171875,-0.170562744140625,-1.1522979736328125
1663860967929309200,10.79630908203125,0.3558197021484375,-0.424102783203125,-1.2247314453125
1663860967939197000,10.806197021484374,0.3664703369140625,-0.52850341796875,-1.2119598388671875
1663860967949084700,10.816084716796874,0.4122772216796875,-0.3516693115234375,-1.1853179931640625
1663860967958972200,10.82597216796875,0.4474334716796875,-0.2909393310546875,-1.04364013671875
1663860967968829400,10.835829345703125,0.4378509521484375,-0.4752349853515625,-0.82525634765625
1663860967978717200,10.84571728515625,0.3686065673828125,-0.661651611328125,-0.6612091064453125
1663860967988605000,10.85560498046875,0.31640625,-0.3708343505859375,-0.48223876953125
1663860967998492400,10.865492431640625,0.247161865234375,-0.0651092529296875,-0.37359619140625
1663860968008380200,10.875380126953125,0.122528076171875,-0.480560302734375,-0.5365753173828125
1663860968018237400,10.885237548828124,-0.011688232421875,-1.2603302001953125,-0.9456329345703125
1663860968028094500,10.895094482421875,-0.103302001953125,-1.0590057373046875,-1.249237060546875
1663860968037982200,10.904982177734375,-0.1576385498046875,-0.4422149658203125,-1.2833251953125
1663860968047870000,10.914869873046875,-0.1224822998046875,0.03289794921875,-1.235382080078125
1663860968057757700,10.9247578125,-0.1555023193359375,-0.0853424072265625,-1.3216705322265625
1663860968067614700,10.93461474609375,-0.1555023193359375,-0.39959716796875,-1.57733154296875
1663860968077533000,10.944532958984375,-0.0521697998046875,-0.37615966796875,-1.7882537841796875
1663860968087390200,10.95439013671875,0.0596771240234375,-0.433685302734375,-1.8820037841796875
1663860968097308400,10.964308349609375,0.145965576171875,-0.6339569091796875,-1.953369140625
1663860968107196200,10.974196044921875,0.2311859130859375,-0.7277069091796875,-2.0066375732421875
1663860968117084000,10.984083984375,0.3334503173828125,-0.7479400634765625,-2.03753662109375
1663860968126971400,10.993971435546875,0.430389404296875,-0.70001220703125,-2.1099700927734375
1663860968136859100,11.003859130859375,0.5837860107421875,-0.4560546875,-2.1419219970703125
1663860968146747000,11.013746826171875,0.6967010498046875,-0.3079833984375,-2.1483154296875
1663860968156634600,11.023634521484375,0.6860504150390625,-0.309051513671875,-2.2303466796875
1663860968166492000,11.033491943359374,0.682861328125,-0.0768280029296875,-2.309173583984375
1663860968176379400,11.04337939453125,0.8458404541015625,0.303466796875,-2.2899932861328125
1663860968186267100,11.05326708984375,0.93426513671875,0.1436767578125,-2.33367919921875
1663860968196124400,11.06312451171875,0.82879638671875,-0.069366455078125,-2.4764251708984375
1663860968205981400,11.0729814453125,0.7648773193359375,0.031829833984375,-2.5541839599609375
1663860968215899600,11.082899658203125,0.7957763671875,-0.1524658203125,-2.605316162109375
1663860968225757000,11.0927568359375,0.7648773193359375,-0.3729705810546875,-2.570159912109375
1663860968235675100,11.102675048828125,0.75848388671875,-0.3623199462890625,-2.478546142578125
1663860968245563000,11.11256298828125,0.7073516845703125,-0.38787841796875,-2.490264892578125
1663860968255450600,11.12245068359375,0.580596923828125,-0.4486083984375,-2.548858642578125
1663860968265307600,11.1323076171875,0.5262603759765625,-0.435821533203125,-2.45831298828125
1663860968275195400,11.1421953125,0.5486297607421875,-0.5668487548828125,-2.334747314453125
1663860968285083100,11.152083251953124,0.44317626953125,-0.8768463134765625,-2.342193603515625
1663860968294971000,11.161970947265624,0.3323822021484375,-0.7383575439453125,-2.194122314453125
1663860968304858400,11.1718583984375,0.3920440673828125,-0.5679168701171875,-2.0630950927734375
1663860968314746000,11.18174609375,0.4250640869140625,-0.4187774658203125,-2.000244140625
1663860968324633900,11.1916337890625,0.4676666259765625,-0.195068359375,-1.88946533203125
1663860968334521600,11.201521484375,0.5156097412109375,-0.0587158203125,-1.8990478515625
1663860968344378600,11.211378662109375,0.5518341064453125,0.2459564208984375,-1.8266143798828125
1663860968354266400,11.221266357421875,0.63812255859375,0.520782470703125,-1.6806640625
1663860968364123600,11.23112353515625,0.6732635498046875,0.55914306640625,-1.603973388671875
1663860968374041900,11.241041748046875,0.5592803955078125,0.4952239990234375,-1.545379638671875
1663860968383899100,11.250899169921874,0.3803253173828125,0.5186614990234375,-1.4367218017578125
1663860968393786600,11.26078662109375,0.362213134765625,0.5879058837890625,-1.19384765625
1663860968403674400,11.27067431640625,0.3984375,0.5804443359375,-0.915802001953125
1663860968413562000,11.28056201171875,0.3792572021484375,0.72637939453125,-0.7176666259765625
1663860968423419400,11.29041943359375,0.5251922607421875,0.8137359619140625,-0.52166748046875
1663860968433337600,11.300337646484374,0.55609130859375,0.5101318359375,-0.339508056640625
1663860968443225000,11.31022509765625,0.4698028564453125,0.5847015380859375,-0.0454864501953125
1663860968453112800,11.32011279296875,0.227996826171875,0.429168701171875,0.2325439453125
1663860968462970000,11.32997021484375,0.0586090087890625,0.54742431640625,0.6469268798828125
1663860968472857900,11.33985791015625,0.32598876953125,0.83929443359375,1.0581207275390625
1663860968482715000,11.34971484375,0.3121490478515625,0.54315185546875,1.2647857666015625
1663860968492602600,11.3596025390625,-0.1235504150390625,0.236358642578125,1.46612548828125
1663860968502520800,11.369520751953125,-0.2449951171875,0.5868377685546875,1.679168701171875
1663860968512408600,11.37940869140625,-0.0777435302734375,0.4941558837890625,1.85174560546875
1663860968522296300,11.38929638671875,-0.32275390625,-0.0768280029296875,1.9838409423828125
1663860968532183800,11.399183837890625,-0.629547119140625,-0.0970611572265625,2.0413665771484375
1663860968542071600,11.409071533203125,-0.4974517822265625,0.2992095947265625,2.0435028076171875
1663860968551959300,11.418959228515625,-0.3951873779296875,-0.0395355224609375,2.02325439453125
1663860968561816600,11.428816650390624,-0.525146484375,-0.24407958984375,2.0413665771484375
1663860968571673600,11.438673583984375,-0.5347442626953125,0.090423583984375,2.0839691162109375
1663860968581591800,11.448591796875,-0.5177001953125,0.0733795166015625,2.151092529296875
1663860968591479600,11.4584794921875,-0.654052734375,-0.1567230224609375,2.4046173095703125
1663860968601367300,11.4683671875,-0.735015869140625,0.250213623046875,2.6794586181640625
1663860968611224300,11.478224365234375,-0.5677642822265625,0.56658935546875,2.68585205078125
1663860968621112000,11.488112060546875,-0.4527130126953125,0.326904296875,2.682647705078125
1663860968630969300,11.49796923828125,-0.5326080322265625,0.1522064208984375,2.8754730224609375
1663860968640887600,11.507887451171875,-0.69879150390625,0.3119964599609375,3.1268768310546875
1663860968650775300,11.517775390625,-0.7786865234375,0.579376220703125,3.269622802734375
1663860968660663000,11.5276630859375,-0.7712249755859375,0.3908233642578125,3.162017822265625
1663860968670550500,11.537550537109375,-0.7499237060546875,0.4238433837890625,2.9851837158203125
1663860968680438300,11.547438232421875,-0.655120849609375,0.579376220703125,2.9415130615234375
1663860968690295600,11.557295654296874,-0.7382049560546875,-0.048065185546875,2.957489013671875
1663860968700183300,11.567183349609374,-0.894805908203125,-0.0438079833984375,3.0001068115234375
1663860968710040300,11.577040283203125,-0.7840118408203125,0.77325439453125,3.05230712890625
1663860968719958500,11.58695849609375,-0.5656280517578125,0.967132568359375,3.0192718505859375
1663860968729846300,11.59684619140625,-0.35577392578125,0.63690185546875,2.9510955810546875
1663860968739703600,11.60670361328125,-0.15338134765625,0.76153564453125,2.8829193115234375
1663860968749591000,11.616591064453125,0.0362396240234375,1.1492919921875,2.78704833984375
1663860968759478800,11.626478759765625,0.1725921630859375,0.8414306640625,2.562286376953125
1663860968769366500,11.636366455078125,0.47406005859375,0.729583740234375,2.322601318359375
1663860968779254300,11.646254150390625,0.7339935302734375,0.99908447265625,2.28851318359375
1663860968789111300,11.656111328125,0.6402435302734375,0.64862060546875,2.2139434814453125
1663860968799029500,11.666029541015625,0.6285247802734375,0.4376983642578125,1.96893310546875
1663860968808917200,11.675917236328125,0.7254638671875,0.863800048828125,1.7995452880859375
1663860968818774500,11.6857744140625,0.5944366455078125,0.681640625,1.6514739990234375
1663860968828631600,11.695631591796875,0.444244384765625,0.1884307861328125,1.3425445556640625
1663860968838549800,11.7055498046875,0.4144134521484375,0.3545989990234375,1.0847625732421875
1663860968848437500,11.7154375,0.3675384521484375,0.257659912109375,0.964385986328125
1663860968858325200,11.7253251953125,0.3994903564453125,0.2672576904296875,0.767303466796875
1663860968868182500,11.7351826171875,0.439971923828125,0.5825653076171875,0.5926055908203125
1663860968878070300,11.7450703125,0.3558197021484375,0.53570556640625,0.440277099609375
1663860968887927300,11.75492724609375,0.3334503173828125,0.7125396728515625,0.1739501953125
1663860968897845500,11.764845458984375,0.3089447021484375,0.7572784423828125,-0.0476226806640625
1663860968907733200,11.774733154296875,0.2183990478515625,0.444091796875,-0.292633056640625
1663860968917621000,11.78462109375,0.178985595703125,0.26300048828125,-0.6047515869140625
1663860968927478000,11.79447802734375,0.12359619140625,-0.0331573486328125,-0.8699951171875
1663860968937365800,11.80436572265625,0.1417083740234375,0.0584564208984375,-1.112884521484375
1663860968947253500,11.81425341796875,0.24822998046875,0.3322296142578125,-1.2002410888671875
1663860968957110800,11.82411083984375,0.2088165283203125,-0.1002655029296875,-1.181060791015625
1663860968966998300,11.833998291015625,0.23651123046875,-0.04913330078125,-1.1970367431640625
1663860968976916500,11.84391650390625,0.33770751953125,0.069122314453125,-1.035125732421875
1663860968986804200,11.85380419921875,0.3100128173828125,-0.5572662353515625,-0.839111328125
1663860968996692000,11.86369189453125,0.29510498046875,-0.68402099609375,-0.8582916259765625
1663860969006579700,11.873579833984374,0.4144134521484375,-0.252593994140625,-0.8433685302734375
1663860969016467500,11.883467529296874,0.34942626953125,-0.572174072265625,-0.839111328125
1663860969026355000,11.89335498046875,0.256744384765625,-0.6328887939453125,-1.07666015625
1663860969036242700,11.90324267578125,0.3313140869140625,-0.24407958984375,-1.30462646484375
1663860969046130400,11.91313037109375,0.2397003173828125,-0.8853607177734375,-1.443115234375
1663860969056018200,11.92301806640625,0.2098846435546875,-1.105865478515625,-1.6519012451171875
1663860969065875200,11.932875244140625,0.3441009521484375,-0.1237030029296875,-1.749908447265625
1663860969075763000,11.942762939453125,0.2109527587890625,-0.0874786376953125,-1.6401824951171875
1663860969085620200,11.9526201171875,0.0458221435546875,-0.5902862548828125,-1.693450927734375
1663860969095508000,11.962508056640624,0.075653076171875,-0.421966552734375,-1.9033050537109375
1663860969105395700,11.972395751953124,0.078857421875,-0.2920074462890625,-2.015167236328125
1663860969115283200,11.982283203125,0.10015869140625,-0.3612518310546875,-2.0876007080078125
1663860969125140500,11.992140380859375,0.225860595703125,-0.3495330810546875,-2.1547088623046875
1663860969135058700,12.00205859375,0.43145751953125,-0.3846893310546875,-2.2005157470703125
1663860969144946400,12.011946533203124,0.705230712890625,-0.7149200439453125,-2.307037353515625
1663860969154834200,12.021834228515624,0.89910888671875,-1.041961669921875,-2.47003173828125
1663860969164691200,12.031691162109375,1.01202392578125,-1.1005401611328125,-2.5382080078125
1663860969174579000,12.041578857421875,1.1004486083984375,-0.9993438720703125,-2.4774932861328125
1663860969184466700,12.051466796875,1.043975830078125,-0.675506591796875,-2.31982421875
1663860969194354400,12.0613544921875,0.98858642578125,-0.5977325439453125,-2.27508544921875
1663860969204242000,12.071241943359375,0.8575592041015625,-1.07391357421875,-2.5030517578125
1663860969214129700,12.081129638671875,0.6530303955078125,-0.9407501220703125,-2.6085205078125
1663860969223987000,12.090987060546874,0.7116241455078125,-0.6339569091796875,-2.595733642578125
1663860969233874700,12.100874755859374,0.7893829345703125,-0.957794189453125,-2.706512451171875
1663860969243762200,12.11076220703125,0.7073516845703125,-0.857666015625,-2.683074951171875
1663860969253619500,12.120619384765625,0.6743316650390625,-0.4858856201171875,-2.6457977294921875
1663860969263507200,12.130507080078125,0.7126922607421875,-0.4550018310546875,-2.7267608642578125
1663860969273425400,12.14042529296875,0.724395751953125,-0.5221099853515625,-2.7523193359375
1663860969283282400,12.150282470703125,0.7116241455078125,-0.2962646484375,-2.71929931640625
1663860969293200600,12.16020068359375,0.7190704345703125,-0.02569580078125,-2.57122802734375
1663860969303058000,12.170057861328125,0.740386962890625,-0.0864105224609375,-2.435943603515625
1663860969312945700,12.179945556640625,0.718017578125,-0.0395355224609375,-2.353912353515625
1663860969322802700,12.189802734375,0.77447509765625,0.182037353515625,-2.2697601318359375
1663860969332721200,12.19972119140625,0.7446441650390625,0.0286407470703125,-2.2793426513671875
1663860969342608600,12.209608642578125,0.4676666259765625,-0.07257080078125,-2.205841064453125
1663860969352496400,12.219496337890625,0.2865753173828125,0.0371551513671875,-1.966156005859375
1663860969362384100,12.229384033203125,0.1981658935546875,-0.0331573486328125,-1.705169677734375
1663860969372241400,12.239241455078124,0.145965576171875,-0.0757598876953125,-1.5720062255859375
1663860969382098400,12.249098388671875,0.1097412109375,-0.1002655029296875,-1.56561279296875
1663860969391986200,12.258986083984375,-0.0628204345703125,-0.1109161376953125,-1.4963836669921875
1663860969401874000,12.2688740234375,-0.1927947998046875,-0.0075836181640625,-1.2364501953125
1663860969411792100,12.278792236328124,-0.0788116455078125,0.1841583251953125,-1.0606842041015625
1663860969421649200,12.288649169921875,0.055419921875,0.440887451171875,-1.04150390625
1663860969431567400,12.2985673828125,0.1033477783203125,0.5186614990234375,-0.780517578125
1663860969441455000,12.308455078125,0.0128021240234375,0.48883056640625,-0.3405609130859375
1663860969451342800,12.3183427734375,-0.11822509765625,0.5804443359375,-0.0635986328125
1663860969461200100,12.3282001953125,-0.1160888671875,0.7231903076171875,0.29327392578125
1663860969471057200,12.33805712890625,-0.085205078125,0.680572509765625,0.644805908203125
1663860969480945000,12.34794482421875,-0.2258148193359375,0.3556671142578125,0.6511993408203125
1663860969490863000,12.357863037109375,-0.5656280517578125,0.111724853515625,0.8450775146484375
1663860969500750800,12.367750732421875,-0.6338043212890625,0.4728546142578125,1.406463623046875
1663860969510608000,12.37760791015625,-0.3525848388671875,0.659271240234375,1.601409912109375
1663860969520465200,12.387465087890625,-0.279083251953125,0.3812408447265625,1.4703826904296875
1663860969530383400,12.39738330078125,-0.4069061279296875,0.1862945556640625,1.7558746337890625
1663860969540271000,12.40727099609375,-0.570953369140625,0.397216796875,2.1521453857421875
1663860969550128000,12.417128173828125,-0.6018524169921875,0.7104034423828125,2.1787872314453125
1663860969560046600,12.427046630859374,-0.4868011474609375,0.452606201171875,2.242706298828125
1663860969569903600,12.436903564453125,-0.6114349365234375,0.123443603515625,2.442962646484375
1663860969579791400,12.446791259765625,-0.79998779296875,0.39935302734375,2.571868896484375
1663860969589679000,12.45667919921875,-0.73394775390625,0.444091796875,2.809417724609375
1663860969599566800,12.46656689453125,-0.7136993408203125,0.3450164794921875,3.1258087158203125
1663860969609424000,12.476423828125,-0.746734619140625,0.54315185546875,3.17694091796875
1663860969619342000,12.486342041015625,-0.688140869140625,0.41851806640625,3.0235443115234375
1663860969629229800,12.496229736328125,-0.7605743408203125,0.1862945556640625,3.1247406005859375
1663860969639117600,12.50611767578125,-0.814910888671875,0.4717864990234375,3.2600250244140625
1663860969649005300,12.51600537109375,-0.7978668212890625,0.7199859619140625,3.187591552734375
1663860969658892800,12.525892822265625,-0.7477874755859375,0.67205810546875,3.23126220703125
1663860969668750000,12.53575,-0.595458984375,0.42279052734375,3.2973175048828125
1663860969678607400,12.545607421875,-0.4782867431640625,0.0861663818359375,3.2014312744140625
1663860969688525600,12.555525634765624,-0.516632080078125,-0.0896148681640625,3.166290283203125
1663860969698382600,12.565382568359375,-0.617828369140625,0.06805419921875,3.2632293701171875
1663860969708300800,12.57530078125,-0.65191650390625,0.432373046875,3.2248687744140625
1663860969718188500,12.5851884765625,-0.563507080078125,0.6507568359375,2.936187744140625
1663860969728076300,12.595076171875,-0.458038330078125,0.3918914794921875,2.6230010986328125
1663860969737964000,12.604964111328124,-0.43353271484375,-0.00439453125,2.50048828125
1663860969747851500,12.6148515625,-0.4995880126953125,-0.1428680419921875,2.57293701171875
1663860969757739300,12.6247392578125,-0.5666961669921875,0.031829833984375,2.7007598876953125
1663860969767627000,12.634626953125,-0.3887939453125,0.4984130859375,2.6783905029296875
1663860969777514800,12.6445146484375,-0.085205078125,0.546356201171875,2.5047607421875
1663860969787402500,12.654402587890624,0.148101806640625,0.1287689208984375,2.294891357421875
1663860969797259500,12.664259521484375,0.376068115234375,0.3673858642578125,2.14044189453125
1663860969807147300,12.674147216796875,0.416534423828125,0.532501220703125,2.0307159423828125
1663860969817035000,12.684034912109375,0.31427001953125,0.408935546875,1.8474884033203125
1663860969826922800,12.6939228515625,0.3313140869140625,0.490966796875,1.603546142578125
1663860969836810500,12.703810546875,0.336639404296875,0.2992095947265625,1.4011383056640625
1663860969846698000,12.713697998046875,0.3515625,0.5740509033203125,1.136962890625
1663860969856585700,12.723585693359375,0.362213134765625,0.945831298828125,0.915374755859375
1663860969866443000,12.733443115234374,0.1960296630859375,0.18310546875,0.7353515625
1663860969876330800,12.743330810546874,0.17047119140625,0.08935546875,0.405120849609375
1663860969886187800,12.753187744140625,0.2993621826171875,0.775390625,0.2282867431640625
1663860969896075500,12.763075439453125,0.2652740478515625,0.6507568359375,0.1590423583984375
1663860969905932800,12.772932861328124,0.190704345703125,0.37591552734375,-0.1051483154296875
1663860969915851000,12.78285107421875,0.178985595703125,0.22784423828125,-0.360809326171875
1663860969925738500,12.792738525390625,0.1193389892578125,-0.0203704833984375,-0.5248565673828125
1663860969935626200,12.802626220703125,0.1406402587890625,0.4803009033203125,-0.654815673828125
1663860969945483500,12.8124833984375,0.212005615234375,0.6858978271484375,-0.6367034912109375
1663860969955371300,12.822371337890624,0.1150665283203125,0.1383514404296875,-0.631378173828125
1663860969965228300,12.832228271484375,-0.014892578125,-0.148193359375,-0.7091522216796875
1663860969975146500,12.842146484375,-0.082000732421875,-0.515716552734375,-0.7624053955078125
1663860969985003800,12.852003662109375,-0.1469879150390625,-0.799072265625,-0.82525634765625
1663860969994891500,12.8618916015625,-0.03619384765625,-0.3058624267578125,-0.871063232421875
1663860970004748500,12.87174853515625,0.066070556640625,-0.3282318115234375,-0.7858428955078125
1663860970014636300,12.88163623046875,-0.1214141845703125,-0.8374176025390625,-0.8668060302734375
1663860970024524000,12.89152392578125,-0.194915771484375,-0.5498046875,-1.1203460693359375
1663860970034411800,12.901411865234374,-0.117156982421875,-0.494415283203125,-1.2407073974609375
1663860970044299500,12.911299560546874,-0.1320648193359375,-0.720245361328125,-1.337646484375
1663860970054217700,12.9212177734375,-0.1001129150390625,-0.4017333984375,-1.3813323974609375
1663860970064074800,12.93107470703125,-0.159759521484375,-0.07257080078125,-1.28546142578125
1663860970073932000,12.94093212890625,-0.323822021484375,-0.0853424072265625,-1.3365936279296875
1663860970083850200,12.950850341796874,-0.391998291015625,-0.1524658203125,-1.559234619140625
1663860970093707300,12.960707275390625,-0.32489013671875,-0.3782958984375,-1.787200927734375
1663860970103595000,12.970594970703125,-0.1363372802734375,-0.300537109375,-2.0045166015625
1663860970113513200,12.98051318359375,0.0383758544921875,-0.024627685546875,-2.106781005859375
1663860970123370500,12.99037060546875,0.1630096435546875,-0.4326171875,-2.17388916015625
1663860970133288700,13.000288818359374,0.3046875,-1.0323638916015625,-2.3965301513671875
1663860970143176400,13.010176513671874,0.4943084716796875,-1.0440826416015625,-2.5307464599609375
1663860970153064000,13.02006396484375,0.6764678955078125,-1.07177734375,-2.4402008056640625
1663860970162921200,13.029921142578125,0.7808685302734375,-1.1708526611328125,-2.37628173828125
