time,seconds_elapsed,z,y,x
1663860957363969800,0.2309697265625,0.3043975830078125,-0.9768829345703125,0.32342529296875
1663860957373857500,0.240857421875,0.16485595703125,-1.00457763671875,0.521575927734375
1663860957383745300,0.250745361328125,0.062591552734375,-1.130279541015625,0.64300537109375
1663860957393633000,0.260633056640625,0.0615234375,-1.0482635498046875,0.7090606689453125
1663860957403520800,0.270520751953125,0.1083984375,-1.0333404541015625,0.712249755859375
1663860957413408500,0.280408447265625,0.132904052734375,-0.869293212890625,0.6217041015625
1663860957423296000,0.2902958984375,0.05938720703125,-0.471954345703125,0.472564697265625
1663860957433183700,0.300183837890625,-0.064178466796875,-0.06182861328125,0.3394012451171875
1663860957443071500,0.310071533203125,-0.17816162109375,0.13311767578125,0.27655029296875
1663860957452959200,0.319959228515625,-0.2633819580078125,0.07666015625,0.314910888671875
1663860957462847000,0.329846923828125,-0.3198394775390625,-0.2343902587890625,0.451263427734375
1663860957472734500,0.339734375,-0.34967041015625,-0.7180328369140625,0.601470947265625
1663860957482591700,0.349591796875,-0.405059814453125,-1.20166015625,0.7069244384765625
1663860957492479500,0.3594794921875,-0.506256103515625,-1.506317138671875,0.747406005859375
1663860957502367200,0.3693671875,-0.5712432861328125,-1.509521484375,0.734619140625
1663860957512254700,0.379254638671875,-0.4785614013671875,-1.1739654541015625,0.644073486328125
1663860957522142500,0.389142578125,-0.1717681884765625,-0.6274871826171875,0.46405029296875
1663860957532030200,0.3990302734375,0.1350250244140625,-0.0671539306640625,0.1391448974609375
1663860957541918000,0.40891796875,0.276702880859375,0.17999267578125,-0.119720458984375
1663860957551805700,0.4188056640625,0.32464599609375,0.07666015625,-0.105865478515625
1663860957561662700,0.428662841796875,0.3054656982421875,-0.288726806640625,0.0794830322265625
1663860957571550500,0.438550537109375,0.1861572265625,-0.64239501953125,0.246734619140625
1663860957581407700,0.44840771484375,0.0668487548828125,-0.800048828125,0.3521881103515625
1663860957591264800,0.4582646484375,0.04766845703125,-0.664764404296875,0.4203643798828125
1663860957601183000,0.468182861328125,0.14141845703125,-0.380340576171875,0.439544677734375
1663860957611070700,0.47807080078125,0.2617950439453125,-0.1885833740234375,0.416107177734375
1663860957620958500,0.48795849609375,0.335296630859375,-0.1246795654296875,0.4075927734375
1663860957630846200,0.49784619140625,0.3779144287109375,-0.1470489501953125,0.4203643798828125
1663860957640734000,0.50773388671875,0.3779144287109375,-0.171539306640625,0.406524658203125
1663860957650621400,0.517621337890625,0.31292724609375,-0.1321258544921875,0.3213043212890625
1663860957660509200,0.52750927734375,0.2181243896484375,-0.0224151611328125,0.1828155517578125
1663860957670397000,0.53739697265625,0.1488800048828125,0.1405792236328125,0.030487060546875
1663860957680284700,0.54728466796875,0.1360931396484375,0.2087554931640625,-0.1143951416015625
1663860957690172400,0.55717236328125,0.1627197265625,0.124603271484375,-0.1953582763671875
1663860957700029400,0.567029541015625,0.2245025634765625,-0.0362548828125,-0.1729888916015625
1663860957709917200,0.576917236328125,0.2841644287109375,-0.206695556640625,-0.049407958984375
1663860957719805000,0.586804931640625,0.3193206787109375,-0.3611602783203125,0.1508636474609375
1663860957729692700,0.596692626953125,0.3161163330078125,-0.483673095703125,0.32342529296875
1663860957739580200,0.606580078125,0.290557861328125,-0.528411865234375,0.369232177734375
1663860957749468000,0.616468017578125,0.278839111328125,-0.4623565673828125,0.2829437255859375
1663860957759355600,0.626355712890625,0.3086700439453125,-0.343048095703125,0.1274261474609375
1663860957769213000,0.636212890625,0.360870361328125,-0.21734619140625,-0.030242919921875
1663860957779100400,0.646100341796875,0.36724853515625,-0.06927490234375,-0.1623382568359375
1663860957788988200,0.65598828125,0.3416900634765625,-0.0000457763671875,-0.2496795654296875
1663860957798876000,0.6658759765625,0.28948974609375,-0.0458526611328125,-0.29229736328125
1663860957808763600,0.675763671875,0.2277069091796875,-0.1204071044921875,-0.2635345458984375
1663860957818651400,0.6856513671875,0.210662841796875,-0.1566314697265625,-0.1282501220703125
1663860957828508400,0.69550830078125,0.2255706787109375,-0.16302490234375,0.0368804931640625
1663860957838396200,0.705396240234375,0.2479400634765625,-0.194976806640625,0.1380767822265625
1663860957848284000,0.715283935546875,0.287353515625,-0.255706787109375,0.164703369140625
1663860957858171600,0.725171630859375,0.322509765625,-0.290863037109375,0.1455230712890625
1663860957868028700,0.735028564453125,0.3278350830078125,-0.266357421875,0.1018524169921875
1663860957877886000,0.744885986328125,0.2830963134765625,-0.1917877197265625,0.016632080078125
1663860957887804200,0.75480419921875,0.220245361328125,-0.0778045654296875,-0.1005401611328125
1663860957897692000,0.76469189453125,0.1861572265625,0.0574798583984375,-0.2081451416015625
1663860957907579600,0.77457958984375,0.17657470703125,0.1192779541015625,-0.253936767578125
1663860957917467100,0.784467041015625,0.1914825439453125,0.0351104736328125,-0.197479248046875
1663860957927355000,0.79435498046875,0.2287750244140625,-0.1182861328125,-0.0483551025390625
1663860957937242600,0.80424267578125,0.2628631591796875,-0.24078369140625,0.1157073974609375
1663860957947130400,0.81413037109375,0.2713775634765625,-0.2684783935546875,0.2083740234375
1663860957956987400,0.8239873046875,0.243682861328125,-0.1939239501953125,0.186004638671875
1663860957966875100,0.833875244140625,0.2287750244140625,-0.0799407958984375,0.0581817626953125
1663860957976732400,0.843732421875,0.2255706787109375,0.0468292236328125,-0.10906982421875
1663860957986620200,0.8536201171875,0.21173095703125,0.112884521484375,-0.2432861328125
1663860957996466400,0.863466552734375,0.1861572265625,0.0724029541015625,-0.3285064697265625
1663860958006384600,0.873384521484375,0.1446075439453125,-0.002166748046875,-0.359405517578125
1663860958016242000,0.883241943359375,0.130767822265625,-0.039459228515625,-0.2826995849609375
1663860958026129700,0.893129638671875,0.142486572265625,0.007415771484375,-0.1048126220703125
1663860958036017400,0.903017333984375,0.1829681396484375,0.096893310546875,0.0794830322265625
1663860958045905000,0.91290478515625,0.2511444091796875,0.0276641845703125,0.15191650390625
1663860958055792600,0.922792724609375,0.255401611328125,0.0042266845703125,0.177490234375
1663860958065650000,0.93264990234375,0.2245025634765625,0.0596160888671875,0.1923980712890625
1663860958075568000,0.942568115234375,0.2447509765625,0.063873291015625,0.178558349609375
1663860958085456000,0.952455810546875,0.287353515625,0.0340423583984375,0.14447021484375
1663860958095343400,0.96234326171875,0.31292724609375,-0.023468017578125,0.1274261474609375
1663860958105231000,0.972231201171875,0.300140380859375,-0.0671539306640625,0.12847900390625
1663860958115118800,0.982118896484375,0.2607269287109375,-0.0671539306640625,0.098663330078125
1663860958124976000,0.99197607421875,0.23089599609375,-0.0415802001953125,0.0336761474609375
1663860958134863600,1.001863525390625,0.2383575439453125,0.0127410888671875,-0.0206451416015625
1663860958144751400,1.01175146484375,0.2713775634765625,0.0489654541015625,-0.0355682373046875
1663860958154639000,1.02163916015625,0.290557861328125,0.0223388671875,-0.0099945068359375
1663860958164526800,1.03152685546875,0.276702880859375,-0.0682220458984375,0.0358123779296875
1663860958174414600,1.04141455078125,0.241546630859375,-0.173675537109375,0.0677642822265625
1663860958184302000,1.051302001953125,0.2064056396484375,-0.2354583740234375,0.0794830322265625
1663860958194189800,1.06118994140625,0.185089111328125,-0.196044921875,0.0240936279296875
1663860958204077600,1.07107763671875,0.1925506591796875,-0.0884552001953125,-0.072845458984375
1663860958213934800,1.080934814453125,0.210662841796875,0.028717041015625,-0.129302978515625
1663860958223822600,1.090822509765625,0.222381591796875,0.10009765625,-0.145294189453125
1663860958233710000,1.1007099609375,0.2330322265625,0.09796142578125,-0.13037109375
1663860958243597800,1.110597900390625,0.2447509765625,0.03192138671875,-0.0930938720703125
1663860958253485600,1.120485595703125,0.24688720703125,-0.0362548828125,-0.051544189453125
1663860958263342800,1.1303427734375,0.2511444091796875,-0.0543670654296875,-0.0217132568359375
1663860958273199900,1.140199951171875,0.2617950439453125,-0.0405120849609375,-0.01531982421875
1663860958283118000,1.1501181640625,0.275634765625,0.0042266845703125,-0.0099945068359375
1663860958293005800,1.160005859375,0.2958831787109375,0.044708251953125,-0.0004119873046875
1663860958302893600,1.1698935546875,0.3054656982421875,0.040435791015625,-0.0110626220703125
1663860958312781300,1.17978125,0.313995361328125,0.0138092041015625,-0.0217132568359375
1663860958322668800,1.189668701171875,0.3161163330078125,-0.0085601806640625,-0.01531982421875
1663860958332556500,1.199556640625,0.302276611328125,-0.0298614501953125,-0.00787353515625
1663860958342444300,1.2094443359375,0.2799072265625,-0.0341339111328125,0.0336761474609375
1663860958352332000,1.21933203125,0.278839111328125,-0.049041748046875,0.095458984375
1663860958362219800,1.2292197265625,0.3065338134765625,-0.1544952392578125,0.15618896484375
1663860958372107300,1.239107177734375,0.3970794677734375,-0.4857940673828125,0.2275543212890625
1663860958381964500,1.248964599609375,0.520660400390625,-0.883148193359375,0.2744293212890625
1663860958391852300,1.258852294921875,0.6484832763671875,-1.327362060546875,0.2861480712890625
1663860958401740000,1.268739990234375,0.793365478515625,-1.874908447265625,0.2499237060546875
1663860958411627500,1.27862744140625,1.030914306640625,-2.467193603515625,0.1252899169921875
1663860958421515300,1.288515380859375,1.291900634765625,-3.11700439453125,-0.0579376220703125
1663860958431403000,1.298403076171875,1.4815216064453125,-3.595306396484375,-0.244354248046875
1663860958441290800,1.308290771484375,1.61041259765625,-3.376922607421875,-0.3871002197265625
1663860958451148000,1.31814794921875,1.600830078125,-2.2882232666015625,-0.5128021240234375
1663860958461035500,1.328035400390625,1.3206634521484375,-1.5798187255859375,-0.6566162109375
1663860958470923300,1.33792333984375,0.8434295654296875,-1.64373779296875,-0.8355712890625
1663860958480780500,1.347780517578125,0.7496795654296875,-2.2647857666015625,-0.803619384765625
1663860958490637600,1.357637451171875,1.270599365234375,-3.435516357421875,-0.1847076416015625
1663860958500525300,1.367525390625,1.79791259765625,-4.4432525634765625,0.711181640625
1663860958510382600,1.377382568359375,1.99072265625,-5.4371490478515625,1.5154571533203125
1663860958520300800,1.38730078125,2.0077667236328125,-6.3522186279296875,2.136505126953125
1663860958530188500,1.3971884765625,1.832000732421875,-6.603607177734375,2.67340087890625
1663860958540076000,1.407075927734375,1.5060272216796875,-6.699493408203125,3.22308349609375
1663860958549963800,1.4169638671875,1.566741943359375,-7.1522216796875,3.6609039306640625
1663860958559821000,1.426821044921875,2.08978271484375,-8.033203125,4.0049896240234375
1663860958569739300,1.4367392578125,2.58087158203125,-9.018569946289062,4.3810272216796875
1663860958579596300,1.44659619140625,2.7949981689453125,-9.376495361328125,4.7442779541015625
1663860958589484000,1.456484130859375,2.914306640625,-8.988739013671875,4.9722442626953125
1663860958599341300,1.46634130859375,3.16143798828125,-8.4071044921875,5.0851593017578125
1663860958609259500,1.476259521484375,3.6120452880859375,-7.666748046875,5.0041961669921875
1663860958619147300,1.486147216796875,4.2639923095703125,-6.8305206298828125,4.806060791015625
1663860958629034800,1.49603466796875,5.0533599853515625,-6.095489501953125,4.5727691650390625
1663860958638922500,1.505922607421875,5.8693389892578125,-5.531951904296875,4.3927459716796875
1663860958648810200,1.515810302734375,6.503173828125,-5.125030517578125,4.3575897216796875
1663860958658698000,1.525697998046875,6.7513885498046875,-4.7979888916015625,4.4001922607421875
1663860958668585700,1.535585693359375,6.595855712890625,-4.3782806396484375,4.3810272216796875
1663860958678473200,1.54547314453125,6.2507171630859375,-3.73486328125,4.2052459716796875
1663860958688330500,1.55533056640625,5.958831787109375,-2.6749114990234375,3.871826171875
1663860958698187800,1.565187744140625,5.864013671875,-1.325225830078125,3.37115478515625
1663860958708075500,1.575075439453125,5.94818115234375,0.0265960693359375,2.7809906005859375
1663860958717963000,1.584962890625,6.0781402587890625,0.9342041015625,2.2377166748046875
1663860958727820300,1.5948203125,6.04937744140625,1.1451263427734375,1.8499603271484375
1663860958737708000,1.6047080078125,5.7894439697265625,0.8234100341796875,1.70294189453125
1663860958747626200,1.614626220703125,5.350555419921875,0.432464599609375,1.8158721923828125
1663860958757514000,1.624513916015625,4.882904052734375,0.338714599609375,1.9628753662109375
1663860958767401500,1.6344013671875,4.511138916015625,0.510223388671875,2.0555419921875
1663860958777289200,1.644289306640625,4.2394866943359375,0.796783447265625,2.1791229248046875
1663860958787177000,1.654177001953125,3.959320068359375,1.0183563232421875,2.3026885986328125
1663860958797064700,1.664064697265625,3.6344146728515625,1.0865325927734375,2.4188079833984375
1663860958806952400,1.673952392578125,3.2296142578125,1.0716094970703125,2.5093536376953125
1663860958816840000,1.68383984375,2.6575775146484375,1.21649169921875,2.4038848876953125
1663860958826727700,1.693727783203125,1.9235992431640625,1.4369964599609375,2.01080322265625
1663860958836615400,1.703615478515625,1.0394439697265625,1.650054931640625,1.4398193359375
1663860958846503200,1.713503173828125,0.267120361328125,1.7874755859375,1.0605926513671875
1663860958856360200,1.723360107421875,-0.4551239013671875,1.8130340576171875,0.836883544921875
1663860958866248000,1.733248046875,-1.17205810546875,1.7693634033203125,0.5940093994140625
1663860958876105200,1.743105224609375,-1.7249298095703125,1.80133056640625,0.3969268798828125
1663860958885993000,1.752992919921875,-2.0434417724609375,2.1347503662109375,0.0528564453125
1663860958895850000,1.76285009765625,-2.1925811767578125,2.51611328125,-0.3178558349609375
1663860958905768200,1.772768310546875,-2.3662109375,2.460723876953125,-0.64703369140625
1663860958915625500,1.78262548828125,-2.5004425048828125,2.05059814453125,-1.0358428955078125
1663860958925513200,1.79251318359375,-2.49298095703125,1.6117095947265625,-1.349029541015625
1663860958935370200,1.802370361328125,-2.3971099853515625,1.32196044921875,-1.57806396484375
1663860958945288400,1.812288330078125,-2.299102783203125,1.207977294921875,-1.6558380126953125
1663860958955176200,1.82217626953125,-2.148895263671875,1.093994140625,-1.567413330078125
1663860958965064000,1.83206396484375,-1.8836517333984375,0.7648162841796875,-1.3330535888671875
1663860958974951700,1.84195166015625,-1.4010772705078125,0.178924560546875,-0.9325103759765625
1663860958984839400,1.85183935546875,-1.137969970703125,-0.5135040283203125,-0.543701171875
1663860958994727000,1.861726806640625,-0.863128662109375,-1.026947021484375,-0.2155914306640625
1663860959004614700,1.87161474609375,-0.7896270751953125,-1.0557098388671875,-0.187896728515625
1663860959014502400,1.88150244140625,-0.9930877685546875,-0.801116943359375,-0.6257171630859375
1663860959024390100,1.89139013671875,-0.9866943359375,-0.184326171875,-0.8760528564453125
1663860959034247200,1.9012470703125,-0.7523345947265625,0.2833251953125,-0.9325103759765625
1663860959044135000,1.911135009765625,-0.712921142578125,0.009552001953125,-0.5117340087890625
1663860959054022700,1.921022705078125,-0.7779083251953125,-0.643463134765625,0.314910888671875
1663860959063910400,1.930910400390625,-0.7416839599609375,-1.122833251953125,1.353546142578125
1663860959073798100,1.940798095703125,-0.7054595947265625,-1.41790771484375,1.8361053466796875
1663860959083685600,1.950685546875,-0.6415557861328125,-1.325225830078125,1.6507415771484375
1663860959093573400,1.960573486328125,-0.6063995361328125,-0.947052001953125,1.3567352294921875
1663860959103461000,1.970461181640625,-0.4018707275390625,-0.8320159912109375,1.38763427734375
1663860959113348900,1.980348876953125,-0.2868194580078125,-1.02801513671875,1.3588714599609375
1663860959123236600,1.990236572265625,-0.454071044921875,-1.3614501953125,1.4707183837890625
1663860959133093600,2.00009375,-0.50946044921875,-1.3550567626953125,1.7093353271484375
1663860959142951000,2.009950927734375,-0.3177032470703125,-1.1941986083984375,1.8126678466796875
1663860959152838700,2.019838623046875,-0.1387481689453125,-1.31671142578125,1.9607391357421875
1663860959162726400,2.029726318359375,-0.0332794189453125,-1.5148468017578125,2.1428985595703125
1663860959172614000,2.03961376953125,0.1499481201171875,-1.621368408203125,2.1226654052734375
1663860959182471200,2.04947119140625,0.3161163330078125,-1.5031280517578125,1.9362335205078125
1663860959192389400,2.059389404296875,0.4876251220703125,-1.3752899169921875,1.69122314453125
1663860959202277000,2.069277099609375,0.7763214111328125,-1.2645111083984375,1.4025421142578125
1663860959212164900,2.079164794921875,1.20135498046875,-1.0493316650390625,1.0115966796875
1663860959222052400,2.08905224609375,1.7638092041015625,-0.7723541259765625,0.493865966796875
1663860959231940000,2.098940185546875,2.3880615234375,-0.40057373046875,-0.08349609375
1663860959241797400,2.10879736328125,2.776885986328125,0.02978515625,-0.6257171630859375
1663860959251685000,2.11868505859375,2.5830078125,0.4739990234375,-0.8227996826171875
1663860959261572600,2.128572509765625,1.718017578125,1.0077056884765625,-0.3871002197265625
1663860959271460400,2.13846044921875,1.15447998046875,1.7597808837890625,0.0816192626953125
1663860959281317600,2.148317626953125,1.099090576171875,2.3755035400390625,0.1508636474609375
1663860959291205400,2.158205322265625,1.1534271240234375,1.8226318359375,-0.0014801025390625
1663860959301092900,2.1680927734375,1.0852508544921875,0.86175537109375,-0.2646026611328125
1663860959310980600,2.177980712890625,1.0692596435546875,0.900115966796875,-0.425445556640625
1663860959320868400,2.187868408203125,1.044769287109375,0.9810638427734375,-0.3636627197265625
1663860959330756000,2.197756103515625,0.926513671875,0.64764404296875,-0.3530120849609375
1663860959340643800,2.207643798828125,0.7081451416015625,0.51129150390625,-0.4467620849609375
1663860959350531300,2.21753125,0.401336669921875,0.7669525146484375,-0.5010833740234375
1663860959360388600,2.227388671875,0.16485595703125,1.3720245361328125,-0.528778076171875
1663860959370276400,2.2372763671875,0.2032012939453125,2.0527191162109375,-0.3562164306640625
1663860959380164000,2.2471640625,0.6932220458984375,2.164581298828125,-0.028106689453125
1663860959390021000,2.257021240234375,1.2333221435546875,2.02716064453125,0.58868408203125
1663860959399939300,2.266939208984375,1.9022979736328125,2.02716064453125,0.804931640625
1663860959409796600,2.276796630859375,3.31378173828125,-0.46875,-0.4915008544921875
1663860959419684400,2.286684326171875,4.58782958984375,-3.2789306640625,-1.5759429931640625
1663860959429572000,2.296572021484375,4.7337799072265625,-3.903167724609375,-0.449951171875
1663860959439459600,2.30645947265625,3.517242431640625,-2.077301025390625,0.9902801513671875
1663860959449316900,2.31631689453125,2.4764862060546875,-0.3515777587890625,0.8592529296875
1663860959459204600,2.32620458984375,2.638397216796875,-0.2738189697265625,0.3106536865234375
1663860959469092400,2.33609228515625,1.4026947021484375,-0.2727508544921875,0.2904052734375
1663860959478979800,2.345979736328125,-0.0141143798828125,0.444183349609375,0.166839599609375
1663860959488837000,2.355837158203125,0.1371612548828125,0.1075592041015625,-0.037689208984375
1663860959498755300,2.36575537109375,0.2255706787109375,-0.035186767578125,0.0794830322265625
1663860959508643000,2.37564306640625,-0.042877197265625,0.21087646484375,-0.074981689453125
1663860959518530800,2.38553076171875,-0.153656005859375,0.829803466796875,-0.4307708740234375
1663860959528418300,2.395418212890625,-0.2154388427734375,1.10357666015625,-0.542633056640625
1663860959538306000,2.40530615234375,-0.281494140625,0.9246063232421875,-0.4574127197265625
1663860959548193800,2.41519384765625,-0.6159820556640625,0.4037017822265625,-0.31573486328125
1663860959558081500,2.42508154296875,-0.8652496337890625,-0.039459228515625,-0.4915008544921875
1663860959567969300,2.43496923828125,-0.4881591796875,0.6636199951171875,-0.8430328369140625
1663860959577826300,2.444826416015625,-0.031158447265625,1.2122344970703125,-0.916534423828125
1663860959587683600,2.45468359375,-0.04180908203125,0.658294677734375,-0.8994903564453125
1663860959597571300,2.4645712890625,-0.1099853515625,-0.187530517578125,-0.8217315673828125
1663860959607458800,2.474458740234375,0.140350341796875,-0.7276153564453125,-0.6821746826171875
1663860959617346600,2.4843466796875,0.471649169921875,-1.0226898193359375,-0.5586090087890625
1663860959627203800,2.494203857421875,0.5440826416015625,-1.1377410888671875,-0.4893646240234375
1663860959637091600,2.504091552734375,0.530242919921875,-1.191009521484375,-0.3540802001953125
1663860959646979300,2.513979248046875,0.5440826416015625,-1.3614501953125,-0.1708526611328125
1663860959656897500,2.5238974609375,0.5014801025390625,-1.61285400390625,-0.10693359375
1663860959666754600,2.533754638671875,0.4087982177734375,-1.6032562255859375,-0.0057373046875
1663860959676642300,2.543642333984375,0.3885650634765625,-1.3028564453125,0.2264862060546875
1663860959686530000,2.553530029296875,0.4546051025390625,-0.9918060302734375,0.4874725341796875
1663860959696417800,2.563417724609375,0.4641876220703125,-0.798980712890625,0.6493988037109375
1663860959706305300,2.57330517578125,0.3182525634765625,-0.516693115234375,0.6408843994140625
1663860959716162600,2.58316259765625,0.1829681396484375,-0.194976806640625,0.48321533203125
1663860959726080800,2.593080810546875,-0.0822906494140625,0.09796142578125,0.3415374755859375
1663860959735938000,2.60293798828125,-0.14300537109375,0.0148773193359375,0.004913330078125
1663860959745825500,2.612825439453125,-0.075897216796875,0.3238067626953125,-0.211334228515625
1663860959755713300,2.62271337890625,0.0785675048828125,0.623138427734375,-0.2422332763671875
1663860959765601000,2.63260107421875,0.22344970703125,0.3802642822265625,-0.2145233154296875
1663860959775488800,2.64248876953125,0.3150634765625,0.305694580078125,-0.0014801025390625
1663860959785376500,2.65237646484375,0.4226531982421875,0.451629638671875,0.2147674560546875
1663860959795233500,2.662233642578125,0.55047607421875,0.4921112060546875,0.3671112060546875
1663860959805151700,2.67215185546875,0.6239776611328125,0.2598876953125,0.498138427734375
1663860959815009000,2.682009033203125,0.6474151611328125,-0.3537139892578125,0.4672393798828125
1663860959824896800,2.691896728515625,0.767791748046875,-0.5656890869140625,0.39373779296875
1663860959834784300,2.7017841796875,0.97125244140625,-0.811767578125,0.5151824951171875
1663860959844672000,2.711672119140625,1.1172027587890625,-1.79608154296875,0.9412841796875
1663860959854559700,2.721559814453125,1.20135498046875,-2.04534912109375,1.0925445556640625
1663860959864447500,2.731447509765625,1.336639404296875,-1.214447021484375,0.8805694580078125
1663860959874335200,2.741335205078125,1.61468505859375,-0.3824615478515625,0.62384033203125
1663860959884192300,2.751192138671875,2.0514373779296875,-0.310028076171875,0.6387481689453125
1663860959894080000,2.761080078125,2.6021728515625,-0.2035064697265625,0.5950775146484375
1663860959903967700,2.7709677734375,3.223236083984375,-0.039459228515625,0.2499237060546875
1663860959913855500,2.78085546875,3.665313720703125,-0.3057708740234375,0.1380767822265625
1663860959923743200,2.7907431640625,4.4781036376953125,-1.3635711669921875,0.4235687255859375
1663860959933600300,2.800600341796875,5.0054168701171875,-2.387298583984375,0.5918731689453125
1663860959943518500,2.8105185546875,4.71673583984375,-2.970001220703125,0.3979949951171875
1663860959953406200,2.82040625,4.2299041748046875,-2.5513458251953125,-0.121856689453125
1663860959963294000,2.8302939453125,3.755859375,-0.6125640869140625,-0.6374359130859375
1663860959973181700,2.840181640625,3.2946014404296875,-0.0479736328125,-0.5490264892578125
1663860959983069200,2.850069091796875,2.8045806884765625,-0.859710693359375,-0.3167877197265625
1663860959992957000,2.85995703125,2.1856689453125,-1.38275146484375,-0.07391357421875
1663860960002844700,2.8698447265625,1.3451690673828125,-1.5169830322265625,0.0709686279296875
1663860960012732400,2.879732421875,0.528106689453125,-1.4125823974609375,0.143402099609375
1663860960022589400,2.88958935546875,0.0093231201171875,-1.1036529541015625,0.232879638671875
1663860960032477200,2.899477294921875,-0.1451416015625,-0.8170928955078125,0.324493408203125
1663860960042365000,2.909364990234375,-0.2410125732421875,-0.5561065673828125,0.213714599609375
1663860960052252700,2.919252685546875,-0.418914794921875,-0.3632965087890625,-0.08349609375
1663860960062140400,2.929140380859375,-0.5733795166015625,-0.4091033935546875,-0.4233245849609375
1663860960072028200,2.939028076171875,-0.53289794921875,-0.7638397216796875,-0.78338623046875
1663860960081915600,2.94891552734375,-0.3592529296875,-1.5159149169921875,-1.1753997802734375
1663860960091773000,2.95877294921875,-0.1217041015625,-2.330841064453125,-1.341583251953125
1663860960101660700,2.96866064453125,0.1499481201171875,-2.3265838623046875,-0.930389404296875
1663860960111548400,2.97854833984375,0.3171844482421875,-1.0887451171875,-0.185760498046875
1663860960121436000,2.988435791015625,0.2372894287109375,0.3568267822265625,0.1508636474609375
1663860960131323600,2.99832373046875,0.0466156005859375,0.4590911865234375,0.13275146484375
1663860960141211400,3.00821142578125,0.027435302734375,-0.1236114501953125,0.01983642578125
1663860960151099100,3.01809912109375,0.037017822265625,-0.526275634765625,-0.039825439453125
1663860960160956200,3.0279560546875,0.0348968505859375,-0.6136322021484375,-0.0291748046875
1663860960170844000,3.037843994140625,0.027435302734375,-0.5997772216796875,0.0315399169921875
1663860960180701200,3.047701171875,0.0263671875,-0.5113677978515625,0.0560455322265625
1663860960190589000,3.0575888671875,-0.0013275146484375,-0.4208221435546875,0.014495849609375
1663860960200476400,3.067476318359375,-0.03009033203125,-0.3441162109375,-0.074981689453125
1663860960210364200,3.0773642578125,-0.0205078125,-0.2834014892578125,-0.17724609375
1663860960220252000,3.087251953125,0.015716552734375,-0.2354583740234375,-0.253936767578125
1663860960230139600,3.0971396484375,0.0380859375,-0.1342620849609375,-0.2986907958984375
1663860960240027400,3.10702734375,0.0466156005859375,0.0702667236328125,-0.3530120849609375
1663860960249915000,3.116914794921875,0.1499481201171875,0.4452362060546875,-0.517059326171875
1663860960259802600,3.126802734375,1.1821746826171875,0.747772216796875,-0.6608734130859375
1663860960269690400,3.1366904296875,2.128143310546875,-0.7712860107421875,-0.09735107421875
1663860960279547600,3.146547607421875,2.3134918212890625,-2.2221832275390625,0.1838836669921875
1663860960289435100,3.15643505859375,2.66290283203125,-3.0072784423828125,0.073089599609375
1663860960299323000,3.166322998046875,2.708709716796875,-3.6475067138671875,-0.0930938720703125
1663860960309210600,3.176210693359375,2.6064453125,-3.9532318115234375,-0.223052978515625
1663860960319098400,3.186098388671875,2.607513427734375,-4.3931884765625,-0.1122589111328125
1663860960328986000,3.195986083984375,2.66290283203125,-4.6712188720703125,0.0208892822265625
1663860960338873900,3.205873779296875,2.5755462646484375,-4.166290283203125,0.030487060546875
1663860960348761300,3.21576123046875,2.333740234375,-3.58465576171875,-0.0110626220703125
1663860960358649000,3.225649169921875,1.91827392578125,-4.2397918701171875,-0.110137939453125
1663860960368506400,3.23550634765625,1.3771209716796875,-5.1740264892578125,-0.1005401611328125
1663860960378394000,3.24539404296875,0.8253173828125,-5.440338134765625,0.0890655517578125
1663860960388281600,3.255281494140625,0.3395538330078125,-4.748992919921875,0.209442138671875
1663860960398169300,3.26516943359375,-0.14300537109375,-3.19903564453125,0.3372802734375
1663860960408057000,3.27505712890625,-1.18377685546875,-1.1739654541015625,0.371368408203125
1663860960417944800,3.28494482421875,-2.11907958984375,1.17388916015625,-0.053680419921875
1663860960427832600,3.29483251953125,-0.55633544921875,0.12139892578125,0.2435302734375
1663860960437689600,3.304689697265625,0.90521240234375,-1.553192138671875,0.223297119140625
1663860960447547000,3.314546875,0.826385498046875,-1.976104736328125,0.0017242431640625
1663860960457434600,3.3244345703125,0.3885650634765625,-1.3667755126953125,0.0177001953125
1663860960467322000,3.334322021484375,0.1861572265625,-0.5230865478515625,-0.0877685546875
1663860960477179400,3.344179443359375,-0.05352783203125,-0.013885498046875,-0.277374267578125
1663860960487067100,3.354067138671875,-0.2165069580078125,0.2598876953125,-0.4084014892578125
1663860960496955000,3.363954833984375,-0.0236968994140625,0.16827392578125,-0.47125244140625
1663860960506842400,3.37384228515625,0.275634765625,-0.1257476806640625,-0.552215576171875
1663860960516730000,3.383730224609375,0.4791107177734375,-0.3270721435546875,-0.6278533935546875
1663860960526617900,3.393617919921875,0.5760498046875,-0.298309326171875,-0.7503509521484375
1663860960536505600,3.403505615234375,0.588836669921875,-0.0767364501953125,-0.9580841064453125
1663860960546362600,3.413362548828125,0.55474853515625,0.1427001953125,-1.1317291259765625
1663860960556250400,3.42325048828125,0.5025482177734375,0.3014373779296875,-1.2020263671875
1663860960566138000,3.43313818359375,0.4215850830078125,0.3877105712890625,-1.1508941650390625
1663860960576025900,3.44302587890625,0.3193206787109375,0.360015869140625,-0.986846923828125
1663860960585913600,3.45291357421875,0.2852325439453125,0.3419036865234375,-0.815338134765625
1663860960595770600,3.4627705078125,0.337432861328125,0.202362060546875,-0.6214599609375
1663860960605658400,3.472658447265625,0.3512725830078125,-0.0309295654296875,-0.3721923828125
1663860960615546000,3.482546142578125,0.2703094482421875,-0.0192108154296875,-0.1569976806640625
1663860960625433900,3.492433837890625,0.24261474609375,0.2662811279296875,-0.0291748046875
1663860960635321600,3.502321533203125,0.2607269287109375,0.603973388671875,-0.051544189453125
1663860960645209000,3.512208984375,0.2298431396484375,0.6657562255859375,-0.084564208984375
1663860960655096800,3.522096923828125,0.21917724609375,0.4377899169921875,0.05072021484375
1663860960664984600,3.531984619140625,0.255401611328125,0.393035888671875,0.162567138671875
1663860960674872300,3.541872314453125,0.2522125244140625,0.4803924560546875,0.1274261474609375
1663860960684729300,3.551729248046875,0.175506591796875,0.279052734375,0.2403411865234375
1663860960694617000,3.5616171875,0.1041412353515625,0.0223388671875,0.4310150146484375
1663860960704504800,3.5715048828125,0.1030731201171875,-0.3206787109375,0.6217041015625
1663860960714392600,3.581392578125,0.0700531005859375,-0.50390625,0.734619140625
1663860960724249600,3.59124951171875,-0.0087890625,-0.254638671875,0.58441162109375
1663860960734137300,3.601137451171875,0.0998687744140625,0.063873291015625,0.236083984375
1663860960744025000,3.611025146484375,0.3289031982421875,0.200225830078125,-0.119720458984375
1663860960753912800,3.620912841796875,0.4940185546875,0.1959686279296875,-0.3508758544921875
1663860960763800600,3.630800537109375,0.621856689453125,0.2630767822265625,-0.441436767578125
1663860960773688000,3.64068798828125,0.67938232421875,0.40582275390625,-0.4765777587890625
1663860960783575800,3.650575927734375,0.60906982421875,0.660430908203125,-0.5575408935546875
1663860960793463600,3.660463623046875,0.530242919921875,0.9128875732421875,-0.6619415283203125
1663860960803351300,3.670351318359375,0.530242919921875,1.0279388427734375,-0.7386322021484375
1663860960813239000,3.680239013671875,0.5355682373046875,0.988525390625,-0.7514190673828125
1663860960823096000,3.690095947265625,0.520660400390625,0.9033050537109375,-0.681121826171875
1663860960832983800,3.69998388671875,0.5792388916015625,0.8010406494140625,-0.5362396240234375
1663860960842871600,3.70987158203125,0.68896484375,0.6764068603515625,-0.3402252197265625
1663860960852759300,3.71975927734375,0.7859039306640625,0.5794677734375,-0.15167236328125
1663860960862616300,3.7296162109375,0.8317108154296875,0.4676055908203125,0.0315399169921875
1663860960872473600,3.7394736328125,0.814666748046875,0.284393310546875,0.25738525390625
1663860960882391800,3.749391845703125,0.82745361328125,0.1192779541015625,0.5439453125
1663860960892249000,3.7592490234375,0.8679351806640625,0.0116729736328125,0.828369140625
1663860960902167300,3.769167236328125,0.8679351806640625,-0.1459808349609375,1.029693603515625
1663860960912054800,3.7790546875,0.8178558349609375,-0.434661865234375,1.1191864013671875
1663860960921942500,3.788942626953125,0.756072998046875,-0.7510528564453125,1.0808258056640625
1663860960931830300,3.798830322265625,0.67724609375,-1.00457763671875,0.91571044921875
1663860960941718000,3.808718017578125,0.619720458984375,-1.1601104736328125,0.6291656494140625
1663860960951605800,3.818605712890625,0.6463470458984375,-1.3262939453125,0.2488555908203125
1663860960961462800,3.828462890625,0.7646026611328125,-1.49993896484375,-0.131439208984375
1663860960971350500,3.8383505859375,0.9201202392578125,-1.3763580322265625,-0.3306427001953125
1663860960981238300,3.84823828125,0.9925689697265625,-0.6338653564453125,-0.1942901611328125
1663860960991095300,3.85809521484375,1.0149383544921875,0.54217529296875,0.2520599365234375
1663860961000983000,3.867983154296875,1.0500946044921875,1.5637664794921875,0.8006744384765625
1663860961010870800,3.877870849609375,1.0841827392578125,1.8364715576171875,1.2629852294921875
1663860961020758500,3.887758544921875,1.1417083740234375,1.161102294921875,1.5410308837890625
1663860961030646300,3.897646240234375,1.2876434326171875,-0.023468017578125,1.5484771728515625
1663860961040534000,3.907533935546875,1.5166778564453125,-1.1388092041015625,1.35247802734375
1663860961050421500,3.91742138671875,1.6391754150390625,-1.693817138671875,1.1436767578125
1663860961060309200,3.927309326171875,1.625335693359375,-1.407257080078125,1.0392913818359375
1663860961070197000,3.937197021484375,1.611480712890625,-0.6913909912109375,1.04461669921875
1663860961080084700,3.947084716796875,1.59124755859375,-0.2003021240234375,1.1159820556640625
1663860961089941800,3.956941650390625,1.5358428955078125,-0.173675537109375,1.2075958251953125
1663860961099860000,3.96685986328125,1.500701904296875,-0.243988037109375,1.22784423828125
1663860961109747700,3.976747802734375,1.4932403564453125,-0.0788726806640625,1.123443603515625
1663860961119635500,3.986635498046875,1.5156097412109375,0.085174560546875,0.975372314453125
1663860961129523200,3.996523193359375,1.5720672607421875,-0.0224151611328125,0.8997344970703125
1663860961139380200,4.006380126953125,1.65728759765625,-0.2003021240234375,0.9444732666015625
1663860961149237500,4.016237548828125,1.76275634765625,-0.210968017578125,1.0467376708984375
1663860961159125200,4.026125244140625,1.874603271484375,-0.149169921875,1.0861663818359375
1663860961169043500,4.03604345703125,2.0152130126953125,-0.084197998046875,1.0233154296875
1663860961178931200,4.04593115234375,2.205902099609375,-0.0884552001953125,0.9114532470703125
1663860961188818700,4.055818603515625,2.36248779296875,-0.1481170654296875,0.77935791015625
1663860961198706400,4.06570654296875,2.4370574951171875,-0.0554351806640625,0.632354736328125
1663860961208594200,4.07559423828125,2.4594268798828125,0.1490936279296875,0.4587249755859375
1663860961218482000,4.08548193359375,2.431732177734375,0.2598876953125,0.29998779296875
1663860961228369700,4.09536962890625,2.379547119140625,0.2545623779296875,0.1923980712890625
1663860961238257200,4.105257080078125,2.3475799560546875,0.1544189453125,0.07415771484375
1663860961248145000,4.115144775390625,2.309234619140625,0.00634765625,-0.074981689453125
1663860961258032600,4.12503271484375,2.283660888671875,-0.0554351806640625,-0.2028045654296875
1663860961267901700,4.134901611328125,2.2655487060546875,-0.0319976806640625,-0.33917236328125
1663860961277759000,4.144759033203125,2.252777099609375,0.0340423583984375,-0.5010833740234375
1663860961287646500,4.154646484375,2.2431793212890625,0.099029541015625,-0.63531494140625
1663860961297534200,4.1645341796875,2.2027130126953125,0.085174560546875,-0.7759246826171875
1663860961307422000,4.174421875,2.203765869140625,0.0915679931640625,-0.9452972412109375
1663860961317279200,4.184279296875,2.217620849609375,0.1874542236328125,-1.090179443359375
1663860961327166700,4.194166748046875,2.2229461669921875,0.272674560546875,-1.22332763671875
1663860961337024000,4.20402392578125,2.21868896484375,0.3909149169921875,-1.3671417236328125
1663860961346942200,4.213942138671875,2.19525146484375,0.5027618408203125,-1.4726104736328125
1663860961356830000,4.223829833984375,2.1324005126953125,0.4590911865234375,-1.53546142578125
1663860961366717700,4.2337177734375,2.0162811279296875,0.37066650390625,-1.602569580078125
1663860961376605200,4.243605224609375,1.9235992431640625,0.3302001953125,-1.68353271484375
1663860961386432000,4.253431884765625,1.808563232421875,0.3419036865234375,-1.8156280517578125
1663860961396319700,4.26331982421875,1.62640380859375,0.4004974365234375,-1.9839324951171875
1663860961406207200,4.273207275390625,1.432525634765625,0.317413330078125,-2.1256103515625
1663860961416095000,4.283094970703125,1.2887115478515625,0.0478973388671875,-2.1650238037109375
1663860961425982700,4.292982666015625,1.2034912109375,-0.1534423828125,-2.2129669189453125
1663860961435870500,4.302870361328125,1.13531494140625,-0.187530517578125,-2.320556640625
1663860961445727700,4.312727783203125,1.033050537109375,-0.1449127197265625,-2.379150390625
1663860961455615200,4.322615234375,0.9116058349609375,-0.115081787109375,-2.4185638427734375
1663860961465503000,4.3325029296875,0.8338470458984375,-0.1417236328125,-2.514434814453125
1663860961475390700,4.342390625,0.7869720458984375,-0.1587677001953125,-2.6230926513671875
1663860961485309000,4.352308837890625,0.67510986328125,-0.027740478515625,-2.744537353515625
1663860961495196700,4.36219677734375,0.4769744873046875,0.1171417236328125,-2.8723602294921875
1663860961505053700,4.3720537109375,0.2585906982421875,0.1895751953125,-3.017242431640625
1663860961514941400,4.38194140625,0.041290283203125,0.1661376953125,-3.1450653076171875
1663860961524829200,4.3918291015625,-0.15472412109375,0.05108642578125,-3.243072509765625
1663860961534717000,4.401717041015625,-0.38055419921875,-0.0202789306640625,-3.39434814453125
1663860961544604700,4.411604736328125,-0.6319580078125,-0.0756683349609375,-3.5701141357421875
1663860961554492200,4.4214921875,-0.86419677734375,-0.0788726806640625,-3.7394866943359375
1663860961564349400,4.431349365234375,-1.0825653076171875,-0.0565032958984375,-3.8651885986328125
1663860961574237200,4.4412373046875,-1.293487548828125,-0.0671539306640625,-3.919525146484375
1663860961584125000,4.451125,-1.477783203125,-0.0479736328125,-3.917388916015625
1663860961594012400,4.461012451171875,-1.6428985595703125,-0.0074920654296875,-3.816192626953125
1663860961603900200,4.470900146484375,-1.8005523681640625,-0.107635498046875,-3.656402587890625
1663860961613757400,4.48075732421875,-1.946502685546875,-0.2621002197265625,-3.6297607421875
1663860961623645200,4.490645263671875,-2.061553955078125,-0.3526458740234375,-3.7235107421875
1663860961633532700,4.50053271484375,-2.1552886962890625,-0.343048095703125,-3.7735748291015625
1663860961643420400,4.51042041015625,-2.2298583984375,-0.152374267578125,-3.73736572265625
1663860961653338600,4.520338623046875,-2.2820587158203125,-0.0096282958984375,-3.610595703125
1663860961663196000,4.53019580078125,-2.299102783203125,-0.095916748046875,-3.49554443359375
1663860961673083600,4.540083740234375,-2.263946533203125,-0.265289306640625,-3.4902191162109375
1663860961682971400,4.549971435546875,-2.198974609375,-0.5337371826171875,-3.53070068359375
1663860961692828400,4.559828369140625,-2.14996337890625,-0.70843505859375,-3.6180419921875
1663860961702716200,4.569716064453125,-2.0988311767578125,-0.5582427978515625,-3.73309326171875
1663860961712634400,4.57963427734375,-2.034912109375,-0.310028076171875,-3.7416229248046875
1663860961722522000,4.589522216796875,-1.95928955078125,-0.2237396240234375,-3.675567626953125
1663860961732409900,4.599409912109375,-1.841033935546875,-0.302581787109375,-3.6627960205078125
1663860961742297300,4.60929736328125,-1.6759185791015625,-0.4421234130859375,-3.6947479248046875
1663860961752185000,4.61918505859375,-1.4703216552734375,-0.5102996826171875,-3.7117919921875
1663860961762072800,4.62907275390625,-1.2359619140625,-0.6019134521484375,-3.701141357421875
1663860961771960600,4.638960693359375,-0.9803009033203125,-0.7169647216796875,-3.7075347900390625
1663860961781848300,4.648848388671875,-0.7288970947265625,-0.7574462890625,-3.7277679443359375
1663860961791705300,4.658705322265625,-0.5382232666015625,-0.8085784912109375,-3.6808929443359375
1663860961801562600,4.668562744140625,-0.4253082275390625,-0.6615753173828125,-3.528564453125
1663860961811450400,4.678450439453125,-0.348602294921875,-0.540130615234375,-3.426300048828125
1663860961821337900,4.688337890625,-0.266571044921875,-0.471954345703125,-3.3453369140625
1663860961831195100,4.698195068359375,-0.1280975341796875,-0.446380615234375,-3.1919403076171875
1663860961841113300,4.70811328125,0.0316925048828125,-0.436798095703125,-2.972503662109375
1663860961851001000,4.7180009765625,0.1233062744140625,-0.2461090087890625,-2.6710357666015625
1663860961860888800,4.727888916015625,0.119049072265625,-0.0000457763671875,-2.2012481689453125
1663860961870745900,4.737745849609375,0.0327606201171875,0.040435791015625,-1.728271484375
1663860961880633600,4.747633544921875,-0.0716400146484375,-0.08526611328125,-1.5098876953125
1663860961890521300,4.757521240234375,-0.10040283203125,-0.2120208740234375,-1.508819580078125
1663860961900378600,4.767378662109375,-0.0098419189453125,-0.3409271240234375,-1.55462646484375
1663860961910296800,4.777296875,0.037017822265625,-0.4857940673828125,-1.50244140625
1663860961920184300,4.787184326171875,-0.0801544189453125,-0.631744384765625,-1.3479766845703125
1663860961930041600,4.79704150390625,-0.3102569580078125,-0.7137603759765625,-1.14556884765625
1663860961939959800,4.806959716796875,-0.57763671875,-0.676483154296875,-0.9239959716796875
1663860961949847600,4.81684765625,-0.816253662109375,-0.609375,-0.6843109130859375
1663860961959735300,4.8267353515625,-0.9568634033203125,-0.5923309326171875,-0.520263671875
1663860961969622800,4.836622802734375,-1.0165252685546875,-0.5220184326171875,-0.4797821044921875
1663860961979510500,4.846510498046875,-1.0985565185546875,-0.29937744140625,-0.425445556640625
1663860961989398300,4.856398193359375,-1.2434234619140625,0.0042266845703125,-0.2603302001953125
1663860961999286000,4.8662861328125,-1.3946990966796875,0.22686767578125,-0.049407958984375
1663860962009143000,4.87614306640625,-1.512939453125,0.3110198974609375,0.0901336669921875
1663860962019030800,4.88603076171875,-1.6077423095703125,0.2875823974609375,0.14447021484375
1663860962028918500,4.89591845703125,-1.7004241943359375,0.15655517578125,0.106109619140625
1663860962038806300,4.90580615234375,-1.7547454833984375,-0.0650177001953125,-0.025970458984375
1663860962048663300,4.915663330078125,-1.7675323486328125,-0.1811370849609375,-0.18682861328125
1663860962058551000,4.925551025390625,-1.7686004638671875,-0.208831787109375,-0.3178558349609375
1663860962068408300,4.935408203125,-1.763275146484375,-0.2738189697265625,-0.3966827392578125
1663860962078326500,4.945326416015625,-1.7227935791015625,-0.2823333740234375,-0.4563446044921875
1663860962088183600,4.95518359375,-1.5853729248046875,-0.251434326171875,-0.4552764892578125
1663860962098040800,4.965040771484375,-1.387237548828125,-0.4517059326171875,-0.3285064697265625
1663860962107959000,4.974958984375,-1.159271240234375,-0.6956634521484375,-0.1367645263671875
1663860962117846800,4.9848466796875,-0.931304931640625,-0.742523193359375,0.1263580322265625
1663860962127734500,4.994734619140625,-0.715057373046875,-0.4751434326171875,0.2648468017578125
1663860962137622300,5.004622314453125,-0.38482666015625,0.0351104736328125,0.0411376953125
1663860962147509800,5.014509765625,-0.0460662841796875,0.1405792236328125,-0.2390289306640625
1663860962157397500,5.0243974609375,0.15313720703125,-0.2035064697265625,-0.460601806640625
1663860962167285200,5.03428515625,0.2277069091796875,-0.4293365478515625,-0.67791748046875
1663860962177173000,5.044173095703125,0.198944091796875,-0.3483734130859375,-0.815338134765625
1663860962187060700,5.054060791015625,0.0849609375,-0.2269439697265625,-0.8355712890625
1663860962196948200,5.0639482421875,-0.0439300537109375,-0.1662139892578125,-0.824920654296875
1663860962206836000,5.0738359375,-0.1334228515625,-0.131072998046875,-0.7439727783203125
1663860962216723700,5.0837236328125,-0.20159912109375,-0.1459808349609375,-0.5948333740234375
1663860962226611500,5.093611572265625,-0.23675537109375,-0.1481170654296875,-0.495758056640625
1663860962236468500,5.103468505859375,-0.2410125732421875,-0.0980377197265625,-0.460601806640625
1663860962246325800,5.11332568359375,-0.2431488037109375,-0.049041748046875,-0.462738037109375
1663860962256213500,5.123213623046875,-0.2388763427734375,0.06494140625,-0.5245208740234375
1663860962266101200,5.133101318359375,-0.2623138427734375,0.165069580078125,-0.5905609130859375
1663860962275988700,5.14298876953125,-0.316650390625,0.1725311279296875,-0.6139984130859375
1663860962285876500,5.15287646484375,-0.3656463623046875,0.1064910888671875,-0.61187744140625
1663860962295733800,5.162733642578125,-0.405059814453125,0.0233917236328125,-0.573516845703125
1663860962305621500,5.17262158203125,-0.4316864013671875,-0.039459228515625,-0.497894287109375
1663860962315509000,5.182509033203125,-0.45086669921875,-0.0991058349609375,-0.4084014892578125
1663860962325396700,5.192396728515625,-0.4647216796875,-0.1204071044921875,-0.3434295654296875
1663860962335284500,5.202284423828125,-0.4689788818359375,-0.0980377197265625,-0.32745361328125
1663860962345172200,5.212172119140625,-0.454071044921875,-0.0671539306640625,-0.3444976806640625
1663860962355029500,5.222029541015625,-0.428497314453125,-0.0746002197265625,-0.37005615234375
1663860962364917000,5.2319169921875,-0.40826416015625,-0.103363037109375,-0.4084014892578125
1663860962374804700,5.2418046875,-0.402923583984375,-0.1118927001953125,-0.4574127197265625
1663860962384692500,5.2516923828125,-0.3944091796875,-0.0671539306640625,-0.507476806640625
1663860962394580200,5.261580322265625,-0.3762969970703125,0.0042266845703125,-0.5607452392578125
1663860962404468000,5.271468017578125,-0.3432769775390625,0.028717041015625,-0.6257171630859375
1663860962414325000,5.281324951171875,-0.301727294921875,0.0116729736328125,-0.6587371826171875
1663860962424212700,5.291212646484375,-0.2985382080078125,-0.0192108154296875,-0.573516845703125
1663860962434100500,5.3011005859375,-0.350738525390625,-0.0756683349609375,-0.338104248046875
1663860962443988200,5.31098828125,-0.45086669921875,-0.103363037109375,-0.0249176025390625
1663860962453875700,5.320875732421875,-0.5616607666015625,-0.0405120849609375,0.2200927734375
1663860962463763500,5.330763427734375,-0.646881103515625,-0.0298614501953125,0.371368408203125
1663860962473651200,5.340651123046875,-0.6415557861328125,-0.0224151611328125,0.4651031494140625
1663860962483508500,5.350508544921875,-0.56805419921875,0.0798492431640625,0.552459716796875
1663860962493396000,5.36039599609375,-0.4796295166015625,0.1544189453125,0.63128662109375
1663860962503283700,5.37028369140625,-0.3677825927734375,0.1054229736328125,0.5918731689453125
1663860962513171500,5.38017138671875,-0.2612457275390625,0.08837890625,0.427825927734375
1663860962523028700,5.39002880859375,-0.2718963623046875,0.190643310546875,0.2595062255859375
1663860962532916200,5.399916259765625,-0.3677825927734375,0.3451080322265625,0.2051849365234375
1663860962542804000,5.409803955078125,-0.4668426513671875,0.4739990234375,0.2552490234375
1663860962552691700,5.419691650390625,-0.50732421875,0.4239349365234375,0.2946624755859375
1663860962562579500,5.429579345703125,-0.4913482666015625,0.1895751953125,0.22222900390625
1663860962572467200,5.43946728515625,-0.47430419921875,-0.00323486328125,0.0326080322265625
1663860962582355000,5.44935498046875,-0.4806976318359375,0.0042266845703125,-0.1932220458984375
1663860962592212000,5.4592119140625,-0.4934844970703125,0.132049560546875,-0.349822998046875
1663860962602130200,5.469130126953125,-0.5041351318359375,0.2534942626953125,-0.3860321044921875
1663860962612018000,5.479017822265625,-0.4902801513671875,0.3813323974609375,-0.34661865234375
1663860962621905700,5.48890576171875,-0.36138916015625,0.155487060546875,-0.31573486328125
1663860962631793400,5.49879345703125,-0.2292938232421875,-0.039459228515625,-0.1474151611328125
1663860962641650400,5.508650390625,-0.198394775390625,0.044708251953125,0.1050567626953125
1663860962651538200,5.5185380859375,-0.245269775390625,0.1778564453125,0.2840118408203125
1663860962661395500,5.5283955078125,-0.2974700927734375,0.1970367431640625,0.3745574951171875
1663860962671313700,5.538313720703125,-0.3219757080078125,0.14483642578125,0.45977783203125
1663860962681201200,5.548201171875,-0.3549957275390625,0.1853179931640625,0.5908050537109375
1663860962691089000,5.5580888671875,-0.4135894775390625,0.418609619140625,0.768707275390625
1663860962700976600,5.5679765625,-0.4561920166015625,0.5933074951171875,0.9061279296875
1663860962710864400,5.577864501953125,-0.5456695556640625,0.660430908203125,0.9572601318359375
1663860962720752000,5.587752197265625,-0.6596527099609375,0.7786712646484375,0.951934814453125
1663860962730639600,5.5976396484375,-0.71185302734375,1.147247314453125,0.9561920166015625
1663860962740527400,5.60752734375,-0.6724395751953125,1.6575164794921875,1.0062713623046875
1663860962750415000,5.6174150390625,-0.6149139404296875,2.005859375,1.1277008056640625
1663860962760302800,5.627302734375,-0.61065673828125,2.23382568359375,1.24700927734375
1663860962770190600,5.637190673828125,-0.6500701904296875,2.2146453857421875,1.280029296875
1663860962780047600,5.647047607421875,-0.6607208251953125,1.7374114990234375,1.2608642578125
1663860962789935400,5.656935302734375,-0.5605926513671875,1.22821044921875,1.1511383056640625
1663860962799823000,5.666822998046875,-0.4253082275390625,0.9278106689453125,0.8752288818359375
1663860962809680400,5.676680419921875,-0.4103851318359375,0.6774749755859375,0.562042236328125
1663860962819537400,5.686537353515625,-0.475372314453125,0.5752105712890625,0.34686279296875
1663860962829455600,5.69645556640625,-0.5595245361328125,0.4953155517578125,0.256317138671875
1663860962839343400,5.70634326171875,-0.6255645751953125,0.373870849609375,0.28082275390625
1663860962849231000,5.716231201171875,-0.6553955078125,0.4484405517578125,0.4384765625
1663860962859118800,5.726118896484375,-0.65753173828125,0.6156768798828125,0.5705718994140625
1663860962868975900,5.735975830078125,-0.71612548828125,0.4676055908203125,0.6142425537109375
1663860962878863600,5.745863525390625,-0.830108642578125,0.1821136474609375,0.7846832275390625
1663860962888721000,5.755720947265625,-0.8897552490234375,0.1139373779296875,1.020111083984375
1663860962898639000,5.76563916015625,-0.8663177490234375,0.0468292236328125,0.975372314453125
1663860962908526600,5.775526611328125,-0.7661895751953125,-0.1331939697265625,0.7857513427734375
1663860962918414300,5.785414306640625,-0.635162353515625,-0.172607421875,0.8230438232421875
1663860962928302000,5.795302001953125,-0.541412353515625,-0.0873870849609375,1.0062713623046875
1663860962938189800,5.80518994140625,-0.4892120361328125,-0.1023101806640625,1.100006103515625
1663860962948077600,5.81507763671875,-0.463653564453125,-0.2493133544921875,1.0584564208984375
1663860962957965000,5.824965087890625,-0.4817657470703125,-0.44744873046875,0.97216796875
1663860962967852800,5.834852783203125,-0.51904296875,-0.4964447021484375,0.9700469970703125
1663860962977740500,5.844740478515625,-0.574432373046875,-0.3984527587890625,1.055267333984375
1663860962987597800,5.854597900390625,-0.602142333984375,-0.3760833740234375,1.07550048828125
1663860962997485300,5.8644853515625,-0.5733795166015625,-0.4751434326171875,0.977508544921875
1663860963007373000,5.874373046875,-0.5392913818359375,-0.427215576171875,0.858184814453125
1663860963017260800,5.8842607421875,-0.553131103515625,-0.1417236328125,0.7527313232421875
1663860963027148500,5.8941484375,-0.5818939208984375,0.06707763671875,0.646209716796875
1663860963037036300,5.904036376953125,-0.5925445556640625,0.1309814453125,0.599334716796875
1663860963046924000,5.913924072265625,-0.6053314208984375,0.244964599609375,0.6025238037109375
1663860963056811500,5.9238115234375,-0.6053314208984375,0.4484405517578125,0.5929412841796875
1663860963066699300,5.93369921875,-0.555267333984375,0.62420654296875,0.5556640625
1663860963076556500,5.943556640625,-0.46258544921875,0.6977081298828125,0.505584716796875
1663860963086413600,5.95341357421875,-0.358184814453125,0.667877197265625,0.47149658203125
1663860963096301300,5.96330126953125,-0.26019287109375,0.691314697265625,0.4778900146484375
1663860963106158600,5.97315869140625,-0.1515350341796875,0.8798675537109375,0.5396728515625
1663860963116076800,5.983076904296875,-0.0471343994140625,1.067352294921875,0.634490966796875
1663860963125964500,5.992964599609375,0.0423431396484375,1.1014404296875,0.7047882080078125
1663860963135852000,6.00285205078125,0.1158599853515625,0.9959869384765625,0.734619140625
1663860963145739800,6.01273974609375,0.1605987548828125,0.90863037109375,0.735687255859375
1663860963155627500,6.02262744140625,0.154205322265625,0.954437255859375,0.745269775390625
1663860963165484800,6.03248486328125,0.081756591796875,1.046051025390625,0.78363037109375
1663860963175372300,6.042372314453125,-0.03009033203125,1.0748138427734375,0.8336944580078125
1663860963185229600,6.0522294921875,-0.1248931884765625,0.9512481689453125,0.8464813232421875
1663860963195147800,6.062147705078125,-0.1632537841796875,0.7861328125,0.8070526123046875
1663860963205035500,6.072035400390625,-0.1579132080078125,0.8138275146484375,0.75592041015625
1663860963214923300,6.08192333984375,-0.176025390625,0.9629669189453125,0.710113525390625
1663860963224810800,6.091810791015625,-0.214385986328125,0.977874755859375,0.6611175537109375
1663860963234668000,6.10166796875,-0.2079925537109375,0.780792236328125,0.611053466796875
1663860963244555800,6.1115556640625,-0.16644287109375,0.578399658203125,0.5258331298828125
1663860963254443500,6.121443603515625,-0.140869140625,0.5869140625,0.4118499755859375
1663860963264331300,6.131331298828125,-0.118499755859375,0.738189697265625,0.3191680908203125
1663860963274188300,6.141188232421875,-0.085479736328125,0.8468475341796875,0.2520599365234375
1663860963284076000,6.151075927734375,-0.0449981689453125,0.864959716796875,0.1732330322265625
1663860963293963800,6.1609638671875,0.003997802734375,0.8447113037109375,0.083740234375
1663860963303820800,6.17082080078125,0.0434112548828125,0.827667236328125,0.018768310546875
1663860963313708500,6.18070849609375,0.07537841796875,0.7999725341796875,-0.0323638916015625
1663860963323626800,6.190626708984375,0.1041412353515625,0.7424468994140625,-0.074981689453125
1663860963333514500,6.200514404296875,0.1126556396484375,0.6455078125,-0.1005401611328125
1663860963343402200,6.21040234375,0.11798095703125,0.521942138671875,-0.1037445068359375
1663860963353259300,6.22025927734375,0.1478118896484375,0.404754638671875,-0.0930938720703125
1663860963363116500,6.230116455078125,0.1808319091796875,0.305694580078125,-0.096282958984375
1663860963373004300,6.24000439453125,0.17657470703125,0.2854461669921875,-0.12078857421875
1663860963382922500,6.249922607421875,0.1371612548828125,0.3813323974609375,-0.11865234375
1663860963392810200,6.259810302734375,0.0679168701171875,0.432464599609375,-0.0813751220703125
1663860963402697700,6.26969775390625,-0.0087890625,0.3131561279296875,-0.074981689453125
1663860963412585500,6.27958544921875,-0.066314697265625,0.054290771484375,-0.1122589111328125
1663860963422473200,6.28947314453125,-0.0982666015625,-0.171539306640625,-0.1250457763671875
1663860963432361000,6.29936083984375,-0.1131744384765625,-0.1896514892578125,-0.084564208984375
1663860963442218000,6.309218017578125,-0.106781005859375,-0.0682220458984375,-0.0323638916015625
1663860963452105700,6.319105712890625,-0.0982666015625,0.04364013671875,0.0006561279296875
1663860963461963000,6.328962890625,-0.0918731689453125,0.0702667236328125,0.01983642578125
1663860963471881200,6.338881103515625,-0.0684356689453125,0.0138092041015625,0.05072021484375
1663860963481738200,6.34873828125,-0.040740966796875,0.0340423583984375,0.141265869140625
1663860963491626000,6.3586259765625,-0.0343475341796875,0.1490936279296875,0.24566650390625
1663860963501513700,6.368513671875,-0.04180908203125,0.134185791015625,0.2605743408203125
1663860963511371000,6.37837109375,-0.05352783203125,-0.0298614501953125,0.178558349609375
1663860963521289200,6.388289306640625,-0.0631103515625,-0.0873870849609375,0.1252899169921875
1663860963531177000,6.398177001953125,-0.1057281494140625,0.0830535888671875,0.2371368408203125
1663860963541064400,6.408064453125,-0.1504669189453125,0.3184814453125,0.3671112060546875
1663860963550952200,6.4179521484375,-0.1973419189453125,0.5272674560546875,0.357513427734375
1663860963560840000,6.42783984375,-0.2186431884765625,0.592254638671875,0.2509918212890625
1663860963570697200,6.437697265625,-0.20159912109375,0.3696136474609375,0.1114349365234375
1663860963580584700,6.447584716796875,-0.1973419189453125,-0.0682220458984375,-0.01959228515625
1663860963590472400,6.457472412109375,-0.2655181884765625,-0.4975128173828125,-0.0813751220703125
1663860963600360200,6.467360107421875,-0.3890838623046875,-0.7521209716796875,-0.0334320068359375
1663860963610248000,6.477248046875,-0.496673583984375,-0.8863372802734375,0.0794830322265625
1663860963620135700,6.4871357421875,-0.5818939208984375,-0.9832763671875,0.2275543212890625
1663860963630023200,6.497023193359375,-0.670318603515625,-1.007781982421875,0.416107177734375
1663860963639880400,6.50688037109375,-0.7448883056640625,-0.937469482421875,0.6131744384765625
1663860963649737700,6.51673779296875,-0.771514892578125,-0.893798828125,0.746337890625
1663860963659625200,6.526625244140625,-0.7374267578125,-0.890594482421875,0.858184814453125
1663860963669543400,6.53654345703125,-0.6031951904296875,-0.5092315673828125,0.973236083984375
1663860963679431200,6.54643115234375,-0.4561920166015625,0.1277923583984375,1.0403594970703125
1663860963689319000,6.55631884765625,-0.3454132080078125,0.4953155517578125,0.97430419921875
1663860963699206700,6.56620654296875,-0.16644287109375,0.5294036865234375,0.7761688232421875
1663860963709063700,6.576063720703125,0.0540618896484375,0.14697265625,0.5013275146484375
1663860963718951400,6.585951416015625,0.185089111328125,-0.4314727783203125,0.2051849365234375
1663860963728808700,6.59580859375,0.196807861328125,-0.4282684326171875,0.244598388671875
1663860963738696400,6.605696533203125,0.0668487548828125,-0.0085601806640625,0.6099853515625
1663860963748584200,6.615584228515625,-0.0556488037109375,0.4026336669921875,0.860321044921875
1663860963758502400,6.62550244140625,-0.0162353515625,0.5613555908203125,0.8326263427734375
1663860963768390000,6.635389892578125,0.0902862548828125,0.3014373779296875,0.60040283203125
1663860963778247200,6.6452470703125,0.083892822265625,-0.207763671875,0.3404693603515625
1663860963788135000,6.655135009765625,0.0114593505859375,-0.7617034912109375,0.232879638671875
1663860963798022700,6.665022705078125,-0.0599212646484375,-1.14306640625,0.2531280517578125
1663860963807910100,6.67491015625,-0.08868408203125,-1.1238861083984375,0.3053131103515625
1663860963817767400,6.684767333984375,-0.0780181884765625,-0.7638397216796875,0.350067138671875
1663860963827655200,6.6946552734375,-0.07269287109375,-0.42401123046875,0.402252197265625
1663860963837543000,6.70454296875,-0.07269287109375,-0.2812652587890625,0.44805908203125
1663860963847430400,6.714430419921875,-0.0492706298828125,-0.24078369140625,0.4225006103515625
1663860963857287700,6.72428759765625,-0.0013275146484375,-0.278076171875,0.3074493408203125
1663860963867175400,6.734175537109375,0.04022216796875,-0.3441162109375,0.1487274169921875
1663860963877093600,6.74409375,0.037017822265625,-0.289794921875,0.0219573974609375
1663860963886981400,6.7539814453125,-0.0236968994140625,-0.23333740234375,-0.0110626220703125
1663860963896868900,6.763868896484375,-0.10784912109375,-0.3068389892578125,0.00811767578125
1663860963906756600,6.773756591796875,-0.1813507080078125,-0.4176177978515625,0.0102386474609375
1663860963916644400,6.783644287109375,-0.226104736328125,-0.481536865234375,0.0017242431640625
1663860963926532000,6.793531982421875,-0.2378082275390625,-0.5007171630859375,-0.0089263916015625
1663860963936419800,6.803419921875,-0.214385986328125,-0.5113677978515625,-0.0227813720703125
1663860963946307300,6.813307373046875,-0.16644287109375,-0.5539703369140625,-0.0323638916015625
1663860963956195000,6.823195068359375,-0.1046600341796875,-0.61895751953125,-0.0440826416015625
1663860963966082800,6.833082763671875,-0.0599212646484375,-0.6935272216796875,-0.06005859375
1663860963975940000,6.842940185546875,-0.038604736328125,-0.7510528564453125,-0.0675201416015625
1663860963985827800,6.852827880859375,-0.0364837646484375,-0.67755126953125,-0.0909576416015625
1663860963995684900,6.862684814453125,-0.0375518798828125,-0.4538421630859375,-0.154876708984375
1663860964005572600,6.872572509765625,-0.03009033203125,-0.2461090087890625,-0.2432861328125
1663860964015460400,6.88246044921875,0.00506591796875,-0.1214752197265625,-0.345550537109375
1663860964025317400,6.8923173828125,0.072174072265625,-0.037322998046875,-0.4073486328125
1663860964035205000,6.902205078125,0.1339569091796875,0.0127410888671875,-0.3657989501953125
1663860964045092900,6.9120927734375,0.1691131591796875,0.0724029541015625,-0.2422332763671875
1663860964054980600,6.921980712890625,0.1946868896484375,0.13311767578125,-0.1356964111328125
1663860964064868400,6.931868408203125,0.2266387939453125,0.044708251953125,-0.09521484375
1663860964074755800,6.941755859375,0.208526611328125,-0.2716827392578125,-0.13250732421875
1663860964084613000,6.951613037109375,0.1371612548828125,-0.5816802978515625,-0.265655517578125
1663860964094500900,6.9615009765625,0.0849609375,-0.52734375,-0.4222564697265625
1663860964104388600,6.971388671875,0.041290283203125,-0.255706787109375,-0.493621826171875
1663860964114276000,6.981276123046875,-0.0364837646484375,-0.1363983154296875,-0.472320556640625
1663860964124163800,6.991163818359375,-0.08441162109375,-0.2162933349609375,-0.427581787109375
1663860964134051600,7.001051513671875,-0.0449981689453125,-0.3526458740234375,-0.4094696044921875
1663860964143908900,7.010908935546875,0.003997802734375,-0.3600921630859375,-0.3956298828125
1663860964153796400,7.02079638671875,-0.0034637451171875,-0.1768798828125,-0.349822998046875
1663860964163684000,7.03068408203125,-0.0236968994140625,0.063873291015625,-0.314666748046875
1663860964173571800,7.04057177734375,-0.0119781494140625,0.2215423583984375,-0.3551483154296875
1663860964183459600,7.05045947265625,0.0146484375,0.1863861083984375,-0.40521240234375
1663860964193347300,7.060347412109375,0.0540618896484375,-0.0447845458984375,-0.439300537109375
1663860964203235000,7.070235107421875,0.08709716796875,-0.1566314697265625,-0.543701171875
1663860964213122600,7.08012255859375,0.086029052734375,-0.072479248046875,-0.7322540283203125
1663860964222979800,7.089979736328125,0.08282470703125,0.019134521484375,-0.965545654296875
1663860964232867600,7.09986767578125,0.1020050048828125,0.0020904541015625,-1.1604766845703125
1663860964242755300,7.10975537109375,0.1595306396484375,-0.21734619140625,-1.2638092041015625
1663860964252642800,7.119642822265625,0.245819091796875,-0.5699615478515625,-1.2776641845703125
1663860964262530600,7.129530517578125,0.3054656982421875,-0.7926025390625,-1.27020263671875
1663860964272387800,7.139387939453125,0.3150634765625,-0.7521209716796875,-1.2638092041015625
1663860964282275600,7.149275634765625,0.313995361328125,-0.5135040283203125,-1.2201385498046875
1663860964292163000,7.1591630859375,0.313995361328125,-0.2280120849609375,-1.112548828125
1663860964302050800,7.16905078125,0.292694091796875,-0.06927490234375,-0.9218597412109375
1663860964311938600,7.1789384765625,0.2330322265625,-0.0650177001953125,-0.6960296630859375
1663860964321826300,7.188826416015625,0.1744384765625,-0.0895233154296875,-0.5490264892578125
1663860964331683300,7.198683349609375,0.1595306396484375,-0.08099365234375,-0.4787139892578125
1663860964341601500,7.2086015625,0.1819000244140625,-0.1555633544921875,-0.4190673828125
1663860964351489300,7.2184892578125,0.196807861328125,-0.298309326171875,-0.382843017578125
1663860964361377000,7.228376953125,0.187225341796875,-0.4186859130859375,-0.4073486328125
1663860964371234300,7.238234375,0.1861572265625,-0.5017852783203125,-0.4808502197265625
1663860964381121800,7.248121826171875,0.2159881591796875,-0.551849365234375,-0.5841827392578125
1663860964391040000,7.2580400390625,0.2607269287109375,-0.55291748046875,-0.69921875
1663860964400927700,7.267927734375,0.3193206787109375,-0.4996490478515625,-0.7865753173828125
1663860964410815500,7.2778154296875,0.403472900390625,-0.389923095703125,-0.828125
1663860964420703200,7.287703125,0.5131988525390625,-0.222686767578125,-0.836639404296875
1663860964430591000,7.297591064453125,0.641021728515625,-0.0532989501953125,-0.8323822021484375
1663860964440478700,7.307478759765625,0.78271484375,0.124603271484375,-0.9112091064453125
1663860964450335700,7.317335693359375,0.9446258544921875,0.279052734375,-1.1082916259765625
1663860964460223500,7.327223388671875,1.1289215087890625,0.2641448974609375,-1.3117523193359375
1663860964470111200,7.337111328125,1.284454345703125,0.122467041015625,-1.485382080078125
1663860964479999000,7.3469990234375,1.3664703369140625,0.1075592041015625,-1.682464599609375
1663860964489886500,7.356886474609375,1.3707275390625,0.3003692626953125,-1.886993408203125
1663860964499774200,7.366774169921875,1.3323822021484375,0.5272674560546875,-2.0073699951171875
1663860964509662000,7.376661865234375,1.28125,0.5261993408203125,-1.9264068603515625
1663860964519519200,7.386519287109375,1.2269287109375,0.4495086669921875,-1.74957275390625
1663860964529376300,7.396376220703125,1.155548095703125,0.4686737060546875,-1.6558380126953125
1663860964539264000,7.406263916015625,1.0586090087890625,0.38238525390625,-1.6185455322265625
1663860964549121300,7.416121337890625,0.95208740234375,0.05108642578125,-1.5759429931640625
1663860964559039500,7.42603955078125,0.857269287109375,-0.17474365234375,-1.53118896484375
1663860964568896500,7.435896484375,0.7550048828125,-0.289794921875,-1.4747314453125
1663860964578814700,7.445814697265625,0.6729888916015625,-0.49432373046875,-1.431060791015625
1663860964588702500,7.455702392578125,0.631439208984375,-0.6871337890625,-1.4395904541015625
1663860964598590200,7.465590087890625,0.6239776611328125,-0.84906005859375,-1.47900390625
1663860964608447200,7.475447265625,0.6484832763671875,-0.963043212890625,-1.487518310546875
1663860964618335000,7.4853349609375,0.68682861328125,-0.9481201171875,-1.440643310546875
1663860964628222700,7.49522265625,0.7262420654296875,-0.8298797607421875,-1.374603271484375
1663860964638110500,7.5051103515625,0.758209228515625,-0.674346923828125,-1.3777923583984375
1663860964647998200,7.514998291015625,0.8189239501953125,-0.540130615234375,-1.5056304931640625
1663860964657885700,7.5248857421875,0.9307861328125,-0.493255615234375,-1.7431793212890625
1663860964667773400,7.5347734375,1.06500244140625,-0.5102996826171875,-2.032928466796875
1663860964677661200,7.5446611328125,1.1757965087890625,-0.4847412109375,-2.3013763427734375
1663860964687549000,7.554548828125,1.200286865234375,-0.438934326171875,-2.490997314453125
1663860964697436700,7.564436767578125,1.1512908935546875,-0.336669921875,-2.603912353515625
1663860964707324400,7.574324462890625,1.090576171875,-0.2503814697265625,-2.6092376708984375
1663860964717212000,7.5842119140625,1.0681915283203125,-0.2130889892578125,-2.537872314453125
1663860964727069200,7.594069091796875,1.052215576171875,-0.08099365234375,-2.4302825927734375
1663860964736957000,7.60395703125,0.9808502197265625,0.169342041015625,-2.297119140625
1663860964746844700,7.6138447265625,0.82318115234375,0.3674774169921875,-2.1373291015625
1663860964756732200,7.623732177734375,0.6175994873046875,0.4558868408203125,-1.9594268798828125
1663860964766620000,7.633619873046875,0.4769744873046875,0.404754638671875,-1.8560943603515625
1663860964776507600,7.643507568359375,0.403472900390625,0.29290771484375,-1.8230743408203125
1663860964786395400,7.6533955078125,0.3427581787109375,0.2673492431640625,-1.764495849609375
1663860964796283100,7.663283203125,0.25433349609375,0.3419036865234375,-1.6867218017578125
1663860964806140200,7.67314013671875,0.116912841796875,0.3206024169921875,-1.6430511474609375
1663860964816028000,7.68302783203125,-0.0098419189453125,0.1778564453125,-1.5865936279296875
1663860964825915600,7.69291552734375,-0.0790863037109375,0.0702667236328125,-1.508819580078125
1663860964835803400,7.702803466796875,-0.0833587646484375,0.1054229736328125,-1.442779541015625
1663860964845691000,7.71269091796875,-0.026885986328125,0.2012939453125,-1.374603271484375
1663860964855578600,7.72257861328125,-0.0098419189453125,0.2545623779296875,-1.304290771484375
1663860964865436000,7.732435791015625,-0.0790863037109375,0.2747955322265625,-1.249969482421875
1663860964875323600,7.74232373046875,-0.122772216796875,0.216217041015625,-1.2222747802734375
1663860964885180700,7.7521806640625,-0.1504669189453125,0.1395111083984375,-1.2403717041015625
1663860964895068400,7.762068359375,-0.1398162841796875,0.0468292236328125,-1.124267578125
1663860964904956200,7.7719560546875,-0.0364837646484375,-0.0778045654296875,-0.9101409912109375
1663860964914844000,7.781843994140625,0.081756591796875,-0.0767364501953125,-0.80255126953125
1663860964924731600,7.791731689453125,0.1510009765625,-0.082061767578125,-0.6172027587890625
1663860964934619100,7.801619140625,0.1861572265625,-0.0479736328125,-0.414794921875
1663860964944476400,7.811476318359375,0.185089111328125,0.0138092041015625,-0.2763214111328125
1663860964954394600,7.82139453125,0.17657470703125,-0.013885498046875,-0.154876708984375
1663860964964252000,7.831251953125,0.154205322265625,-0.0437164306640625,-0.0142669677734375
1663860964974139400,7.841139404296875,0.0902862548828125,-0.0458526611328125,0.1231536865234375
1663860964984027100,7.851027099609375,-0.0034637451171875,-0.06182861328125,0.2552490234375
1663860964993915000,7.860914794921875,-0.106781005859375,0.0042266845703125,0.4246368408203125
1663860965003802600,7.870802734375,-0.2047882080078125,0.0585479736328125,0.587615966796875
1663860965013690400,7.8806904296875,-0.27935791015625,0.0937042236328125,0.7878875732421875
1663860965023577900,7.890577880859375,-0.3592529296875,0.2215423583984375,0.9806976318359375
1663860965033465600,7.900465576171875,-0.5019989013671875,0.2993011474609375,1.0829620361328125
1663860965043353300,7.910353271484375,-0.6990814208984375,0.21087646484375,1.2342376708984375
1663860965053210600,7.920210693359375,-0.818389892578125,0.1746673583984375,1.511199951171875
1663860965063067600,7.930067626953125,-0.8332977294921875,0.272674560546875,1.6986846923828125
1663860965072985900,7.93998583984375,-0.8439483642578125,0.2779998779296875,1.69549560546875
1663860965082873600,7.94987353515625,-0.8695220947265625,0.143768310546875,1.66033935546875
1663860965092731000,7.95973095703125,-0.910003662109375,0.05108642578125,1.68377685546875
1663860965102618400,7.969618408203125,-0.973907470703125,0.0052947998046875,1.6965484619140625
1663860965112506000,7.979506103515625,-1.0751190185546875,-0.06927490234375,1.657135009765625
1663860965122393900,7.989393798828125,-1.1741790771484375,-0.164093017578125,1.5836334228515625
1663860965132281600,7.999281494140625,-1.217864990234375,-0.26422119140625,1.5143890380859375
1663860965142169300,8.00916943359375,-1.2466278076171875,-0.335601806640625,1.5101318359375
1663860965152026400,8.0190263671875,-1.272186279296875,-0.3824615478515625,1.5740509033203125
1663860965161944600,8.028944580078125,-1.2988128662109375,-0.298309326171875,1.6166534423828125
1663860965171832300,8.038832275390625,-1.3126678466796875,-0.103363037109375,1.5740509033203125
1663860965181689600,8.048689697265624,-1.248748779296875,-0.0074920654296875,1.5506134033203125
1663860965191577300,8.058577392578124,-1.1432952880859375,0.0138092041015625,1.645416259765625
1663860965201464800,8.06846484375,-1.079376220703125,0.0734710693359375,1.8020172119140625
1663860965211352600,8.0783525390625,-1.042083740234375,0.2396392822265625,1.8350372314453125
1663860965221240300,8.088240234375,-0.9494171142578125,0.3685455322265625,1.760467529296875
1663860965231128000,8.098128173828124,-0.792816162109375,0.362152099609375,1.7104034423828125
1663860965241015800,8.108015869140624,-0.656463623046875,0.37066650390625,1.7444915771484375
1663860965250903300,8.1179033203125,-0.586151123046875,0.4590911865234375,1.873382568359375
1663860965260791000,8.127791015625,-0.57550048828125,0.5261993408203125,2.02252197265625
1663860965270648300,8.1376484375,-0.5968017578125,0.5485687255859375,2.1461029052734375
1663860965280536000,8.1475361328125,-0.646881103515625,0.5048980712890625,2.216400146484375
1663860965290423600,8.157423583984375,-0.6958770751953125,0.3759918212890625,2.16314697265625
1663860965300280800,8.16728076171875,-0.635162353515625,0.11181640625,1.942626953125
1663860965310168600,8.17716845703125,-0.4093170166015625,-0.184326171875,1.694427490234375
1663860965320056300,8.187056396484374,-0.153656005859375,-0.1917877197265625,1.6560821533203125
1663860965329913300,8.196913330078125,0.0679168701171875,0.085174560546875,1.751953125
1663860965339831600,8.20683154296875,0.3086700439453125,0.3759918212890625,1.64862060546875
1663860965349719300,8.21671923828125,0.5408935546875,0.4037017822265625,1.360992431640625
1663860965359607000,8.22660693359375,0.789093017578125,0.1778564453125,1.1948089599609375
1663860965369494800,8.236494873046874,0.949951171875,0.2950439453125,1.16925048828125
1663860965379382500,8.246382568359374,0.835968017578125,0.900115966796875,1.0861663818359375
1663860965389270000,8.25627001953125,0.6484832763671875,1.23779296875,0.9700469970703125
1663860965399157800,8.26615771484375,0.4993438720703125,0.97894287109375,0.977508544921875
1663860965409045500,8.27604541015625,0.2969512939453125,0.5826568603515625,1.0254364013671875
1663860965418933200,8.285933349609374,0.060455322265625,0.552825927734375,0.93914794921875
1663860965428821000,8.295821044921874,-0.1739044189453125,0.9256744384765625,0.8901519775390625
1663860965438678000,8.305677978515625,-0.4114532470703125,1.1781463623046875,1.1159820556640625
1663860965448565800,8.315565673828125,-0.6309051513671875,1.013031005859375,1.374847412109375
1663860965458453500,8.32545361328125,-0.8567352294921875,0.6540374755859375,1.4632568359375
1663860965468310500,8.335310546875,-1.0974884033203125,0.2215423583984375,1.3791046142578125
1663860965478198300,8.3451982421875,-1.263671875,-0.058624267578125,1.292816162109375
1663860965488055600,8.3550556640625,-1.2231903076171875,-0.107635498046875,1.3684539794921875
1663860965497943300,8.364943359375,-1.032501220703125,-0.1321258544921875,1.4707183837890625
1663860965507861500,8.374861572265624,-0.84820556640625,-0.289794921875,1.569793701171875
1663860965517749000,8.3847490234375,-0.72357177734375,-0.7510528564453125,1.682708740234375
1663860965527636700,8.39463671875,-0.7075958251953125,-1.3113861083984375,1.6156005859375
1663860965537494000,8.404493896484375,-0.7736358642578125,-1.7300262451171875,1.2523345947265625
1663860965547351000,8.41435107421875,-0.791748046875,-1.8578643798828125,0.758056640625
1663860965557238800,8.42423876953125,-0.6969451904296875,-1.01629638671875,0.67816162109375
1663860965567157000,8.434156982421875,-0.5829620361328125,0.432464599609375,1.28216552734375
1663860965577014300,8.44401416015625,-0.586151123046875,1.1067657470703125,1.863800048828125
1663860965586902000,8.453902099609374,-0.55206298828125,0.829803466796875,1.930908203125
1663860965596789800,8.463789794921874,-0.328369140625,-0.115081787109375,1.3791046142578125
1663860965606646800,8.473646728515625,0.02850341796875,-1.06317138671875,0.5386199951171875
1663860965616534500,8.483534423828125,0.208526611328125,-0.9640960693359375,0.2083740234375
1663860965626422300,8.49342236328125,0.0029296875,-0.3377227783203125,0.4320831298828125
1663860965636340500,8.503340576171874,-0.1685791015625,0.0010223388671875,0.5727081298828125
1663860965646197500,8.513197509765625,-0.0748291015625,-0.0298614501953125,0.2371368408203125
1663860965656115700,8.52311572265625,0.07110595703125,-0.3622283935546875,-0.3604736328125
1663860965665973000,8.532972900390625,0.0913543701171875,-0.69671630859375,-0.8515625
1663860965675860700,8.54286083984375,-0.0226287841796875,-0.6349334716796875,-1.14556884765625
1663860965685748500,8.55274853515625,-0.2047882080078125,-0.438934326171875,-1.282989501953125
1663860965695636000,8.562635986328125,-0.3709716796875,-0.4027099609375,-1.3809967041015625
1663860965705493200,8.5724931640625,-0.4689788818359375,-0.4293365478515625,-1.49072265625
1663860965715381000,8.582381103515624,-0.5371551513671875,-0.4527740478515625,-1.604705810546875
1663860965725268700,8.592268798828124,-0.6202392578125,-0.495391845703125,-1.680328369140625
1663860965735125800,8.602125732421875,-0.7214508056640625,-0.4218902587890625,-1.635589599609375
1663860965745044000,8.6120439453125,-0.803466796875,-0.0192108154296875,-1.4811248779296875
1663860965754931700,8.621931640625,-0.8684539794921875,0.432464599609375,-1.2861785888671875
1663860965764789000,8.6317890625,-0.907867431640625,0.454833984375,-1.030517578125
1663860965774707200,8.641707275390624,-0.872711181640625,-0.0863189697265625,-0.690704345703125
1663860965784564200,8.651564208984375,-0.816253662109375,-0.9225616455078125,-0.394561767578125
1663860965794482400,8.661482421875,-0.7640533447265625,-1.522308349609375,-0.199615478515625
1663860965804339700,8.671339599609375,-0.6724395751953125,-1.6980743408203125,-0.08563232421875
1663860965814196700,8.68119677734375,-0.56805419921875,-1.6831512451171875,-0.0227813720703125
1663860965824084500,8.69108447265625,-0.494537353515625,-1.646942138671875,-0.0217132568359375
1663860965834002700,8.701002685546875,-0.440216064453125,-1.574493408203125,-0.0813751220703125
1663860965843860000,8.71085986328125,-0.3528594970703125,-1.3997955322265625,-0.1506195068359375
1663860965853778200,8.720778076171875,-0.174957275390625,-1.134552001953125,-0.1964263916015625
1663860965863666000,8.730666015625,0.0913543701171875,-0.9662322998046875,-0.2486114501953125
1663860965873553700,8.7405537109375,0.417327880859375,-0.947052001953125,-0.413726806640625
1663860965883410700,8.75041064453125,0.7954864501953125,-0.8650360107421875,-0.79083251953125
1663860965893298400,8.76029833984375,1.2173309326171875,-0.629608154296875,-1.337310791015625
1663860965903155700,8.77015576171875,1.660491943359375,-0.3196258544921875,-1.8880615234375
1663860965913074000,8.780073974609374,2.0525054931640625,-0.1470489501953125,-2.2246856689453125
1663860965922961400,8.78996142578125,2.239990234375,-0.084197998046875,-2.239593505859375
1663860965932849200,8.79984912109375,2.1196136474609375,0.1597442626953125,-2.0872650146484375
1663860965942706400,8.80970654296875,1.816009521484375,0.6774749755859375,-1.908294677734375
1663860965952563500,8.8195634765625,1.580596923828125,1.1312713623046875,-1.661163330078125
1663860965962451200,8.829451171875,1.4793853759765625,1.297454833984375,-1.46514892578125
1663860965972339000,8.8393388671875,1.3941650390625,1.23779296875,-1.48858642578125
1663860965982226700,8.849226806640624,1.28338623046875,1.0077056884765625,-1.6664886474609375
1663860965992114400,8.859114501953124,1.1598052978515625,0.7445831298828125,-1.8294677734375
1663860966002032600,8.86903271484375,1.0351715087890625,0.5059661865234375,-1.8710174560546875
1663860966011889700,8.8788896484375,0.937164306640625,0.13311767578125,-1.8060302734375
1663860966021747000,8.888746826171875,0.903076171875,-0.24505615234375,-1.748504638671875
1663860966031634700,8.898634765625,0.9222564697265625,-0.4889984130859375,-1.8358612060546875
1663860966041553000,8.908552978515624,0.9318389892578125,-0.5092315673828125,-2.0638275146484375
1663860966051440400,8.9184404296875,0.9329071044921875,-0.3494415283203125,-2.33441162109375
1663860966061328100,8.928328125,0.972320556640625,-0.1023101806640625,-2.5506591796875
1663860966071185400,8.938185302734375,0.9925689697265625,0.1533660888671875,-2.660369873046875
1663860966081073200,8.9480732421875,0.9915008544921875,0.2716064453125,-2.699798583984375
1663860966090930200,8.95793017578125,0.99896240234375,0.2247314453125,-2.7807464599609375
1663860966100848400,8.967848388671875,0.97125244140625,0.165069580078125,-2.91497802734375
1663860966110736100,8.977736083984375,0.91693115234375,0.2439117431640625,-2.96185302734375
1663860966120593400,8.987593505859374,0.906280517578125,0.3110198974609375,-2.92669677734375
1663860966130511600,8.99751171875,0.984039306640625,0.1373748779296875,-2.93841552734375
1663860966140399400,9.0073994140625,1.0916290283203125,-0.1321258544921875,-3.0907440185546875
1663860966150256400,9.01725634765625,1.1640777587890625,-0.185394287109375,-3.200469970703125
1663860966160144100,9.02714404296875,1.169403076171875,-0.173675537109375,-3.0353546142578125
1663860966170001400,9.03700146484375,1.1395721435546875,-0.265289306640625,-2.7700958251953125
1663860966179919600,9.046919677734374,1.0681915283203125,-0.302581787109375,-2.65185546875
1663860966189807000,9.05680712890625,1.017059326171875,-0.2588958740234375,-2.570892333984375
1663860966199664400,9.066664306640625,0.9339752197265625,-0.2855224609375,-2.4185638427734375
1663860966209552100,9.07655224609375,0.789093017578125,-0.2844696044921875,-2.2001800537109375
1663860966219439900,9.08643994140625,0.6112060546875,-0.1651611328125,-1.797515869140625
1663860966229327400,9.096327392578125,0.401336669921875,0.05108642578125,-1.3309326171875
1663860966239215000,9.106215087890625,0.1808319091796875,0.14697265625,-0.9527587890625
1663860966249072400,9.116072265625,-0.0833587646484375,0.1299285888671875,-0.6928253173828125
1663860966258990600,9.125990478515625,-0.4061279296875,0.1064910888671875,-0.48724365234375
1663860966268878300,9.13587841796875,-0.6745758056640625,-0.05010986328125,-0.225189208984375
1663860966278765800,9.145765869140625,-0.802398681640625,-0.140655517578125,0.1007843017578125
1663860966288623000,9.155623046875,-0.85247802734375,-0.0362548828125,0.3649749755859375
1663860966298510800,9.1655107421875,-0.87164306640625,0.09796142578125,0.5364837646484375
1663860966308398600,9.175398681640624,-0.905731201171875,0.2321929931640625,0.6866912841796875
1663860966318286300,9.185286376953124,-0.966461181640625,0.4260711669921875,0.8123931884765625
1663860966328173800,9.195173828125,-1.0026702880859375,0.5496368408203125,0.895477294921875
1663860966338061600,9.2050615234375,-1.020782470703125,0.543243408203125,0.977508544921875
1663860966347949300,9.21494921875,-1.0591278076171875,0.498504638671875,1.055267333984375
1663860966357837000,9.224837158203124,-1.1273040771484375,0.444183349609375,1.166046142578125
1663860966367694000,9.234694091796875,-1.2317047119140625,0.4143524169921875,1.3460845947265625
1663860966377581800,9.244581787109375,-1.3531494140625,0.4015655517578125,1.4920196533203125
1663860966387439000,9.254439208984374,-1.4618072509765625,0.3451080322265625,1.5825653076171875
1663860966397357300,9.264357421875,-1.523590087890625,0.3014373779296875,1.6411590576171875
1663860966407245000,9.2742451171875,-1.556610107421875,0.258819580078125,1.645416259765625
1663860966417132500,9.284132568359375,-1.566192626953125,0.1629486083984375,1.7018890380859375
1663860966427020300,9.294020263671875,-1.5427703857421875,0.1490936279296875,1.816925048828125
1663860966436908000,9.303907958984375,-1.49908447265625,0.211944580078125,1.8020172119140625
1663860966446765300,9.313765380859374,-1.4245147705078125,0.1714630126953125,1.750885009765625
1663860966456622300,9.323622314453125,-1.3222503662109375,0.063873291015625,1.832916259765625
1663860966466510000,9.333510009765625,-1.2647247314453125,0.10223388671875,1.908538818359375
1663860966476428300,9.34342822265625,-1.2199859619140625,0.244964599609375,1.877655029296875
1663860966486285600,9.35328564453125,-1.1038818359375,0.329132080078125,1.908538818359375
1663860966496173000,9.363173095703125,-0.97711181640625,0.317413330078125,2.0789794921875
1663860966506030300,9.3730302734375,-0.898284912109375,0.260955810546875,2.1759185791015625
1663860966515948500,9.382948486328125,-0.8247833251953125,0.190643310546875,2.0779266357421875
1663860966525836300,9.392836181640625,-0.7299652099609375,0.136322021484375,1.9479522705078125
1663860966535724000,9.40272412109375,-0.6553955078125,0.1608123779296875,1.9841766357421875
1663860966545581000,9.4125810546875,-0.6255645751953125,0.2300567626953125,2.140777587890625
1663860966555499300,9.422499267578125,-0.6053314208984375,0.2620086669921875,2.2132110595703125
1663860966565356500,9.4323564453125,-0.5797576904296875,0.272674560546875,2.113067626953125
1663860966575213800,9.4422138671875,-0.5265045166015625,0.340850830078125,1.955413818359375
1663860966585132000,9.452132080078124,-0.43914794921875,0.4953155517578125,1.87872314453125
1663860966595019500,9.46201953125,-0.3422088623046875,0.590118408203125,1.8723297119140625
1663860966604907300,9.4719072265625,-0.2623138427734375,0.5869140625,1.854217529296875
1663860966614764500,9.4817646484375,-0.22503662109375,0.5634918212890625,1.832916259765625
1663860966624682800,9.491682861328124,-0.2303619384765625,0.592254638671875,1.8115997314453125
1663860966634570500,9.501570556640624,-0.2740325927734375,0.667877197265625,1.8062744140625
1663860966644427500,9.511427490234375,-0.3177032470703125,0.601837158203125,1.8265228271484375
1663860966654284800,9.521284912109374,-0.3539276123046875,0.385589599609375,1.8680572509765625
1663860966664172500,9.531172607421874,-0.405059814453125,0.19171142578125,1.8808441162109375
1663860966674090800,9.5410908203125,-0.4551239013671875,0.1821136474609375,1.82757568359375
1663860966683978200,9.550978271484375,-0.46258544921875,0.4111480712890625,1.7444915771484375
1663860966693866000,9.560865966796875,-0.3762969970703125,0.80743408203125,1.71893310546875
1663860966703753700,9.570753662109375,-0.2154388427734375,1.2218170166015625,1.8371734619140625
1663860966713641500,9.580641357421875,-0.0556488037109375,1.5509796142578125,2.0171966552734375
1663860966723498500,9.59049853515625,0.0561981201171875,1.7043914794921875,2.044891357421875
1663860966733355800,9.600355712890625,0.1478118896484375,1.62554931640625,1.828643798828125
1663860966743274000,9.61027392578125,0.21917724609375,1.455108642578125,1.6198577880859375
1663860966753161700,9.62016162109375,0.1446075439453125,1.36669921875,1.6624603271484375
1663860966763019000,9.63001904296875,-0.0556488037109375,1.2420654296875,1.7466278076171875
1663860966772906500,9.639906494140625,-0.258056640625,1.020477294921875,1.6645965576171875
1663860966782794200,9.649794189453125,-0.3880157470703125,0.71368408203125,1.476043701171875
1663860966792682000,9.659681884765625,-0.4561920166015625,0.51873779296875,1.327972412109375
1663860966802569700,9.66956982421875,-0.454071044921875,0.5741424560546875,1.2555389404296875
1663860966812457500,9.67945751953125,-0.4061279296875,0.726470947265625,1.1735076904296875
1663860966822314500,9.689314453125,-0.3560638427734375,0.714752197265625,1.0062713623046875
1663860966832232700,9.699232666015625,-0.2985382080078125,0.5261993408203125,0.7399444580078125
1663860966842090000,9.709090087890624,-0.2314300537109375,0.4026336669921875,0.3862762451171875
1663860966851977700,9.718977783203124,-0.176025390625,0.407958984375,0.0240936279296875
1663860966861834800,9.728834716796875,-0.106781005859375,0.47613525390625,-0.2315673828125
1663860966871722500,9.738722412109375,0.0114593505859375,0.52301025390625,-0.3966827392578125
1663860966881610200,9.7486103515625,0.1499481201171875,0.453765869140625,-0.5745849609375
1663860966891498000,9.758498046875,0.2596588134765625,0.352569580078125,-0.7311859130859375
1663860966901416200,9.768416259765624,0.3299713134765625,0.3099517822265625,-0.916534423828125
1663860966911273200,9.778273193359375,0.382171630859375,0.3440399169921875,-1.1391754150390625
1663860966921161000,9.788160888671875,0.3640594482421875,0.7072906494140625,-1.3884429931640625
1663860966931048700,9.798048583984375,0.4002838134765625,0.9842681884765625,-1.7346649169921875
1663860966940905700,9.80790576171875,0.518524169921875,0.61248779296875,-2.037200927734375
1663860966950824000,9.817823974609375,0.5345001220703125,0.075592041015625,-2.18634033203125
1663860966960681200,9.82768115234375,0.4322357177734375,-0.049041748046875,-2.17034912109375
1663860966970569000,9.83756884765625,0.347015380859375,-0.0096282958984375,-2.0766143798828125
1663860966980487200,9.847487060546875,0.35980224609375,-0.0778045654296875,-2.1682281494140625
1663860966990375000,9.857375,0.506805419921875,-0.1438446044921875,-2.6103057861328125
1663860967000262700,9.8672626953125,0.7379608154296875,0.05108642578125,-3.0087127685546875
1663860967010150100,9.877150146484375,0.8530120849609375,0.57733154296875,-2.972503662109375
1663860967020038000,9.887037841796875,0.7901611328125,0.8287353515625,-2.8606414794921875
1663860967029925600,9.896925537109375,0.8551483154296875,0.5059661865234375,-3.1493377685546875
1663860967039813400,9.9068134765625,1.1757965087890625,0.1160736083984375,-3.6968841552734375
1663860967049670400,9.91667041015625,1.4112091064453125,0.2215423583984375,-3.9962158203125
1663860967059558100,9.92655810546875,1.375,1.0769500732421875,-3.811920166015625
1663860967069415400,9.93641552734375,1.1715240478515625,1.4252777099609375,-3.1919403076171875
1663860967079303200,9.94630322265625,0.9680633544921875,0.5837249755859375,-2.7690277099609375
1663860967089160200,9.95616015625,0.9094696044921875,-0.0522308349609375,-2.927764892578125
1663860967099078400,9.966078369140625,1.0373077392578125,0.22686767578125,-3.3773040771484375
1663860967108966100,9.975966064453125,1.2578125,0.7094268798828125,-3.81298828125
1663860967118854000,9.98585400390625,1.4346466064453125,0.940582275390625,-4.0686492919921875
1663860967128711000,9.9957109375,1.477264404296875,0.5155487060546875,-3.9259033203125
1663860967138598700,10.0055986328125,1.510284423828125,-0.02667236328125,-3.896087646484375
1663860967148486400,10.015486328125,1.6402435302734375,0.256683349609375,-4.1389617919921875
1663860967158374100,10.0253740234375,1.860748291015625,0.7999725341796875,-4.133636474609375
1663860967168262000,10.035261962890624,2.0631561279296875,1.0854644775390625,-3.8875579833984375
1663860967178149400,10.0451494140625,2.1569061279296875,0.7328643798828125,-3.67877197265625
1663860967188037000,10.055037109375,2.1110992431640625,0.25775146484375,-3.540283203125
1663860967197924900,10.0649248046875,2.0535736083984375,0.42926025390625,-3.383697509765625
1663860967207812600,10.0748125,2.0770111083984375,0.7893218994140625,-3.325103759765625
1663860967217700400,10.084700439453124,2.0184173583984375,0.6305999755859375,-3.3048553466796875
1663860967227588000,10.094588134765624,1.794708251953125,0.2055511474609375,-3.1472015380859375
1663860967237475600,10.1044755859375,1.45489501953125,-0.231201171875,-2.8159027099609375
1663860967247332900,10.114332763671875,0.9339752197265625,-0.427215576171875,-2.4377288818359375
1663860967257220600,10.124220703125,0.4343719482421875,-0.3057708740234375,-2.140533447265625
1663860967267077600,10.13407763671875,0.4194488525390625,-0.469818115234375,-1.912567138671875
1663860967276965400,10.14396533203125,0.37896728515625,-0.87994384765625,-1.682464599609375
1663860967286853000,10.15385302734375,0.0689849853515625,-0.8639678955078125,-1.2883148193359375
1663860967296740900,10.163740966796874,-0.0513916015625,-0.4027099609375,-0.7546234130859375
1663860967306628600,10.173628662109374,0.14141845703125,-0.0650177001953125,-0.3167877197265625
1663860967316485600,10.183485595703125,0.5813751220703125,0.384521484375,-0.129302978515625
1663860967326403800,10.19340380859375,1.2333221435546875,0.724334716796875,-0.2518157958984375
1663860967336291600,10.20329150390625,1.0724639892578125,0.38238525390625,-0.3860321044921875
1663860967346179300,10.213179443359374,0.4471435546875,0.4004974365234375,-0.1847076416015625
1663860967356067000,10.223067138671874,0.3981475830078125,0.86175537109375,0.119964599609375
1663860967365924000,10.232924072265625,0.5121307373046875,0.6732025146484375,0.2371368408203125
1663860967375781400,10.242781494140624,0.173370361328125,0.1501617431640625,0.2637786865234375
1663860967385699600,10.252699462890625,-0.2282257080078125,0.21087646484375,0.2754974365234375
1663860967395556600,10.262556640625,-0.10784912109375,0.611419677734375,0.5354156494140625
1663860967405444400,10.2724443359375,0.0316925048828125,0.6156768798828125,0.7985382080078125
1663860967415332000,10.28233203125,-0.00665283203125,0.6178131103515625,0.8358154296875
1663860967425219800,10.2922197265625,-0.0790863037109375,0.601837158203125,0.860321044921875
1663860967435107600,10.302107666015624,-0.165374755859375,0.4569549560546875,0.998809814453125
1663860967444995000,10.3119951171875,-0.2729644775390625,0.416473388671875,1.06805419921875
1663860967454852400,10.321852294921875,-0.23675537109375,0.5294036865234375,1.13623046875
1663860967464740000,10.331739990234375,-0.08441162109375,0.5613555908203125,1.2789764404296875
1663860967474627800,10.3416279296875,-0.120635986328125,0.4217987060546875,1.4046783447265625
1663860967484515600,10.351515625,-0.3443450927734375,0.3216705322265625,1.405731201171875
1663860967494403000,10.361403076171875,-0.4530029296875,0.258819580078125,1.4600677490234375
1663860967504260400,10.37126025390625,-0.3997344970703125,0.296112060546875,1.715728759765625
1663860967514148000,10.381148193359374,-0.2878875732421875,0.4356536865234375,1.8808441162109375
1663860967524035800,10.391035888671874,-0.1131744384765625,0.4601593017578125,1.873382568359375
1663860967533923300,10.40092333984375,-0.0812225341796875,0.280120849609375,2.0171966552734375
1663860967543811000,10.41081103515625,-0.1962738037109375,0.5261993408203125,2.5221405029296875
1663860967553698800,10.42069873046875,-0.1834869384765625,0.9618988037109375,2.9716796875
1663860967563556000,10.43055615234375,-0.0908050537109375,0.8106231689453125,2.93438720703125
1663860967573443600,10.440443603515625,-0.304931640625,0.09796142578125,2.824676513671875
1663860967583331300,10.450331298828125,-0.6937408447265625,-0.1129608154296875,2.912017822265625
1663860967593219000,10.460218994140625,-0.745941162109375,0.39410400390625,3.09417724609375
1663860967603106800,10.47010693359375,-0.666046142578125,0.0255279541015625,3.2039031982421875
1663860967612994600,10.47999462890625,-0.6969451904296875,-0.40057373046875,3.2049713134765625
1663860967622882000,10.489882080078125,-0.6553955078125,0.258819580078125,3.1793975830078125
1663860967632769800,10.499769775390625,-0.3986663818359375,0.738189697265625,3.029205322265625
1663860967642657500,10.509657470703125,-0.0822906494140625,0.5261993408203125,2.8054962158203125
1663860967652545300,10.519545166015625,-0.052459716796875,0.3770599365234375,2.775665283203125
1663860967662433000,10.52943310546875,-0.199462890625,0.6977081298828125,3.0302734375
1663860967672290000,10.5392900390625,-0.2985382080078125,1.2250213623046875,3.4073638916015625
1663860967682177800,10.549177734375,-0.2751007080078125,1.4977264404296875,3.5330657958984375
1663860967692065500,10.5590654296875,-0.073760986328125,1.5967864990234375,3.185791015625
1663860967701953300,10.568953369140624,0.2522125244140625,1.6351470947265625,2.6137542724609375
1663860967711810300,10.578810302734375,0.393890380859375,1.0087738037109375,2.288848876953125
1663860967721698000,10.588697998046875,0.2724456787109375,0.145904541015625,2.3516998291015625
1663860967731585800,10.598585693359375,0.4300994873046875,0.8553619384765625,2.4741973876953125
1663860967741504000,10.60850390625,0.6271820068359375,1.568023681640625,2.376190185546875
1663860967751361300,10.618361328125,0.5131988525390625,0.5858612060546875,1.9852447509765625
1663860967761248800,10.628248779296875,0.504669189453125,-0.333465576171875,1.4249114990234375
1663860967771136500,10.638136474609375,0.600555419921875,0.237518310546875,1.3471527099609375
1663860967781024300,10.648024169921875,0.4876251220703125,0.736053466796875,1.501617431640625
1663860967790912000,10.657912109375,0.46099853515625,0.7744140625,1.4238433837890625
1663860967800799700,10.6677998046875,0.55474853515625,0.736053466796875,1.2342376708984375
1663860967810656800,10.67765673828125,0.46099853515625,0.5847930908203125,0.9902801513671875
1663860967820544500,10.68754443359375,0.3150634765625,0.564544677734375,0.7303619384765625
1663860967830432300,10.697432373046874,0.276702880859375,0.4026336669921875,0.4906768798828125
1663860967840289300,10.707289306640625,0.2724456787109375,0.0585479736328125,0.2062530517578125
1663860967850177000,10.717177001953125,0.2745819091796875,-0.20989990234375,-0.1122589111328125
1663860967860095200,10.72709521484375,0.3427581787109375,0.07879638671875,-0.3860321044921875
1663860967869983000,10.73698291015625,0.42584228515625,0.9107666015625,-0.52984619140625
1663860967879870700,10.74687060546875,0.4226531982421875,1.2676239013671875,-0.5500946044921875
1663860967889758500,10.756758544921874,0.323577880859375,0.7648162841796875,-0.567138671875
1663860967899646000,10.76664599609375,0.3097381591796875,0.2417755126953125,-0.69921875
1663860967909533700,10.77653369140625,0.37152099609375,-0.037322998046875,-0.94317626953125
1663860967919421400,10.78642138671875,0.38323974609375,-0.1662139892578125,-1.1519622802734375
1663860967929309200,10.79630908203125,0.357666015625,-0.4197540283203125,-1.224395751953125
1663860967939197000,10.806197021484374,0.368316650390625,-0.5241546630859375,-1.2116241455078125
1663860967949084700,10.816084716796874,0.41412353515625,-0.347320556640625,-1.1849822998046875
1663860967958972200,10.82597216796875,0.44927978515625,-0.286590576171875,-1.043304443359375
1663860967968829400,10.835829345703125,0.439697265625,-0.47088623046875,-0.824920654296875
1663860967978717200,10.84571728515625,0.370452880859375,-0.6573028564453125,-0.6608734130859375
1663860967988605000,10.85560498046875,0.3182525634765625,-0.366485595703125,-0.481903076171875
1663860967998492400,10.865492431640625,0.2490081787109375,-0.060760498046875,-0.373260498046875
1663860968008380200,10.875380126953125,0.1243743896484375,-0.4762115478515625,-0.5362396240234375
1663860968018237400,10.885237548828124,-0.0098419189453125,-1.2559814453125,-0.9452972412109375
1663860968028094500,10.895094482421875,-0.1014556884765625,-1.054656982421875,-1.2489013671875
1663860968037982200,10.904982177734375,-0.155792236328125,-0.4378662109375,-1.282989501953125
1663860968047870000,10.914869873046875,-0.120635986328125,0.0372467041015625,-1.23504638671875
1663860968057757700,10.9247578125,-0.153656005859375,-0.08099365234375,-1.3213348388671875
1663860968067614700,10.93461474609375,-0.153656005859375,-0.3952484130859375,-1.576995849609375
1663860968077533000,10.944532958984375,-0.050323486328125,-0.3718109130859375,-1.7879180908203125
1663860968087390200,10.95439013671875,0.0615234375,-0.4293365478515625,-1.8816680908203125
1663860968097308400,10.964308349609375,0.1478118896484375,-0.629608154296875,-1.953033447265625
1663860968107196200,10.974196044921875,0.2330322265625,-0.723358154296875,-2.0063018798828125
1663860968117084000,10.984083984375,0.335296630859375,-0.74359130859375,-2.037200927734375
1663860968126971400,10.993971435546875,0.4322357177734375,-0.6956634521484375,-2.1096343994140625
1663860968136859100,11.003859130859375,0.58563232421875,-0.4517059326171875,-2.1415863037109375
1663860968146747000,11.013746826171875,0.69854736328125,-0.3036346435546875,-2.147979736328125
1663860968156634600,11.023634521484375,0.687896728515625,-0.3047027587890625,-2.230010986328125
1663860968166492000,11.033491943359374,0.6847076416015625,-0.072479248046875,-2.308837890625
1663860968176379400,11.04337939453125,0.847686767578125,0.3078155517578125,-2.2896575927734375
1663860968186267100,11.05326708984375,0.9361114501953125,0.1480255126953125,-2.333343505859375
1663860968196124400,11.06312451171875,0.8306427001953125,-0.0650177001953125,-2.4760894775390625
1663860968205981400,11.0729814453125,0.7667236328125,0.0361785888671875,-2.5538482666015625
1663860968215899600,11.082899658203125,0.7976226806640625,-0.1481170654296875,-2.60498046875
1663860968225757000,11.0927568359375,0.7667236328125,-0.368621826171875,-2.56982421875
1663860968235675100,11.102675048828125,0.7603302001953125,-0.35797119140625,-2.47821044921875
1663860968245563000,11.11256298828125,0.709197998046875,-0.3835296630859375,-2.48992919921875
1663860968255450600,11.12245068359375,0.5824432373046875,-0.4442596435546875,-2.54852294921875
1663860968265307600,11.1323076171875,0.528106689453125,-0.4314727783203125,-2.457977294921875
1663860968275195400,11.1421953125,0.55047607421875,-0.5625,-2.33441162109375
1663860968285083100,11.152083251953124,0.4450225830078125,-0.87249755859375,-2.34185791015625
1663860968294971000,11.161970947265624,0.334228515625,-0.7340087890625,-2.19378662109375
1663860968304858400,11.1718583984375,0.393890380859375,-0.563568115234375,-2.0627593994140625
1663860968314746000,11.18174609375,0.426910400390625,-0.4144287109375,-1.999908447265625
1663860968324633900,11.1916337890625,0.469512939453125,-0.1907196044921875,-1.889129638671875
1663860968334521600,11.201521484375,0.5174560546875,-0.0543670654296875,-1.898712158203125
1663860968344378600,11.211378662109375,0.553680419921875,0.25030517578125,-1.8262786865234375
1663860968354266400,11.221266357421875,0.6399688720703125,0.5251312255859375,-1.680328369140625
1663860968364123600,11.23112353515625,0.67510986328125,0.5634918212890625,-1.6036376953125
1663860968374041900,11.241041748046875,0.561126708984375,0.49957275390625,-1.5450439453125
1663860968383899100,11.250899169921874,0.382171630859375,0.52301025390625,-1.4363861083984375
1663860968393786600,11.26078662109375,0.3640594482421875,0.592254638671875,-1.193511962890625
1663860968403674400,11.27067431640625,0.4002838134765625,0.5847930908203125,-0.91546630859375
1663860968413562000,11.28056201171875,0.381103515625,0.7307281494140625,-0.7173309326171875
1663860968423419400,11.29041943359375,0.52703857421875,0.818084716796875,-0.521331787109375
1663860968433337600,11.300337646484374,0.5579376220703125,0.5144805908203125,-0.33917236328125
1663860968443225000,11.31022509765625,0.471649169921875,0.58905029296875,-0.0451507568359375
1663860968453112800,11.32011279296875,0.2298431396484375,0.4335174560546875,0.232879638671875
1663860968462970000,11.32997021484375,0.060455322265625,0.5517730712890625,0.6472625732421875
1663860968472857900,11.33985791015625,0.3278350830078125,0.8436431884765625,1.0584564208984375
1663860968482715000,11.34971484375,0.313995361328125,0.5475006103515625,1.2651214599609375
1663860968492602600,11.3596025390625,-0.1217041015625,0.2407073974609375,1.466461181640625
1663860968502520800,11.369520751953125,-0.2431488037109375,0.5911865234375,1.67950439453125
1663860968512408600,11.37940869140625,-0.075897216796875,0.498504638671875,1.852081298828125
1663860968522296300,11.38929638671875,-0.3209075927734375,-0.072479248046875,1.9841766357421875
1663860968532183800,11.399183837890625,-0.6277008056640625,-0.09271240234375,2.0417022705078125
1663860968542071600,11.409071533203125,-0.49560546875,0.303558349609375,2.0438385009765625
1663860968551959300,11.418959228515625,-0.393341064453125,-0.035186767578125,2.023590087890625
1663860968561816600,11.428816650390624,-0.5233001708984375,-0.2397308349609375,2.0417022705078125
1663860968571673600,11.438673583984375,-0.53289794921875,0.0947723388671875,2.0843048095703125
1663860968581591800,11.448591796875,-0.5158538818359375,0.077728271484375,2.15142822265625
1663860968591479600,11.4584794921875,-0.6522064208984375,-0.152374267578125,2.4049530029296875
1663860968601367300,11.4683671875,-0.7331695556640625,0.2545623779296875,2.6797943115234375
1663860968611224300,11.478224365234375,-0.56591796875,0.5709381103515625,2.686187744140625
1663860968621112000,11.488112060546875,-0.45086669921875,0.3312530517578125,2.6829833984375
1663860968630969300,11.49796923828125,-0.53076171875,0.15655517578125,2.8758087158203125
1663860968640887600,11.507887451171875,-0.6969451904296875,0.31634521484375,3.1272125244140625
1663860968650775300,11.517775390625,-0.7768402099609375,0.5837249755859375,3.26995849609375
1663860968660663000,11.5276630859375,-0.769378662109375,0.395172119140625,3.162353515625
1663860968670550500,11.537550537109375,-0.748077392578125,0.428192138671875,2.9855194091796875
1663860968680438300,11.547438232421875,-0.6532745361328125,0.5837249755859375,2.9418487548828125
1663860968690295600,11.557295654296874,-0.736358642578125,-0.0437164306640625,2.95782470703125
1663860968700183300,11.567183349609374,-0.8929595947265625,-0.039459228515625,3.0004425048828125
1663860968710040300,11.577040283203125,-0.78216552734375,0.7776031494140625,3.052642822265625
1663860968719958500,11.58695849609375,-0.56378173828125,0.9714813232421875,3.0196075439453125
1663860968729846300,11.59684619140625,-0.3539276123046875,0.6412506103515625,2.9514312744140625
1663860968739703600,11.60670361328125,-0.1515350341796875,0.7658843994140625,2.8832550048828125
1663860968749591000,11.616591064453125,0.0380859375,1.1536407470703125,2.787384033203125
1663860968759478800,11.626478759765625,0.1744384765625,0.8457794189453125,2.5626220703125
1663860968769366500,11.636366455078125,0.4759063720703125,0.7339324951171875,2.32293701171875
1663860968779254300,11.646254150390625,0.73583984375,1.0034332275390625,2.288848876953125
1663860968789111300,11.656111328125,0.64208984375,0.6529693603515625,2.2142791748046875
1663860968799029500,11.666029541015625,0.63037109375,0.442047119140625,1.969268798828125
1663860968808917200,11.675917236328125,0.7273101806640625,0.8681488037109375,1.7998809814453125
1663860968818774500,11.6857744140625,0.596282958984375,0.6859893798828125,1.6518096923828125
1663860968828631600,11.695631591796875,0.4460906982421875,0.192779541015625,1.3428802490234375
1663860968838549800,11.7055498046875,0.416259765625,0.35894775390625,1.0850982666015625
1663860968848437500,11.7154375,0.369384765625,0.2620086669921875,0.9647216796875
1663860968858325200,11.7253251953125,0.401336669921875,0.2716064453125,0.76763916015625
1663860968868182500,11.7351826171875,0.4418182373046875,0.5869140625,0.5929412841796875
1663860968878070300,11.7450703125,0.357666015625,0.5400543212890625,0.44061279296875
1663860968887927300,11.75492724609375,0.335296630859375,0.716888427734375,0.174285888671875
1663860968897845500,11.764845458984375,0.310791015625,0.761627197265625,-0.0472869873046875
1663860968907733200,11.774733154296875,0.220245361328125,0.4484405517578125,-0.29229736328125
1663860968917621000,11.78462109375,0.1808319091796875,0.2673492431640625,-0.6044158935546875
1663860968927478000,11.79447802734375,0.1254425048828125,-0.02880859375,-0.869659423828125
1663860968937365800,11.80436572265625,0.1435546875,0.06280517578125,-1.112548828125
1663860968947253500,11.81425341796875,0.2500762939453125,0.336578369140625,-1.1999053955078125
1663860968957110800,11.82411083984375,0.210662841796875,-0.095916748046875,-1.18072509765625
1663860968966998300,11.833998291015625,0.2383575439453125,-0.0447845458984375,-1.1967010498046875
1663860968976916500,11.84391650390625,0.3395538330078125,0.0734710693359375,-1.0347900390625
1663860968986804200,11.85380419921875,0.311859130859375,-0.55291748046875,-0.838775634765625
1663860968996692000,11.86369189453125,0.2969512939453125,-0.6796722412109375,-0.8579559326171875
1663860969006579700,11.873579833984374,0.416259765625,-0.2482452392578125,-0.8430328369140625
1663860969016467500,11.883467529296874,0.3512725830078125,-0.5678253173828125,-0.838775634765625
1663860969026355000,11.89335498046875,0.2585906982421875,-0.6285400390625,-1.076324462890625
1663860969036242700,11.90324267578125,0.333160400390625,-0.2397308349609375,-1.304290771484375
1663860969046130400,11.91313037109375,0.241546630859375,-0.881011962890625,-1.442779541015625
1663860969056018200,11.92301806640625,0.21173095703125,-1.1015167236328125,-1.6515655517578125
1663860969065875200,11.932875244140625,0.345947265625,-0.119354248046875,-1.74957275390625
1663860969075763000,11.942762939453125,0.212799072265625,-0.0831298828125,-1.6398468017578125
1663860969085620200,11.9526201171875,0.04766845703125,-0.5859375,-1.693115234375
1663860969095508000,11.962508056640624,0.0774993896484375,-0.4176177978515625,-1.9029693603515625
1663860969105395700,11.972395751953124,0.0807037353515625,-0.28765869140625,-2.01483154296875
1663860969115283200,11.982283203125,0.1020050048828125,-0.356903076171875,-2.0872650146484375
1663860969125140500,11.992140380859375,0.2277069091796875,-0.345184326171875,-2.1543731689453125
1663860969135058700,12.00205859375,0.4333038330078125,-0.380340576171875,-2.2001800537109375
1663860969144946400,12.011946533203124,0.7070770263671875,-0.7105712890625,-2.30670166015625
1663860969154834200,12.021834228515624,0.9009552001953125,-1.0376129150390625,-2.469696044921875
1663860969164691200,12.031691162109375,1.0138702392578125,-1.09619140625,-2.537872314453125
1663860969174579000,12.041578857421875,1.102294921875,-0.9949951171875,-2.4771575927734375
1663860969184466700,12.051466796875,1.0458221435546875,-0.6711578369140625,-2.319488525390625
1663860969194354400,12.0613544921875,0.9904327392578125,-0.5933837890625,-2.274749755859375
1663860969204242000,12.071241943359375,0.859405517578125,-1.0695648193359375,-2.502716064453125
1663860969214129700,12.081129638671875,0.654876708984375,-0.9364013671875,-2.608184814453125
1663860969223987000,12.090987060546874,0.713470458984375,-0.629608154296875,-2.59539794921875
1663860969233874700,12.100874755859374,0.791229248046875,-0.9534454345703125,-2.7061767578125
1663860969243762200,12.11076220703125,0.709197998046875,-0.8533172607421875,-2.6827392578125
1663860969253619500,12.120619384765625,0.676177978515625,-0.481536865234375,-2.6454620361328125
1663860969263507200,12.130507080078125,0.71453857421875,-0.450653076171875,-2.7264251708984375
1663860969273425400,12.14042529296875,0.7262420654296875,-0.51776123046875,-2.751983642578125
1663860969283282400,12.150282470703125,0.713470458984375,-0.2919158935546875,-2.718963623046875
1663860969293200600,12.16020068359375,0.720916748046875,-0.0213470458984375,-2.570892333984375
1663860969303058000,12.170057861328125,0.7422332763671875,-0.082061767578125,-2.43560791015625
1663860969312945700,12.179945556640625,0.7198638916015625,-0.035186767578125,-2.35357666015625
1663860969322802700,12.189802734375,0.7763214111328125,0.1863861083984375,-2.2694244384765625
1663860969332721200,12.19972119140625,0.746490478515625,0.032989501953125,-2.2790069580078125
1663860969342608600,12.209608642578125,0.469512939453125,-0.0682220458984375,-2.20550537109375
1663860969352496400,12.219496337890625,0.288421630859375,0.04150390625,-1.9658203125
1663860969362384100,12.229384033203125,0.20001220703125,-0.02880859375,-1.704833984375
1663860969372241400,12.239241455078124,0.1478118896484375,-0.0714111328125,-1.5716705322265625
1663860969382098400,12.249098388671875,0.1115875244140625,-0.095916748046875,-1.565277099609375
1663860969391986200,12.258986083984375,-0.06097412109375,-0.1065673828125,-1.4960479736328125
1663860969401874000,12.2688740234375,-0.190948486328125,-0.00323486328125,-1.236114501953125
1663860969411792100,12.278792236328124,-0.07696533203125,0.188507080078125,-1.0603485107421875
1663860969421649200,12.288649169921875,0.0572662353515625,0.4452362060546875,-1.041168212890625
1663860969431567400,12.2985673828125,0.105194091796875,0.52301025390625,-0.780181884765625
1663860969441455000,12.308455078125,0.0146484375,0.4931793212890625,-0.3402252197265625
1663860969451342800,12.3183427734375,-0.1163787841796875,0.5847930908203125,-0.063262939453125
1663860969461200100,12.3282001953125,-0.1142425537109375,0.7275390625,0.293609619140625
1663860969471057200,12.33805712890625,-0.0833587646484375,0.6849212646484375,0.6451416015625
1663860969480945000,12.34794482421875,-0.223968505859375,0.360015869140625,0.6515350341796875
1663860969490863000,12.357863037109375,-0.56378173828125,0.1160736083984375,0.8454132080078125
1663860969500750800,12.367750732421875,-0.6319580078125,0.477203369140625,1.40679931640625
1663860969510608000,12.37760791015625,-0.350738525390625,0.6636199951171875,1.60174560546875
1663860969520465200,12.387465087890625,-0.2772369384765625,0.385589599609375,1.4707183837890625
1663860969530383400,12.39738330078125,-0.405059814453125,0.190643310546875,1.7562103271484375
1663860969540271000,12.40727099609375,-0.5691070556640625,0.4015655517578125,2.1524810791015625
1663860969550128000,12.417128173828125,-0.600006103515625,0.714752197265625,2.1791229248046875
1663860969560046600,12.427046630859374,-0.484954833984375,0.4569549560546875,2.2430419921875
1663860969569903600,12.436903564453125,-0.609588623046875,0.1277923583984375,2.44329833984375
1663860969579791400,12.446791259765625,-0.7981414794921875,0.4037017822265625,2.57220458984375
1663860969589679000,12.45667919921875,-0.7321014404296875,0.4484405517578125,2.80975341796875
1663860969599566800,12.46656689453125,-0.71185302734375,0.349365234375,3.1261444091796875
1663860969609424000,12.476423828125,-0.7448883056640625,0.5475006103515625,3.177276611328125
1663860969619342000,12.486342041015625,-0.6862945556640625,0.4228668212890625,3.0238800048828125
1663860969629229800,12.496229736328125,-0.75872802734375,0.190643310546875,3.1250762939453125
1663860969639117600,12.50611767578125,-0.8130645751953125,0.47613525390625,3.2603607177734375
1663860969649005300,12.51600537109375,-0.7960205078125,0.724334716796875,3.18792724609375
1663860969658892800,12.525892822265625,-0.745941162109375,0.6764068603515625,3.231597900390625
1663860969668750000,12.53575,-0.5936126708984375,0.4271392822265625,3.2976531982421875
1663860969678607400,12.545607421875,-0.4764404296875,0.09051513671875,3.2017669677734375
1663860969688525600,12.555525634765624,-0.5147857666015625,-0.08526611328125,3.1666259765625
1663860969698382600,12.565382568359375,-0.6159820556640625,0.0724029541015625,3.2635650634765625
1663860969708300800,12.57530078125,-0.6500701904296875,0.4367218017578125,3.2252044677734375
1663860969718188500,12.5851884765625,-0.5616607666015625,0.6551055908203125,2.9365234375
1663860969728076300,12.595076171875,-0.4561920166015625,0.396240234375,2.6233367919921875
1663860969737964000,12.604964111328124,-0.4316864013671875,-0.0000457763671875,2.500823974609375
1663860969747851500,12.6148515625,-0.49774169921875,-0.138519287109375,2.573272705078125
1663860969757739300,12.6247392578125,-0.564849853515625,0.0361785888671875,2.7010955810546875
1663860969767627000,12.634626953125,-0.3869476318359375,0.5027618408203125,2.6787261962890625
1663860969777514800,12.6445146484375,-0.0833587646484375,0.5507049560546875,2.505096435546875
1663860969787402500,12.654402587890624,0.1499481201171875,0.13311767578125,2.29522705078125
1663860969797259500,12.664259521484375,0.3779144287109375,0.371734619140625,2.140777587890625
1663860969807147300,12.674147216796875,0.4183807373046875,0.5368499755859375,2.0310516357421875
1663860969817035000,12.684034912109375,0.3161163330078125,0.4132843017578125,1.8478240966796875
1663860969826922800,12.6939228515625,0.333160400390625,0.4953155517578125,1.6038818359375
1663860969836810500,12.703810546875,0.3384857177734375,0.303558349609375,1.4014739990234375
1663860969846698000,12.713697998046875,0.3534088134765625,0.578399658203125,1.137298583984375
1663860969856585700,12.723585693359375,0.3640594482421875,0.9501800537109375,0.91571044921875
1663860969866443000,12.733443115234374,0.1978759765625,0.1874542236328125,0.735687255859375
1663860969876330800,12.743330810546874,0.1723175048828125,0.0937042236328125,0.40545654296875
1663860969886187800,12.753187744140625,0.30120849609375,0.7797393798828125,0.2286224365234375
1663860969896075500,12.763075439453125,0.267120361328125,0.6551055908203125,0.1593780517578125
1663860969905932800,12.772932861328124,0.1925506591796875,0.3802642822265625,-0.1048126220703125
1663860969915851000,12.78285107421875,0.1808319091796875,0.2321929931640625,-0.3604736328125
1663860969925738500,12.792738525390625,0.121185302734375,-0.016021728515625,-0.5245208740234375
1663860969935626200,12.802626220703125,0.142486572265625,0.484649658203125,-0.65447998046875
1663860969945483500,12.8124833984375,0.2138519287109375,0.69024658203125,-0.6363677978515625
1663860969955371300,12.822371337890624,0.116912841796875,0.1427001953125,-0.63104248046875
1663860969965228300,12.832228271484375,-0.0130462646484375,-0.1438446044921875,-0.7088165283203125
1663860969975146500,12.842146484375,-0.0801544189453125,-0.5113677978515625,-0.7620697021484375
1663860969985003800,12.852003662109375,-0.1451416015625,-0.7947235107421875,-0.824920654296875
1663860969994891500,12.8618916015625,-0.0343475341796875,-0.301513671875,-0.8707275390625
1663860970004748500,12.87174853515625,0.0679168701171875,-0.323883056640625,-0.7855072021484375
1663860970014636300,12.88163623046875,-0.11956787109375,-0.83306884765625,-0.8664703369140625
1663860970024524000,12.89152392578125,-0.1930694580078125,-0.5454559326171875,-1.1200103759765625
1663860970034411800,12.901411865234374,-0.1153106689453125,-0.4900665283203125,-1.2403717041015625
1663860970044299500,12.911299560546874,-0.130218505859375,-0.7158966064453125,-1.337310791015625
1663860970054217700,12.9212177734375,-0.0982666015625,-0.3973846435546875,-1.3809967041015625
1663860970064074800,12.93107470703125,-0.1579132080078125,-0.0682220458984375,-1.285125732421875
1663860970073932000,12.94093212890625,-0.3219757080078125,-0.08099365234375,-1.3362579345703125
1663860970083850200,12.950850341796874,-0.3901519775390625,-0.1481170654296875,-1.55889892578125
1663860970093707300,12.960707275390625,-0.3230438232421875,-0.3739471435546875,-1.786865234375
1663860970103595000,12.970594970703125,-0.134490966796875,-0.2961883544921875,-2.004180908203125
1663860970113513200,12.98051318359375,0.04022216796875,-0.0202789306640625,-2.1064453125
1663860970123370500,12.99037060546875,0.16485595703125,-0.4282684326171875,-2.173553466796875
