time,seconds_elapsed,z,y,x
1663860957300676400,0.16767626953125,-92.01812744140625,-40.0482177734375,85.8062744140625
1663860957320665300,0.187665283203125,-91.86859130859375,-40.1947021484375,86.41510009765625
1663860957340654600,0.207654541015625,-93.5272216796875,-39.3096923828125,83.67462158203125
1663860957360643600,0.2276435546875,-92.33551025390625,-40.51971435546875,83.9752197265625
1663860957380632600,0.247632568359375,-92.1783447265625,-40.23590087890625,81.536865234375
1663860957400621600,0.26762158203125,-93.072509765625,-39.32952880859375,81.08367919921875
1663860957420610600,0.287610595703125,-93.09234619140625,-40.1031494140625,79.5562744140625
1663860957440599600,0.307599609375,-94.354248046875,-42.06695556640625,81.22100830078125
1663860957460558000,0.32755810546875,-95.11871337890625,-42.0806884765625,79.6966552734375
1663860957480577500,0.34757763671875,-94.99664306640625,-43.44329833984375,80.29937744140625
1663860957500566500,0.36756640625,-96.00677490234375,-40.869140625,79.54864501953125
1663860957520555500,0.387555419921875,-95.27130126953125,-41.9586181640625,76.19171142578125
1663860957540544500,0.40754443359375,-95.7183837890625,-41.63055419921875,79.24041748046875
1663860957560533500,0.427533447265625,-97.11761474609375,-42.71087646484375,77.7099609375
1663860957580522800,0.447522705078125,-96.044921875,-42.41943359375,75.88348388671875
1663860957600511700,0.46751171875,-95.93505859375,-44.378662109375,77.85491943359375
1663860957620500700,0.487500732421875,-95.33233642578125,-44.56024169921875,74.0447998046875
1663860957640489700,0.50748974609375,-95.1812744140625,-44.69146728515625,76.483154296875
1663860957660478700,0.527478759765625,-95.64056396484375,-44.708251953125,74.65362548828125
1663860957680467700,0.5474677734375,-95.947265625,-44.71893310546875,73.4344482421875
1663860957700456700,0.567456787109375,-95.02716064453125,-44.55108642578125,75.1129150390625
1663860957720445700,0.58744580078125,-96.13494873046875,-46.37298583984375,75.55999755859375
1663860957740404200,0.607404296875,-95.34912109375,-45.318603515625,74.346923828125
1663860957760423700,0.627423583984375,-95.20721435546875,-45.76873779296875,74.9542236328125
1663860957780412700,0.64741259765625,-95.66497802734375,-45.7794189453125,73.8861083984375
1663860957800402000,0.66740185546875,-95.02716064453125,-44.55108642578125,75.1129150390625
1663860957820360200,0.687360107421875,-96.575927734375,-45.61767578125,75.10528564453125
1663860957840380000,0.7073798828125,-95.33538818359375,-44.57855224609375,71.91162109375
1663860957860369000,0.727368896484375,-97.65472412109375,-46.08612060546875,74.03564453125
1663860957880358000,0.74735791015625,-95.35064697265625,-45.32318115234375,73.736572265625
1663860957900316400,0.76731640625,-95.98236083984375,-46.24176025390625,73.12164306640625
1663860957920336000,0.7873359375,-96.905517578125,-46.6949462890625,73.7274169921875
1663860957940324900,0.807324951171875,-95.184326171875,-44.720458984375,73.13079833984375
1663860957960313900,0.82731396484375,-95.8251953125,-46.087646484375,73.2757568359375
1663860957980302800,0.847302734375,-95.068359375,-46.3775634765625,74.798583984375
1663860958000281000,0.867281005859375,-97.38616943359375,-47.61962890625,72.35107421875
1663860958020575500,0.887575439453125,-95.947265625,-44.71893310546875,73.4344482421875
1663860958040503300,0.90750341796875,-96.8597412109375,-44.580078125,72.2137451171875
1663860958060278800,0.92727880859375,-97.198486328125,-46.09375,72.96905517578125
1663860958080237300,0.9472373046875,-95.3399658203125,-44.866943359375,73.73809814453125
1663860958100256800,0.9672568359375,-95.08514404296875,-47.1343994140625,75.09918212890625
1663860958120215300,0.98721533203125,-96.13189697265625,-46.099853515625,71.9024658203125
1663860958140204300,1.007204345703125,-96.7498779296875,-46.54083251953125,73.88153076171875
1663860958160223700,1.0272236328125,-96.13037109375,-46.0906982421875,72.9705810546875
1663860958180182300,1.047182373046875,-95.85723876953125,-47.46246337890625,72.5067138671875
1663860958200171300,1.067171142578125,-96.6278076171875,-47.77679443359375,71.43707275390625
1663860958220160300,1.08716015625,-96.612548828125,-47.16033935546875,72.5067138671875
1663860958240149200,1.107149169921875,-95.8648681640625,-47.7691650390625,72.20001220703125
1663860958260138500,1.127138427734375,-96.1639404296875,-47.47772216796875,70.67718505859375
1663860958280127500,1.14712744140625,-96.75140380859375,-46.55609130859375,72.052001953125
1663860958300116500,1.167116455078125,-95.87554931640625,-48.23455810546875,71.13037109375
1663860958320105500,1.18710546875,-96.1395263671875,-46.4080810546875,71.4447021484375
1663860958340094500,1.207094482421875,-96.91925048828125,-47.16949462890625,71.44012451171875
1663860958360083500,1.22708349609375,-96.15631103515625,-47.1649169921875,71.89788818359375
1663860958380072400,1.247072509765625,-96.337890625,-48.388671875,70.977783203125
1663860958400061400,1.2670615234375,-95.989990234375,-46.5606689453125,71.29058837890625
1663860958420050400,1.287050537109375,-97.674560546875,-46.73919677734375,68.5455322265625
1663860958440039400,1.307039306640625,-98.0224609375,-48.57330322265625,67.46978759765625
1663860958460028400,1.3270283203125,-99.1180419921875,-49.67041015625,63.80462646484375
1663860958480017400,1.347017333984375,-98.78387451171875,-48.32305908203125,61.2213134765625
1663860958500006700,1.367006591796875,-98.9227294921875,-47.4700927734375,54.3670654296875
1663860958519995600,1.38699560546875,-97.44720458984375,-49.34234619140625,48.1109619140625
1663860958539984600,1.406984619140625,-94.92340087890625,-52.12249755859375,42.156982421875
1663860958560065000,1.42706494140625,-92.68646240234375,-54.0130615234375,33.6151123046875
1663860958579962600,1.446962646484375,-84.844970703125,-57.6873779296875,28.57666015625
1663860958599921200,1.466921142578125,-77.85186767578125,-58.21990966796875,17.76123046875
1663860958619940600,1.486940673828125,-69.90509033203125,-57.18536376953125,12.2894287109375
1663860958639929600,1.5069296875,-64.51263427734375,-54.498291015625,5.145263671875
1663860958659918600,1.526918701171875,-57.19451904296875,-47.66998291015625,2.1392822265625
1663860958679907600,1.546907470703125,-54.05120849609375,-36.73858642578125,0.06256103515625
1663860958699896600,1.566896484375,-52.45819091796875,-27.14385986328125,2.093505859375
1663860958719885800,1.5868857421875,-54.66461181640625,-23.760986328125,7.28912353515625
1663860958739905300,1.6069052734375,-54.26177978515625,-19.62738037109375,10.8154296875
1663860958759863800,1.62686376953125,-54.8370361328125,-18.2281494140625,14.63165283203125
1663860958779852800,1.646852783203125,-54.4891357421875,-16.3909912109375,16.1651611328125
1663860958799841800,1.666841796875,-57.0526123046875,-15.17333984375,17.08221435546875
1663860958819830800,1.686830810546875,-60.52093505859375,-13.5009765625,18.00079345703125
1663860958839819800,1.70681982421875,-60.22491455078125,-13.9404296875,19.8272705078125
1663860958859808800,1.726808837890625,-62.5,-13.3514404296875,18.15185546875
1663860958879797800,1.7467978515625,-62.40692138671875,-16.070556640625,20.1202392578125
1663860958899786800,1.766786865234375,-65.63568115234375,-17.156982421875,18.28155517578125
1663860958920111600,1.787111572265625,-65.52886962890625,-19.14215087890625,17.05322265625
1663860958939886800,1.806886962890625,-67.822265625,-19.31304931640625,15.37322998046875
1663860958959754000,1.82675390625,-68.6187744140625,-20.8343505859375,15.3656005859375
1663860958979773400,1.8467734375,-69.24285888671875,-21.44012451171875,15.81878662109375
1663860958999762400,1.866762451171875,-71.05560302734375,-20.68328857421875,15.8203125
1663860959019721000,1.886720947265625,-68.3380126953125,-21.89788818359375,15.3594970703125
1663860959039710000,1.9067099609375,-68.30902099609375,-20.538330078125,14.300537109375
1663860959059699000,1.926698974609375,-66.6656494140625,-22.05810546875,13.9892578125
1663860959079688000,1.94668798828125,-67.77191162109375,-23.8616943359375,16.571044921875
1663860959099677000,1.966677001953125,-67.2821044921875,-22.35870361328125,14.5965576171875
1663860959119666000,1.986666015625,-68.24951171875,-24.64141845703125,14.4317626953125
1663860959139655000,2.006655029296875,-66.72515869140625,-24.64752197265625,13.36669921875
1663860959159613400,2.026613525390625,-64.9017333984375,-24.94659423828125,13.36822509765625
1663860959179633000,2.0466328125,-65.09246826171875,-26.611328125,14.2730712890625
1663860959199622100,2.0666220703125,-62.0758056640625,-27.99530029296875,11.5264892578125
1663860959219611100,2.086611083984375,-62.5152587890625,-27.227783203125,12.59765625
1663860959239600000,2.10660009765625,-61.71112060546875,-25.4058837890625,12.15057373046875
1663860959259558700,2.12655859375,-61.7095947265625,-25.3936767578125,13.67340087890625
1663860959279578000,2.146578125,-62.37030029296875,-20.9716796875,15.5242919921875
1663860959299567000,2.166567138671875,-63.897705078125,-21.12274169921875,16.131591796875
1663860959319556000,2.18655615234375,-64.78424072265625,-19.9005126953125,17.0501708984375
1663860959339545000,2.206545166015625,-65.83404541015625,-19.140625,17.3583984375
1663860959359534000,2.2265341796875,-66.7449951171875,-18.98040771484375,18.5760498046875
1663860959379523000,2.246523193359375,-66.22314453125,-16.2353515625,19.50531005859375
1663860959399512000,2.266511962890625,-66.265869140625,-18.05877685546875,19.49615478515625
1663860959419470600,2.286470703125,-68.66912841796875,-16.52984619140625,21.33026123046875
1663860959439490300,2.306490234375,-67.657470703125,-12.40386962890625,23.78997802734375
1663860959459479300,2.326479248046875,-65.93170166015625,-10.2630615234375,24.8687744140625
1663860959479468300,2.34646826171875,-66.48712158203125,-7.9742431640625,26.0986328125
1663860959499457300,2.366457275390625,-66.3238525390625,-7.513427734375,26.55792236328125
1663860959519446300,2.3864462890625,-68.17779541015625,-8.58154296875,26.55029296875
1663860959539435300,2.406435302734375,-68.1854248046875,-8.88519287109375,26.54876708984375
1663860959559424300,2.42642431640625,-66.48712158203125,-7.96966552734375,26.708984375
1663860959579413200,2.446413330078125,-67.8619384765625,-8.11004638671875,28.38287353515625
1663860959599402200,2.46640234375,-68.32733154296875,-8.42437744140625,27.16064453125
1663860959619391200,2.48639111328125,-66.34674072265625,-8.563232421875,28.38134765625
1663860959639380200,2.506380126953125,-64.959716796875,-7.8216552734375,25.7965087890625
1663860959659369200,2.526369140625,-64.0228271484375,-6.89697265625,27.1728515625
1663860959679358500,2.5463583984375,-62.3504638671875,-7.0526123046875,26.2603759765625
1663860959699347500,2.566347412109375,-61.16790771484375,-8.71734619140625,26.71051025390625
1663860959719336400,2.58633642578125,-62.1917724609375,-6.88934326171875,27.4810791015625
1663860959739325400,2.606325439453125,-62.22686767578125,-8.40606689453125,27.9296875
1663860959759314400,2.626314453125,-61.602783203125,-7.79876708984375,27.62908935546875
1663860959779303400,2.646303466796875,-61.4715576171875,-8.7127685546875,27.471923828125
1663860959799567000,2.666567138671875,-63.134765625,-8.1024169921875,28.08380126953125
1663860959819495200,2.6864951171875,-63.57421875,-7.342529296875,28.23944091796875
1663860959839270400,2.7062705078125,-63.4552001953125,-8.856201171875,28.84063720703125
1663860959859259400,2.72625927734375,-61.1480712890625,-7.94219970703125,28.5430908203125
1663860959879248400,2.746248291015625,-61.70196533203125,-5.5023193359375,29.77447509765625
1663860959899237400,2.7662373046875,-62.01324462890625,-5.926513671875,33.58154296875
1663860959919226600,2.7862265625,-62.44354248046875,-4.71954345703125,32.672119140625
1663860959939215600,2.806215576171875,-61.175537109375,-2.71453857421875,35.73150634765625
1663860959959204600,2.82620458984375,-60.37445068359375,-1.15966796875,39.85595703125
1663860959979193600,2.846193603515625,-58.6669921875,0.07476806640625,41.53900146484375
1663860959999182600,2.8661826171875,-60.772705078125,1.29852294921875,43.06793212890625
1663860960019141000,2.88614111328125,-59.56268310546875,0.8514404296875,43.82781982421875
1663860960039160600,2.90616064453125,-60.02044677734375,0.84381103515625,43.06640625
1663860960059149600,2.926149658203125,-59.5855712890625,-0.07781982421875,41.6900634765625
1663860960079138600,2.946138671875,-59.24224853515625,1.59759521484375,42.00439453125
1663860960099127600,2.96612744140625,-57.1014404296875,1.89361572265625,40.63568115234375
1663860960119116500,2.986116455078125,-55.609130859375,0.52337646484375,39.8681640625
1663860960139075000,3.006074951171875,-55.7403564453125,1.44195556640625,40.78826904296875
1663860960159094800,3.0260947265625,-56.94122314453125,2.20794677734375,41.85638427734375
1663860960179083800,3.046083740234375,-55.71441650390625,2.51312255859375,41.55426025390625
1663860960199072800,3.06607275390625,-57.24639892578125,2.20184326171875,41.094970703125
1663860960219061800,3.086061767578125,-56.6436767578125,1.904296875,41.70379638671875
1663860960239050800,3.10605078125,-56.53228759765625,0.079345703125,41.54205322265625
1663860960259039700,3.126039794921875,-55.2947998046875,0.84228515625,41.69921875
1663860960279028700,3.14602880859375,-55.5877685546875,1.30767822265625,42.76885986328125
1663860960299017700,3.166017822265625,-54.47235107421875,3.43475341796875,42.47589111328125
1663860960319006700,3.1860068359375,-51.7364501953125,2.8778076171875,47.81036376953125
1663860960338995700,3.20599560546875,-51.5869140625,2.72979736328125,48.2666015625
1663860960358984700,3.225984619140625,-50.3448486328125,3.656005859375,49.64447021484375
1663860960378974000,3.245973876953125,-51.72271728515625,3.35693359375,50.7080078125
1663860960398963000,3.265962890625,-50.64697265625,3.67279052734375,51.77764892578125
1663860960418952000,3.285951904296875,-49.151611328125,2.44293212890625,49.79095458984375
1663860960438941000,3.30594091796875,-50.35400390625,3.33251953125,47.35565185546875
1663860960458960400,3.32596044921875,-50.799560546875,3.80401611328125,49.33929443359375
1663860960478919000,3.3459189453125,-49.4415283203125,3.19061279296875,48.27117919921875
1663860960498938400,3.3659384765625,-49.73602294921875,3.515625,50.8636474609375
1663860960518897000,3.38589697265625,-51.56097412109375,3.8055419921875,49.7955322265625
1663860960538886000,3.405885986328125,-48.2086181640625,3.668212890625,50.71258544921875
1663860960558905600,3.425905517578125,-48.37188720703125,3.204345703125,49.79705810546875
1663860960578894600,3.44589453125,-46.6827392578125,3.6834716796875,52.08587646484375
1663860960598883600,3.465883544921875,-46.22955322265625,3.52020263671875,50.56304931640625
1663860960618872600,3.48587255859375,-45.61767578125,3.6590576171875,48.88763427734375
1663860960638861600,3.505861572265625,-45.00274658203125,3.82843017578125,50.8697509765625
1663860960658850600,3.5258505859375,-46.7315673828125,1.544189453125,50.7049560546875
1663860960679266800,3.546266845703125,-46.54083251953125,3.2196044921875,51.17034912109375
1663860960699225300,3.566225341796875,-47.88970947265625,4.2816162109375,51.17340087890625
1663860960718909200,3.5859091796875,-47.4456787109375,3.6773681640625,51.47552490234375
1663860960738776000,3.605776123046875,-47.0123291015625,2.61077880859375,51.01470947265625
1663860960758948000,3.625947998046875,-47.906494140625,3.515625,50.55999755859375
1663860960778784500,3.645784423828125,-47.95074462890625,1.67694091796875,48.72283935546875
1663860960798773800,3.665773681640625,-48.38104248046875,2.76641845703125,51.92718505859375
1663860960818762800,3.6857626953125,-47.60284423828125,3.51715087890625,50.55999755859375
1663860960838751700,3.705751708984375,-46.69036865234375,3.375244140625,51.47552490234375
1663860960858740700,3.72574072265625,-47.7569580078125,3.37677001953125,52.0843505859375
1663860960878760200,3.74576025390625,-46.81549072265625,4.58831787109375,51.17645263671875
1663860960898749200,3.765749267578125,-46.53167724609375,3.5400390625,52.9998779296875
1663860960918738200,3.78573828125,-46.96807861328125,4.4525146484375,53.30963134765625
1663860960938727200,3.80572705078125,-49.38507080078125,5.38330078125,56.0546875
1663860960958716200,3.825716064453125,-48.74725341796875,6.597900390625,55.755615234375
1663860960978705200,3.845705078125,-49.45831298828125,8.87603759765625,55.76629638671875
1663860960998694400,3.8656943359375,-50.7080078125,7.5164794921875,57.13043212890625
1663860961018683400,3.885683349609375,-50.07781982421875,8.29620361328125,59.2681884765625
1663860961038611200,3.905611083984375,-54.04205322265625,8.2977294921875,60.4827880859375
1663860961058600200,3.92560009765625,-56.76422119140625,9.21478271484375,61.7034912109375
1663860961078589200,3.945589111328125,-58.2672119140625,10.1287841796875,62.31536865234375
1663860961098578400,3.965578369140625,-59.18426513671875,9.98687744140625,63.83819580078125
1663860961118567400,3.9855673828125,-59.36737060546875,8.624267578125,64.44091796875
1663860961138556400,4.005556396484375,-60.70556640625,10.009765625,66.8853759765625
1663860961158545400,4.02554541015625,-64.05487060546875,10.1776123046875,69.62432861328125
1663860961178504000,4.04550390625,-64.83154296875,9.44061279296875,72.515869140625
1663860961198523400,4.0655234375,-66.02783203125,10.3729248046875,75.262451171875
1663860961218512400,4.085512451171875,-66.49932861328125,9.6343994140625,77.84881591796875
1663860961238501400,4.10550146484375,-66.9952392578125,7.70263671875,83.172607421875
1663860961258490400,4.125490478515625,-66.66412353515625,8.79364013671875,86.3800048828125
1663860961278582800,4.145582763671875,-64.0899658203125,7.77587890625,91.253662109375
1663860961298541300,4.165541259765625,-61.41357421875,4.7515869140625,92.462158203125
1663860961318530300,4.1855302734375,-59.29718017578125,3.729248046875,96.8780517578125
1663860961338519300,4.205519287109375,-58.11614990234375,2.0599365234375,96.7193603515625
1663860961358508300,4.22550830078125,-56.0150146484375,0.41656494140625,99.609375
1663860961378497300,4.245497314453125,-52.545166015625,-1.23748779296875,100.823974609375
1663860961398608400,4.2656083984375,-51.67236328125,-3.19366455078125,102.94952392578125
1663860961418597400,4.285597412109375,-47.73712158203125,-4.54254150390625,104.3182373046875
1663860961438617000,4.3056171875,-46.417236328125,-6.81915283203125,104.30908203125
1663860961458575600,4.32557568359375,-44.14215087890625,-7.41119384765625,105.52825927734375
1663860961478595000,4.345594970703125,-43.56689453125,-8.93402099609375,105.06439208984375
1663860961498553600,4.3655537109375,-40.057373046875,-8.7799072265625,104.4586181640625
1663860961518542600,4.38554248046875,-39.47296142578125,-9.9853515625,105.5206298828125
1663860961538379000,4.40537890625,-35.693359375,-11.35406494140625,104.45098876953125
1663860961558337500,4.425337646484375,-33.57391357421875,-11.96746826171875,103.3843994140625
1663860961578570800,4.44557080078125,-32.18841552734375,-11.3616943359375,102.62603759765625
1663860961598498600,4.46549853515625,-30.34820556640625,-10.90240478515625,102.630615234375
1663860961618335000,4.4853349609375,-27.96478271484375,-13.3453369140625,100.640869140625
1663860961638293500,4.50529345703125,-26.55181884765625,-11.51885986328125,100.6500244140625
1663860961658282500,4.525282470703125,-23.9898681640625,-12.8753662109375,101.40838623046875
1663860961678302200,4.54530224609375,-22.91717529296875,-12.59002685546875,98.82049560546875
1663860961698260500,4.565260498046875,-19.561767578125,-12.445068359375,97.14813232421875
1663860961718249500,4.58524951171875,-19.7540283203125,-14.13421630859375,95.15838623046875
1663860961738238700,4.60523876953125,-18.0816650390625,-14.2974853515625,93.4844970703125
1663860961758227700,4.625227783203125,-15.0421142578125,-14.74151611328125,94.0948486328125
1663860961778247200,4.6452470703125,-14.337158203125,-17.31719970703125,94.84405517578125
1663860961798205700,4.665205810546875,-9.027099609375,-18.389892578125,92.559814453125
1663860961818194700,4.685194580078125,-9.3719482421875,-20.20111083984375,94.073486328125
1663860961838183700,4.70518359375,-9.27276611328125,-22.61810302734375,95.73822021484375
1663860961858172700,4.725172607421875,-9.18731689453125,-25.6500244140625,96.63848876953125
1663860961878161700,4.74516162109375,-7.8369140625,-26.57012939453125,95.263671875
1663860961898150700,4.765150634765625,-7.110595703125,-28.0914306640625,94.952392578125
1663860961918139600,4.7851396484375,-5.95855712890625,-31.12945556640625,94.78607177734375
1663860961938128600,4.805128662109375,-8.09173583984375,-31.1187744140625,96.612548828125
1663860961958117600,4.82511767578125,-8.09173583984375,-31.1126708984375,97.37548828125
1663860961978107000,4.84510693359375,-7.6141357421875,-30.20477294921875,96.76971435546875
1663860961998096000,4.865095947265625,-7.94830322265625,-31.561279296875,98.2879638671875
1663860962018084900,4.8850849609375,-6.8572998046875,-30.49774169921875,97.8363037109375
1663860962038073900,4.905073974609375,-6.96563720703125,-28.5308837890625,96.93145751953125
1663860962058062800,4.925062744140625,-8.29315185546875,-26.55181884765625,97.5494384765625
1663860962078021400,4.945021484375,-7.489013671875,-24.72686767578125,97.55859375
1663860962098040800,4.965040771484375,-7.92694091796875,-23.82965087890625,95.88623046875
1663860962118029800,4.98502978515625,-8.3892822265625,-24.11956787109375,97.7142333984375
1663860962138018800,5.005018798828125,-9.906005859375,-23.67401123046875,96.80023193359375
1663860962158007800,5.0250078125,-9.70916748046875,-21.71173095703125,95.1324462890625
1663860962177996800,5.044996826171875,-9.71527099609375,-22.00775146484375,96.19903564453125
1663860962197986000,5.064986083984375,-9.75494384765625,-23.8128662109375,98.47564697265625
1663860962217975000,5.08497509765625,-10.21270751953125,-23.8189697265625,97.71270751953125
1663860962238238700,5.10523876953125,-9.7625732421875,-24.11956787109375,98.016357421875
1663860962257983500,5.1249833984375,-9.16290283203125,-24.57427978515625,98.01483154296875
1663860962277972500,5.144972412109375,-9.9700927734375,-26.5594482421875,97.09014892578125
1663860962297931000,5.164930908203125,-8.72955322265625,-25.64697265625,96.94366455078125
1663860962317920000,5.184919921875,-10.723876953125,-26.2420654296875,98.919677734375
1663860962337939500,5.204939453125,-8.7646484375,-27.16217041015625,97.393798828125
1663860962357898000,5.22489794921875,-10.56671142578125,-25.95062255859375,97.3968505859375
1663860962377887000,5.244886962890625,-8.416748046875,-25.3326416015625,98.01177978515625
1663860962397906700,5.26490673828125,-8.8592529296875,-24.71771240234375,98.9288330078125
1663860962417895700,5.284895751953125,-7.989501953125,-26.69525146484375,98.46343994140625
1663860962437915100,5.3049150390625,-8.404541015625,-24.86114501953125,99.8443603515625
1663860962458270500,5.3252705078125,-8.428955078125,-25.9307861328125,99.22943115234375
1663860962478198300,5.3451982421875,-10.23712158203125,-24.88555908203125,97.4029541015625
1663860962498065200,5.365065185546875,-9.34295654296875,-25.79803466796875,97.0947265625
1663860962517840600,5.384840576171875,-11.30218505859375,-24.86419677734375,100.29754638671875
1663860962537799200,5.404799072265625,-10.23101806640625,-24.5880126953125,96.64306640625
1663860962557788200,5.4247880859375,-11.56005859375,-22.75238037109375,98.47869873046875
1663860962577777200,5.444777099609375,-10.8642578125,-25.65155029296875,96.94061279296875
1663860962597766100,5.46476611328125,-10.84136962890625,-24.59564208984375,95.880126953125
1663860962617755100,5.484755126953125,-9.15374755859375,-24.139404296875,95.57952880859375
1663860962637744000,5.504744140625,-11.74774169921875,-24.02191162109375,92.071533203125
1663860962657733000,5.524733154296875,-10.49041748046875,-22.48077392578125,94.366455078125
1663860962677722400,5.544722412109375,-11.41510009765625,-22.9400634765625,94.2108154296875
1663860962697711400,5.56471142578125,-12.0208740234375,-22.7813720703125,95.12481689453125
1663860962717700400,5.584700439453125,-11.21826171875,-20.95794677734375,94.830322265625
1663860962737689300,5.604689453125,-11.65008544921875,-19.76318359375,92.3980712890625
1663860962757648000,5.62464794921875,-12.25433349609375,-19.47479248046875,90.72113037109375
1663860962777667300,5.644667236328125,-9.5184326171875,-19.78302001953125,89.50347900390625
1663860962797656300,5.66465625,-8.2427978515625,-17.34771728515625,89.6697998046875
1663860962817645300,5.684645263671875,-9.4512939453125,-16.75872802734375,87.69073486328125
1663860962837634300,5.70463427734375,-8.3526611328125,-15.39306640625,87.2406005859375
1663860962857623300,5.724623291015625,-10.296630859375,-13.714599609375,88.61846923828125
1663860962877612300,5.7446123046875,-9.2132568359375,-12.9669189453125,86.7950439453125
1663860962897601300,5.764601318359375,-8.85467529296875,-10.540771484375,86.0443115234375
1663860962917559800,5.784559814453125,-11.10382080078125,-8.87298583984375,86.2030029296875
1663860962937579500,5.80457958984375,-12.01629638671875,-8.7310791015625,85.28900146484375
1663860962957568500,5.824568603515625,-11.9384765625,-5.37109375,87.1337890625
1663860962977557500,5.8445576171875,-14.85443115234375,-6.1492919921875,85.75439453125
1663860962997546500,5.86454638671875,-16.51763916015625,-5.54351806640625,85.90850830078125
1663860963017505000,5.884505126953125,-17.43927001953125,-5.85479736328125,85.296630859375
1663860963037524500,5.9045244140625,-19.86846923828125,-5.40008544921875,85.75286865234375
1663860963057513500,5.924513427734375,-19.70672607421875,-4.94842529296875,85.14556884765625
1663860963077502500,5.94450244140625,-19.3695068359375,-3.44085693359375,83.62884521484375
1663860963097491500,5.964491455078125,-18.017578125,-4.35791015625,82.7117919921875
1663860963117450000,5.984449951171875,-18.9300537109375,-4.21142578125,82.2540283203125
1663860963137469400,6.004469482421875,-17.57659912109375,-4.98046875,80.7281494140625
1663860963157458700,6.024458740234375,-18.0145263671875,-4.0802001953125,79.5135498046875
1663860963177447700,6.04444775390625,-16.96319580078125,-4.6966552734375,78.29132080078125
1663860963197436700,6.064436767578125,-15.11077880859375,-3.643798828125,76.470947265625
1663860963217425700,6.08442578125,-16.973876953125,-5.16357421875,76.91802978515625
1663860963237414700,6.10441455078125,-17.5323486328125,-2.75421142578125,74.4903564453125
1663860963257403600,6.124403564453125,-17.06695556640625,-2.43988037109375,75.55999755859375
1663860963277392600,6.144392578125,-15.22674560546875,-1.98516845703125,74.9542236328125
1663860963297381600,6.164381591796875,-15.52886962890625,-1.84173583984375,74.04022216796875
1663860963317370600,6.18437060546875,-15.08941650390625,-2.60009765625,74.03717041015625
1663860963337359600,6.204359619140625,-13.84124755859375,-1.38397216796875,73.7396240234375
1663860963357592800,6.2245927734375,-13.85345458984375,-1.98211669921875,74.95574951171875
1663860963377490400,6.244490478515625,-15.728759765625,-3.8360595703125,71.8963623046875
1663860963397326800,6.264326904296875,-16.17431640625,-3.3660888671875,73.5748291015625
1663860963417346300,6.28434619140625,-15.7135009765625,-3.21807861328125,73.11859130859375
1663860963437304800,6.304304931640625,-15.240478515625,-2.4688720703125,71.59881591796875
1663860963457293800,6.3242939453125,-15.5303955078125,-1.84783935546875,73.27880859375
1663860963477282800,6.34428271484375,-14.63623046875,-2.764892578125,72.3602294921875
1663860963497241300,6.364241455078125,-15.2587890625,-3.2318115234375,71.29058837890625
1663860963517260800,6.3842607421875,-14.959716796875,-3.53240966796875,71.59423828125
1663860963537249800,6.404249755859375,-16.5924072265625,-1.5594482421875,71.75445556640625
1663860963557238800,6.42423876953125,-16.78314208984375,-3.23944091796875,70.831298828125
1663860963577227800,6.444227783203125,-15.68756103515625,-2.0111083984375,71.905517578125
1663860963597186300,6.464186279296875,-16.15753173828125,-2.6123046875,72.81646728515625
1663860963617206000,6.4842060546875,-16.741943359375,-1.41754150390625,70.5352783203125
1663860963637195000,6.504195068359375,-15.68756103515625,-2.0111083984375,71.905517578125
1663860963657184000,6.52418408203125,-19.305419921875,-0.1983642578125,71.6064453125
1663860963677173000,6.544173095703125,-17.59796142578125,1.1749267578125,71.76666259765625
1663860963697131500,6.564131591796875,-20.19805908203125,0.85296630859375,70.39031982421875
1663860963717151000,6.58415087890625,-19.59075927734375,0.70343017578125,70.54290771484375
1663860963737140000,6.604139892578125,-19.6807861328125,3.45306396484375,72.23358154296875
1663860963757129000,6.62412890625,-19.41070556640625,1.9287109375,71.4630126953125
1663860963777118000,6.644117919921875,-21.39129638671875,2.06146240234375,69.78607177734375
1663860963797107000,6.66410693359375,-21.221923828125,2.69012451171875,72.22747802734375
1663860963817096000,6.684095947265625,-22.57843017578125,3.44390869140625,71.77276611328125
1663860963837085000,6.7040849609375,-21.63543701171875,4.6630859375,71.93145751953125
1663860963857074200,6.72407421875,-22.1343994140625,2.838134765625,71.92230224609375
1663860963877063200,6.744063232421875,-23.64349365234375,3.45001220703125,72.83782958984375
1663860963897052200,6.76405224609375,-22.56317138671875,4.0557861328125,72.2320556640625
1663860963917041200,6.784041259765625,-23.20098876953125,2.84271240234375,72.6837158203125
1663860963937030100,6.804030029296875,-22.76153564453125,2.07672119140625,71.917724609375
1663860963957019100,6.82401904296875,-23.03314208984375,3.45611572265625,73.29559326171875
1663860963977008000,6.844008056640625,-24.59564208984375,1.7822265625,73.43902587890625
1663860963997027600,6.864027587890625,-24.713134765625,3.4393310546875,71.76971435546875
1663860964017016600,6.8840166015625,-25.1800537109375,2.98919677734375,72.52960205078125
1663860964036975000,6.90397509765625,-24.27520751953125,2.5390625,73.138427734375
1663860964056964000,6.923964111328125,-21.8231201171875,3.00445556640625,73.5992431640625
1663860964076983800,6.94398388671875,-22.576904296875,3.45611572265625,73.297119140625
1663860964096942300,6.9639423828125,-21.81396484375,3.460693359375,73.602294921875
1663860964116931300,6.983931396484375,-23.06671142578125,1.94244384765625,74.0509033203125
1663860964136950800,7.00395068359375,-23.0499267578125,2.7069091796875,74.664306640625
1663860964156939800,7.023939697265625,-21.66595458984375,3.16925048828125,74.9725341796875
1663860964176928800,7.0439287109375,-20.89385986328125,3.619384765625,74.21417236328125
1663860964196917800,7.063917724609375,-21.19598388671875,3.77197265625,74.36676025390625
1663860964216906800,7.08390673828125,-20.74432373046875,3.47900390625,75.43182373046875
1663860964237292500,7.10429248046875,-21.54541015625,1.9256591796875,71.76666259765625
1663860964257708800,7.124708740234375,-19.23370361328125,2.8656005859375,74.51629638671875
1663860964276995800,7.143995849609375,-19.25201416015625,2.099609375,73.75030517578125
1663860964296863000,7.163863037109375,-18.95751953125,1.64031982421875,73.291015625
1663860964316821200,7.1838212890625,-17.90618896484375,0.8941650390625,74.6612548828125
1663860964336810500,7.203810546875,-17.9046630859375,0.9063720703125,76.18560791015625
1663860964356799500,7.223799560546875,-15.80963134765625,-0.77362060546875,74.6551513671875
1663860964376788500,7.24378857421875,-16.56494140625,-0.47149658203125,74.6551513671875
1663860964396777500,7.263777587890625,-16.43218994140625,-1.37481689453125,75.56610107421875
1663860964416766500,7.283766357421875,-15.24200439453125,-2.73590087890625,76.01776123046875
1663860964436755500,7.30375537109375,-15.57769775390625,-4.1015625,76.4678955078125
1663860964456744400,7.323744384765625,-14.4744873046875,-2.56805419921875,77.69622802734375
1663860964476733400,7.3437333984375,-13.03253173828125,-6.207275390625,78.289794921875
1663860964496722400,7.363722412109375,-10.0677490234375,-3.30047607421875,79.8309326171875
1663860964516711400,7.38371142578125,-11.82403564453125,-6.8023681640625,79.65850830078125
1663860964536700400,7.403700439453125,-8.83331298828125,-9.37957763671875,79.49676513671875
1663860964556689400,7.423689453125,-6.23321533203125,-9.06219482421875,80.5694580078125
1663860964576678700,7.4436787109375,-6.4453125,-11.77825927734375,82.99407958984375
1663860964596667600,7.463667724609375,-5.55267333984375,-12.6953125,82.07550048828125
1663860964616626200,7.483626220703125,-5.27801513671875,-14.190673828125,84.9639892578125
1663860964636645600,7.503645751953125,-4.23583984375,-15.2587890625,84.197998046875
1663860964656634600,7.523634521484375,-3.99017333984375,-17.97027587890625,86.92779541015625
1663860964676623600,7.54362353515625,-2.9510498046875,-19.317626953125,89.056396484375
1663860964696612600,7.563612548828125,-2.12249755859375,-23.1170654296875,88.88702392578125
1663860964716601600,7.5836015625,-2.01416015625,-25.08087158203125,90.24810791015625
1663860964736590600,7.603590576171875,-0.84228515625,-27.20489501953125,90.39154052734375
1663860964756579600,7.62357958984375,-0.44708251953125,-29.93621826171875,90.8355712890625
1663860964776568600,7.643568603515625,1.3427734375,-31.62384033203125,88.39111328125
1663860964796557800,7.663557861328125,2.203369140625,-34.05303955078125,88.53302001953125
1663860964816546800,7.683546875,2.90679931640625,-36.50360107421875,86.08245849609375
1663860964836535800,7.703535888671875,1.1993408203125,-37.8753662109375,86.0748291015625
1663860964856524800,7.72352490234375,1.6357421875,-38.78021240234375,86.68060302734375
1663860964876513800,7.743513671875,2.22625732421875,-39.68963623046875,86.82861328125
1663860964896502800,7.763502685546875,2.35137939453125,-40.89813232421875,87.738037109375
1663860964916491800,7.78349169921875,3.460693359375,-39.07470703125,87.4420166015625
1663860964936480800,7.803480712890625,3.3905029296875,-42.11883544921875,86.97052001953125
1663860964956469800,7.8234697265625,3.5400390625,-42.26837158203125,87.12158203125
1663860964976458800,7.843458740234375,1.12457275390625,-41.21246337890625,86.8194580078125
1663860964996447700,7.86344775390625,3.10211181640625,-41.36199951171875,86.66839599609375
1663860965016436700,7.883436767578125,0.8148193359375,-41.375732421875,85.60028076171875
1663860965036426000,7.903426025390625,3.42254638671875,-40.62042236328125,84.38720703125
1663860965056415000,7.9234150390625,1.65863037109375,-37.725830078125,85.61859130859375
1663860965076373200,7.943373291015625,1.6510009765625,-38.0401611328125,84.39788818359375
1663860965096393000,7.96339306640625,2.32391357421875,-35.30120849609375,84.716796875
1663860965116382000,7.9833818359375,1.57470703125,-34.70001220703125,83.9569091796875
1663860965136615200,8.003615234375,1.64337158203125,-31.65435791015625,84.73358154296875
1663860965156512500,8.023512451171875,0.6256103515625,-29.5257568359375,85.04791259765625
1663860965176379400,8.04337939453125,0.1678466796875,-29.52423095703125,85.3515625
1663860965196368400,8.063368408203125,0.98876953125,-26.94854736328125,84.2987060546875
1663860965216327000,8.083326904296875,-0.970458984375,-25.885009765625,84.759521484375
1663860965236316000,8.10331591796875,-0.59356689453125,-22.705078125,83.251953125
1663860965256305000,8.123304931640625,-1.74102783203125,-19.51446533203125,83.41827392578125
1663860965276294100,8.143294189453124,-1.57928466796875,-19.06280517578125,82.96356201171875
1663860965296283100,8.163283203125,-2.47344970703125,-18.15032958984375,83.11920166015625
1663860965316272000,8.183272216796874,-3.6224365234375,-14.97344970703125,81.76116943359375
1663860965336261000,8.20326123046875,-5.61676025390625,-15.57769775390625,82.67059326171875
1663860965356250000,8.22325,-5.26275634765625,-13.446044921875,83.1390380859375
1663860965376208600,8.243208740234374,-8.44879150390625,-12.701416015625,82.07244873046875
1663860965396228000,8.26322802734375,-8.258056640625,-11.0260009765625,82.537841796875
1663860965416217000,8.283217041015625,-8.8897705078125,-11.94000244140625,82.38067626953125
1663860965436206000,8.3032060546875,-8.43353271484375,-11.9476318359375,81.3140869140625
1663860965456195000,8.323195068359375,-9.16595458984375,-10.59722900390625,79.49066162109375
1663860965476153600,8.343153564453125,-9.13238525390625,-9.07745361328125,79.498291015625
1663860965496173000,8.363173095703125,-9.89532470703125,-9.0850830078125,78.7353515625
1663860965516131600,8.383131591796875,-10.888671875,-5.8868408203125,79.81719970703125
1663860965536151300,8.4031513671875,-13.13934326171875,-4.229736328125,78.6041259765625
1663860965556140300,8.423140380859374,-14.97650146484375,-4.5379638671875,78.59954833984375
1663860965576129300,8.44312939453125,-16.51763916015625,-5.291748046875,79.66156005859375
1663860965596118300,8.4631181640625,-16.6168212890625,-2.87628173828125,77.691650390625
1663860965616107300,8.483107177734375,-16.76025390625,-2.42919921875,76.7791748046875
1663860965636096300,8.50309619140625,-17.974853515625,-2.26898193359375,77.99835205078125
1663860965656085200,8.523085205078125,-17.95806884765625,-1.51214599609375,77.69622802734375
1663860965676074200,8.54307421875,-18.121337890625,-1.971435546875,77.3895263671875
1663860965696063200,8.563063232421875,-18.1365966796875,-2.71759033203125,78.9093017578125
1663860965716052200,8.58305224609375,-15.98663330078125,-1.971435546875,76.7822265625
1663860965736041200,8.603041259765625,-17.02117919921875,-0.58746337890625,78.9215087890625
1663860965756030500,8.623030517578124,-14.7552490234375,-1.5045166015625,77.7008056640625
1663860965776019500,8.64301953125,-14.17388916015625,-2.728271484375,76.78070068359375
1663860965796008400,8.663008544921874,-12.664794921875,-3.33709716796875,76.17034912109375
1663860965815997400,8.68299755859375,-14.1754150390625,-2.734375,76.019287109375
1663860965835956000,8.7029560546875,-12.15362548828125,-1.043701171875,77.70538330078125
1663860965855975400,8.722975341796875,-15.789794921875,0.006103515625,76.94549560546875
1663860965875964400,8.74296435546875,-14.87579345703125,-0.1251220703125,79.23126220703125
1663860965895953400,8.762953369140625,-15.99273681640625,-2.38800048828125,81.50482177734375
1663860965915942400,8.7829423828125,-13.87939453125,-3.42559814453125,84.09271240234375
1663860965935931400,8.802931396484375,-11.22589111328125,-7.50885009765625,85.75286865234375
1663860965955920400,8.82292041015625,-8.97674560546875,-9.17816162109375,85.44158935546875
1663860965975909600,8.84290966796875,-8.099365234375,-10.85205078125,84.97772216796875
1663860965995898600,8.862898681640624,-8.1390380859375,-12.664794921875,86.34033203125
1663860966016192800,8.88319287109375,-5.61065673828125,-15.53192138671875,88.15765380859375
1663860966036120600,8.90312060546875,-5.17425537109375,-16.436767578125,88.763427734375
1663860966055896000,8.92289599609375,-3.3782958984375,-17.950439453125,89.0625
1663860966075854600,8.9428544921875,-3.74755859375,-20.83282470703125,89.8101806640625
1663860966095843600,8.962843505859375,-2.45819091796875,-24.47357177734375,90.25115966796875
1663860966115832600,8.98283251953125,-0.71868896484375,-28.42559814453125,89.776611328125
1663860966135821600,9.002821533203125,0.1220703125,-31.63299560546875,87.628173828125
1663860966155810600,9.022810546875,0.80108642578125,-35.28900146484375,86.54327392578125
1663860966175799600,9.042799560546875,1.1810302734375,-38.63677978515625,85.7666015625
1663860966195758000,9.062758056640625,1.12457275390625,-41.21246337890625,86.8194580078125
1663860966215777800,9.08277783203125,1.05133056640625,-44.4061279296875,86.4990234375
1663860966235766800,9.102766845703124,3.4820556640625,-44.8486328125,87.567138671875
1663860966255755800,9.122755859375,2.545166015625,-45.7672119140625,86.95220947265625
1663860966275744800,9.142744873046874,2.520751953125,-46.83990478515625,85.8795166015625
1663860966295703300,9.162703369140624,2.703857421875,-45.47119140625,86.0382080078125
1663860966315722800,9.18272265625,1.66778564453125,-44.1009521484375,86.5020751953125
1663860966335711700,9.202711669921875,2.6214599609375,-42.41943359375,87.42523193359375
1663860966355700700,9.22270068359375,2.20794677734375,-40.44952392578125,86.8255615234375
1663860966375689700,9.242689697265625,1.34735107421875,-38.031005859375,85.6170654296875
1663860966395678700,9.2626787109375,3.350830078125,-37.11700439453125,85.3179931640625
1663860966415667700,9.282667724609375,2.1636962890625,-35.60943603515625,84.10491943359375
1663860966435656700,9.30265673828125,1.02691650390625,-31.96258544921875,84.4268798828125
1663860966455646000,9.32264599609375,2.42767333984375,-30.60760498046875,82.45391845703125
1663860966475635000,9.342635009765624,0.18310546875,-28.78570556640625,82.91778564453125
1663860966495624000,9.3626240234375,-0.0335693359375,-24.84130859375,82.1746826171875
1663860966515613000,9.382613037109374,-0.4608154296875,-23.60687255859375,84.466552734375
1663860966535602000,9.402601806640625,-0.24871826171875,-20.88775634765625,82.4981689453125
1663860966555560400,9.422560546875,-1.4129638671875,-18.46160888671875,82.0526123046875
1663860966575580000,9.442579833984375,-2.43682861328125,-16.62445068359375,83.88824462890625
1663860966595569000,9.46256884765625,-3.45916748046875,-14.520263671875,81.30645751953125
1663860966615558000,9.482557861328125,-6.1920166015625,-13.92974853515625,79.9346923828125
1663860966635547000,9.502546875,-8.01544189453125,-13.6322021484375,79.6295166015625
1663860966655505400,9.52250537109375,-5.57403564453125,-13.49029541015625,77.9571533203125
1663860966675524900,9.54252490234375,-7.5531005859375,-13.34381103515625,77.80303955078125
1663860966695514000,9.56251416015625,-8.4136962890625,-10.919189453125,77.20489501953125
1663860966715503000,9.582503173828124,-10.03570556640625,-8.49151611328125,77.06146240234375
1663860966735492000,9.6024921875,-10.2386474609375,-10.63385009765625,75.3753662109375
1663860966755450600,9.62245068359375,-12.29400634765625,-7.275390625,77.67486572265625
1663860966775470000,9.642469970703125,-11.40289306640625,-8.203125,75.53863525390625
1663860966795459000,9.662458984375,-13.34686279296875,-6.536865234375,75.39215087890625
1663860966815448000,9.682447998046875,-12.71209716796875,-5.46722412109375,75.8544921875
1663860966835437000,9.70243701171875,-14.06402587890625,-4.4281005859375,73.26812744140625
1663860966855426000,9.722426025390625,-14.63470458984375,-2.74810791015625,74.49493408203125
1663860966875415000,9.7424150390625,-15.85845947265625,-2.90374755859375,74.33929443359375
1663860966895404000,9.762404052734375,-14.94140625,-2.76031494140625,73.12164306640625
1663860966915637200,9.78263720703125,-15.57159423828125,-3.67584228515625,72.8118896484375
1663860966935534800,9.802534912109374,-12.68463134765625,-4.12750244140625,72.50823974609375
1663860966955371300,9.822371337890624,-13.0645751953125,-7.33795166015625,70.3582763671875
1663860966975360300,9.8423603515625,-10.93292236328125,-7.611083984375,73.5595703125
1663860966995349200,9.862349365234374,-9.16290283203125,-10.19744873046875,72.7874755859375
1663860967015338200,9.882338134765625,-6.5704345703125,-10.18524169921875,73.55194091796875
1663860967035327200,9.9023271484375,-7.37152099609375,-11.99493408203125,75.37078857421875
1663860967055316200,9.922316162109375,-3.92303466796875,-14.44244384765625,72.61962890625
1663860967075305200,9.94230517578125,-1.56402587890625,-18.072509765625,74.12872314453125
1663860967095294200,9.962294189453125,0.64697265625,-21.41876220703125,73.20098876953125
1663860967115283200,9.982283203125,1.02996826171875,-24.615478515625,72.57537841796875
1663860967135272200,10.002272216796875,6.21490478515625,-31.298828125,71.6339111328125
1663860967155261400,10.022261474609374,6.085205078125,-37.05902099609375,73.4344482421875
1663860967175250400,10.04225048828125,7.9559326171875,-41.93267822265625,71.73614501953125
1663860967195239400,10.062239501953124,8.2183837890625,-43.7591552734375,71.42333984375
1663860967215228400,10.082228515625,8.24127197265625,-49.395751953125,69.71893310546875
1663860967235217400,10.102217529296874,8.63037109375,-52.43072509765625,70.16143798828125
1663860967255206400,10.122206298828125,7.99407958984375,-53.643798828125,70.611572265625
1663860967275195400,10.1421953125,7.79571533203125,-55.6304931640625,69.38323974609375
1663860967295184400,10.162184326171875,7.45697021484375,-57.135009765625,71.20361328125
1663860967315143000,10.182142822265625,4.2633056640625,-56.83441162109375,71.6583251953125
1663860967335162400,10.202162353515625,6.56280517578125,-56.22711181640625,71.05560302734375
1663860967355151400,10.2221513671875,5.76629638671875,-57.61871337890625,68.45703125
1663860967375140400,10.242140380859375,7.44781494140625,-57.4676513671875,67.8497314453125
1663860967395343000,10.262343017578125,8.9691162109375,-57.60955810546875,68.7652587890625
1663860967415149000,10.282149169921874,6.57806396484375,-55.48858642578125,68.46771240234375
1663860967435107600,10.302107666015624,7.94830322265625,-55.50079345703125,66.63970947265625
1663860967455096600,10.3220966796875,7.8338623046875,-53.82537841796875,67.1051025390625
1663860967475116000,10.342115966796875,7.82623291015625,-54.132080078125,66.7999267578125
1663860967495074600,10.362074462890625,7.26165771484375,-52.16217041015625,66.19873046875
1663860967515063600,10.3820634765625,7.1014404296875,-52.4749755859375,65.283203125
1663860967535052500,10.402052490234375,7.89794921875,-50.95367431640625,65.29083251953125
1663860967555041500,10.42204150390625,7.6995849609375,-46.23870849609375,65.771484375
1663860967575061000,10.44206103515625,7.27691650390625,-44.7235107421875,65.32135009765625
1663860967595080700,10.462080810546874,8.25347900390625,-41.9891357421875,64.87884521484375
1663860967615039200,10.482039306640624,8.0230712890625,-38.787841796875,66.265869140625
1663860967634997800,10.501997802734374,9.173583984375,-35.13336181640625,66.741943359375
1663860967654986800,10.52198681640625,6.463623046875,-33.48846435546875,64.30816650390625
1663860967675036700,10.54203662109375,6.39801025390625,-29.68292236328125,64.93682861328125
1663860967694964700,10.56196484375,4.46014404296875,-27.716064453125,64.3341064453125
1663860967714953700,10.58195361328125,3.46832275390625,-24.38201904296875,63.58795166015625
1663860967734942700,10.601942626953125,1.25885009765625,-20.89385986328125,63.29803466796875
1663860967754931700,10.621931640625,1.251220703125,-21.2066650390625,62.22991943359375
1663860967774920700,10.641920654296875,-0.8056640625,-17.72308349609375,61.32965087890625
1663860967795214800,10.66221484375,-2.6336669921875,-17.71087646484375,63.1561279296875
1663860967815143000,10.682142822265625,-3.4149169921875,-18.49212646484375,60.86578369140625
1663860967834918400,10.70191845703125,-2.92205810546875,-16.95556640625,62.70294189453125
1663860967854876700,10.721876708984375,-1.8310546875,-15.90576171875,60.88104248046875
1663860967874866000,10.741865966796874,-4.25872802734375,-15.43121337890625,63.623046875
1663860967894855000,10.76185498046875,-3.167724609375,-14.3768310546875,62.25738525390625
1663860967914844000,10.781843994140624,-3.18145751953125,-14.984130859375,62.25433349609375
1663860967934802400,10.801802490234374,-2.04620361328125,-18.63555908203125,61.47613525390625
1663860967954822000,10.82182177734375,-1.593017578125,-18.79425048828125,60.5621337890625
1663860967974811000,10.841810791015625,-0.53558349609375,-19.24591064453125,60.86578369140625
1663860967994799900,10.8617998046875,-0.24566650390625,-19.99664306640625,61.9293212890625
1663860968014819300,10.8818193359375,0.164794921875,-21.978759765625,61.004638671875
1663860968034777900,10.90177783203125,-0.29296875,-22.10540771484375,64.20440673828125
1663860968054766800,10.921766845703125,1.96685791015625,-23.321533203125,63.59100341796875
1663860968074755800,10.941755859375,1.81884765625,-23.16131591796875,64.50653076171875
1663860968094744800,10.961744873046875,5.303955078125,-24.08294677734375,62.5244140625
1663860968114734000,10.981734130859374,3.12652587890625,-26.03302001953125,66.01715087890625
1663860968134723000,11.00172314453125,5.3802490234375,-27.55279541015625,65.55633544921875
1663860968154712000,11.021712158203124,6.256103515625,-29.2266845703125,65.0909423828125
1663860968174701000,11.041701171875,6.78863525390625,-32.708740234375,66.4459228515625
1663860968194690000,11.06168994140625,7.07855224609375,-33.32061767578125,65.98663330078125
1663860968214679000,11.081678955078125,5.49468994140625,-35.91156005859375,65.51513671875
1663860968234668000,11.10166796875,7.85980224609375,-39.2425537109375,66.4154052734375
1663860968254657000,11.121656982421875,8.5906982421875,-40.6097412109375,66.2567138671875
1663860968274615600,11.141615478515625,8.51898193359375,-43.8018798828125,66.241455078125
1663860968294635000,11.161635009765625,8.7615966796875,-46.52862548828125,67.14324951171875
1663860968314624000,11.1816240234375,8.1329345703125,-47.43499755859375,68.05267333984375
1663860968334613000,11.201613037109375,7.32879638671875,-49.25994873046875,68.0419921875
1663860968354602200,11.221602294921874,6.96563720703125,-51.837158203125,68.79119873046875
1663860968374591200,11.24159130859375,6.31561279296875,-53.533935546875,66.03851318359375
1663860968394580200,11.261580322265624,7.46917724609375,-56.41937255859375,66.02630615234375
1663860968414569200,11.2815693359375,6.25762939453125,-55.9844970703125,63.89312744140625
1663860968434558200,11.30155810546875,7.43408203125,-57.81707763671875,62.36114501953125
1663860968454516700,11.321516845703124,5.31005859375,-57.35931396484375,63.275146484375
1663860968474536200,11.3415361328125,6.0821533203125,-56.90765380859375,62.51678466796875
1663860968494525200,11.361525146484375,7.89337158203125,-57.67974853515625,60.68572998046875
1663860968514514200,11.38151416015625,8.001708984375,-52.95867919921875,61.7767333984375
1663860968534503200,11.401503173828125,7.10601806640625,-52.05841064453125,60.56060791015625
1663860968554492200,11.4214921875,8.795166015625,-51.58538818359375,62.2406005859375
1663860968574481400,11.4414814453125,6.280517578125,-48.23760986328125,63.3209228515625
1663860968594470400,11.461470458984374,9.088134765625,-45.48797607421875,64.25323486328125
1663860968614459400,11.48145947265625,7.01141357421875,-42.91839599609375,63.19580078125
1663860968634418000,11.50141796875,6.44683837890625,-40.9393310546875,63.6627197265625
1663860968654437400,11.521437255859375,5.44891357421875,-37.7685546875,61.54327392578125
1663860968674426400,11.54142626953125,6.59942626953125,-34.1156005859375,61.86676025390625
1663860968694751000,11.5617509765625,6.15692138671875,-33.50677490234375,62.17498779296875
1663860968714526500,11.5815263671875,5.63201904296875,-29.7149658203125,61.27777099609375
1663860968734423800,11.601423828125,3.73077392578125,-26.2115478515625,62.8173828125
1663860968754382300,11.62138232421875,2.38494873046875,-24.87945556640625,58.8592529296875
1663860968774340900,11.6413408203125,0.762939453125,-22.44415283203125,59.783935546875
1663860968794360300,11.6613603515625,-0.75836181640625,-22.296142578125,59.63134765625
1663860968814349600,11.681349609375,-2.06451416015625,-19.41070556640625,59.6435546875
1663860968834338600,11.701338623046874,-2.0721435546875,-19.71893310546875,59.18426513671875
1663860968854327600,11.72132763671875,-1.4495849609375,-19.1192626953125,58.12225341796875
1663860968874316500,11.741316650390624,-2.30865478515625,-16.680908203125,59.04693603515625
1663860968894305500,11.761305419921875,-4.2938232421875,-16.8365478515625,59.19647216796875
1663860968914294500,11.78129443359375,-4.3121337890625,-17.6055908203125,58.12530517578125
1663860968934283500,11.801283447265625,-1.57928466796875,-18.19305419921875,59.80224609375
1663860968954242000,11.821241943359375,-1.568603515625,-17.73681640625,59.8052978515625
1663860968974261500,11.841261474609375,-0.3204345703125,-16.5130615234375,60.4217529296875
1663860968994250500,11.86125048828125,-0.6988525390625,-19.70977783203125,59.94873046875
1663860969014239500,11.881239501953125,-0.3875732421875,-19.40460205078125,59.95025634765625
1663860969034228500,11.901228515625,-0.40435791015625,-20.16143798828125,60.4034423828125
1663860969054187000,11.92118701171875,-2.08740234375,-20.45745849609375,61.77215576171875
1663860969074206700,11.941206787109374,0.75531005859375,-22.87750244140625,62.37335205078125
1663860969094195700,11.96119580078125,2.99072265625,-25.15869140625,61.75537109375
1663860969114184700,11.981184814453124,2.82440185546875,-25.76446533203125,61.90338134765625
1663860969134173700,12.001173583984375,4.77142333984375,-27.41241455078125,64.337158203125
1663860969154132200,12.02113232421875,4.77142333984375,-27.41546630859375,64.031982421875
1663860969174151700,12.041151611328125,4.400634765625,-30.30242919921875,64.0167236328125
1663860969194140700,12.061140625,5.09796142578125,-33.18939208984375,64.00299072265625
1663860969214129700,12.081129638671875,6.3995361328125,-36.36932373046875,65.05584716796875
1663860969234118700,12.10111865234375,6.50634765625,-38.34075927734375,65.50445556640625
1663860969254107600,12.121107666015625,6.45599365234375,-40.61737060546875,65.95001220703125
1663860969274096600,12.1410966796875,7.15484619140625,-43.4844970703125,68.07098388671875
1663860969294086000,12.1610859375,7.1075439453125,-45.6085205078125,68.51654052734375
1663860969314044200,12.181044189453125,6.12640380859375,-48.370361328125,65.75927734375
1663860969334063900,12.20106396484375,6.18438720703125,-52.60772705078125,67.72003173828125
1663860969354052900,12.221052978515624,7.1197509765625,-51.6998291015625,67.11578369140625
1663860969374041900,12.241041748046875,7.68585205078125,-53.662109375,68.4783935546875
1663860969394030800,12.26103076171875,8.07342529296875,-56.71539306640625,66.7877197265625
1663860969414019800,12.281019775390625,6.53533935546875,-57.31964111328125,67.6971435546875
1663860969434008800,12.3010087890625,6.22711181640625,-57.476806640625,67.08526611328125
1663860969453997800,12.320997802734375,6.18896484375,-59.02099609375,64.18304443359375
1663860969473986800,12.34098681640625,5.108642578125,-59.61761474609375,65.70281982421875
1663860969493975800,12.360975830078125,6.085205078125,-56.88629150390625,65.10772705078125
1663860969513934300,12.380934326171875,4.25567626953125,-56.88629150390625,65.40985107421875
1663860969533954000,12.4009541015625,8.0596923828125,-57.18994140625,64.4989013671875
1663860969553943000,12.420943115234374,5.99517822265625,-54.14886474609375,65.2740478515625
1663860969574237200,12.4412373046875,5.8868408203125,-52.17742919921875,64.825439453125
1663860969594165200,12.461165283203124,6.43768310546875,-48.0712890625,64.9993896484375
1663860969613940500,12.4809404296875,7.42034912109375,-45.0439453125,63.33770751953125
1663860969633929500,12.500929443359375,6.5765380859375,-41.85943603515625,62.744140625
1663860969653888000,12.520887939453125,6.634521484375,-39.28070068359375,62.14599609375
1663860969673877000,12.540876953125,5.64727783203125,-35.78643798828125,62.16278076171875
1663860969693896400,12.560896484375,6.77337646484375,-33.20159912109375,62.176513671875
1663860969713855000,12.58085498046875,6.2225341796875,-30.6182861328125,62.188720703125
1663860969733844000,12.600843994140625,3.9642333984375,-29.266357421875,60.97412109375
1663860969753833200,12.620833251953124,3.58123779296875,-26.05743408203125,63.12255859375
1663860969773822200,12.640822265625,2.11639404296875,-23.4710693359375,63.74359130859375
1663860969793811200,12.660811279296874,1.6937255859375,-21.94976806640625,64.05487060546875
1663860969813800200,12.68080029296875,-1.715087890625,-17.559814453125,62.85400390625
1663860969833789200,12.7007890625,-1.1444091796875,-19.23828125,61.93084716796875
1663860969853747700,12.720747802734374,-2.301025390625,-16.36810302734375,60.11505126953125
1663860969873767200,12.74076708984375,-3.6773681640625,-16.6534423828125,62.70294189453125
1663860969893756200,12.760756103515625,-2.96478271484375,-18.7957763671875,60.8642578125
1663860969913745200,12.7807451171875,-3.22418212890625,-16.8121337890625,61.7889404296875
1663860969933734100,12.800734130859375,-1.8402099609375,-16.3482666015625,62.40234375
1663860969953723100,12.82072314453125,-1.52130126953125,-15.606689453125,60.11962890625
1663860969973712100,12.840712158203125,-2.7923583984375,-17.88482666015625,60.7177734375
1663860969993701400,12.860701416015624,-2.65960693359375,-18.79730224609375,60.56060791015625
1663860970013690400,12.8806904296875,-0.55389404296875,-20.01800537109375,59.48944091796875
1663860970033679400,12.900679443359374,-0.71563720703125,-20.46661376953125,60.40191650390625
1663860970053668400,12.92066845703125,1.0833740234375,-21.82159423828125,61.31134033203125
1663860970073627000,12.940626953125,1.68914794921875,-21.978759765625,60.7025146484375
1663860970093646300,12.960646240234375,0.85601806640625,-25.164794921875,61.4471435546875
1663860970113635300,12.98063525390625,3.64532470703125,-23.18267822265625,61.61346435546875
1663860970133624300,13.000624267578125,3.43780517578125,-25.61492919921875,61.44866943359375
1663860970153613300,13.02061328125,4.913330078125,-27.8778076171875,63.11492919921875
1663860970173602300,13.040602294921875,5.77239990234375,-30.303955078125,63.56201171875
1663860970193591300,13.06059130859375,8.465576171875,-32.57904052734375,63.4002685546875
1663860970213580300,13.080580322265625,7.95440673828125,-34.99603271484375,65.37017822265625
1663860970233569500,13.100569580078124,8.062744140625,-36.9720458984375,65.2069091796875
1663860970253558500,13.12055859375,8.319091796875,-39.105224609375,64.434814453125
1663860970273547500,13.140547607421874,7.8399658203125,-40.0177001953125,64.58282470703125
1663860970293536500,13.16053662109375,8.55865478515625,-41.98455810546875,65.4876708984375
1663860970313525500,13.180525390625,9.41162109375,-44.71893310546875,65.3228759765625
1663860970333514500,13.200514404296875,8.990478515625,-49.8809814453125,66.05987548828125
1663860970353503500,13.22050341796875,7.1533203125,-50.1861572265625,66.3604736328125
1663860970373492500,13.240492431640625,8.7677001953125,-52.92816162109375,65.130615234375
1663860970393481500,13.2604814453125,7.68280029296875,-53.68804931640625,65.4296875
1663860970413470500,13.280470458984375,6.63299560546875,-52.935791015625,64.8223876953125
1663860970433459500,13.30045947265625,7.77130126953125,-56.4361572265625,63.89312744140625
1663860970453418000,13.32041796875,6.70318603515625,-56.4483642578125,62.67242431640625
1663860970473773300,13.340773193359375,5.02166748046875,-56.60552978515625,62.51678466796875
1663860970493548500,13.360548583984375,6.19964599609375,-58.56475830078125,64.1845703125
1663860970513415700,13.380415771484374,6.8695068359375,-55.84259033203125,62.52288818359375
1663860970533404700,13.40040478515625,7.9864501953125,-53.704833984375,63.2965087890625
1663860970553424100,13.420424072265625,7.6873779296875,-53.4027099609375,63.29803466796875
1663860970573382700,13.440382568359375,9.89227294921875,-50.35552978515625,63.6199951171875
1663860970593371600,13.46037158203125,9.02252197265625,-48.3734130859375,64.54315185546875
1663860970613360600,13.480360595703125,9.2681884765625,-44.27337646484375,64.10675048828125
1663860970633349600,13.500349609375,8.11309814453125,-41.52374267578125,66.09954833984375
1663860970653338600,13.520338623046875,10.1654052734375,-38.348388671875,63.67950439453125
1663860970673327600,13.54032763671875,8.2672119140625,-34.5703125,61.71417236328125
1663860970693316600,13.560316650390625,7.51953125,-33.9508056640625,63.24005126953125
1663860970713305900,13.580305908203124,5.4901123046875,-29.24957275390625,62.5
1663860970733294800,13.600294921875,4.92706298828125,-27.13775634765625,60.83221435546875
1663860970753283800,13.620283935546874,4.9591064453125,-25.7598876953125,61.90643310546875
1663860970773242400,13.640242431640624,3.948974609375,-23.1903076171875,60.546875
1663860970793261800,13.66026171875,1.15966796875,-18.4844970703125,60.56671142578125
1663860970813250800,13.680250732421875,0.25634765625,-17.8955078125,58.58612060546875
1663860970833239800,13.70023974609375,-0.48675537109375,-16.99371337890625,57.52410888671875
1663860970853228800,13.720228759765625,-0.47607421875,-16.41082763671875,54.63104248046875
1663860970873217800,13.7402177734375,-0.1800537109375,-16.7236328125,53.56292724609375
1663860970893206800,13.760206787109375,-1.0467529296875,-14.60418701171875,52.8106689453125
1663860970913195800,13.78019580078125,-0.11444091796875,-13.83514404296875,53.57666015625
1663860970933185000,13.80018505859375,-0.45166015625,-15.2130126953125,52.50396728515625
1663860970953174000,13.820174072265624,0.4486083984375,-15.95611572265625,54.32891845703125
1663860970973163000,13.8401630859375,0.1434326171875,-15.95306396484375,54.63409423828125
1663860970993152000,13.860152099609374,0.323486328125,-14.73541259765625,54.79278564453125
1663860971013141000,13.88014111328125,1.68914794921875,-15.17181396484375,56.92596435546875
1663860971033130000,13.9001298828125,3.680419921875,-14.7186279296875,56.0150146484375
1663860971053119000,13.920118896484375,0.7354736328125,-16.84112548828125,57.373046875
1663860971073077500,13.940077392578125,2.5146484375,-19.110107421875,58.1268310546875
1663860971093097000,13.960096923828125,2.62451171875,-21.0723876953125,59.7930908203125
1663860971113086000,13.9800859375,2.7587890625,-21.966552734375,61.7706298828125
1663860971133075000,14.000074951171875,5.73577880859375,-25.2716064453125,65.5670166015625
1663860971153064000,14.02006396484375,8.28094482421875,-27.520751953125,68.6065673828125
1663860971173053200,14.04005322265625,6.4605712890625,-27.0751953125,67.84515380859375
1663860971193042200,14.060042236328124,6.5093994140625,-31.63299560546875,67.974853515625
1663860971213031200,14.08003125,8.7249755859375,-34.814453125,68.57147216796875
1663860971233020200,14.100020263671874,7.8857421875,-38.1622314453125,68.24951171875
1663860971253009200,14.120009033203125,9.0606689453125,-40.1336669921875,68.5455322265625
1663860971272998100,14.139998046875,8.5540771484375,-42.3919677734375,71.12579345703125
1663860971292987100,14.159987060546875,8.16650390625,-46.0479736328125,70.34454345703125
1663860971312976100,14.17997607421875,8.41827392578125,-48.46343994140625,72.161865234375
1663860971332934700,14.1999345703125,8.36334228515625,-50.75836181640625,70.3216552734375
1663860971353254100,14.220254150390625,7.90557861328125,-50.8941650390625,72.30224609375
1663860971373151700,14.24015185546875,7.66754150390625,-54.6875,73.19793701171875
1663860971392927000,14.259927001953125,7.684326171875,-53.93524169921875,72.1343994140625
1663860971412916000,14.279916015625,6.89544677734375,-55.0079345703125,71.36688232421875
1663860971432905000,14.299905029296875,6.280517578125,-55.30853271484375,71.97418212890625
1663860971452894000,14.31989404296875,7.0098876953125,-56.68487548828125,70.7489013671875
1663860971472883200,14.33988330078125,5.67779541015625,-54.86907958984375,70.14617919921875
1663860971492872200,14.3598720703125,6.304931640625,-54.1107177734375,69.6929931640625
1663860971512861200,14.379861083984375,7.03887939453125,-55.3314208984375,68.927001953125
1663860971532850200,14.39985009765625,7.122802734375,-51.67999267578125,69.40155029296875
1663860971552808700,14.41980859375,8.85467529296875,-49.24774169921875,69.110107421875
1663860971572828200,14.439828125,5.28564453125,-45.2911376953125,70.64971923828125
1663860971592817200,14.459817138671875,9.002685546875,-42.7215576171875,68.0755615234375
1663860971612806100,14.47980615234375,7.10601806640625,-38.92974853515625,67.6361083984375
1663860971632795100,14.499795166015625,6.23321533203125,-36.97357177734375,65.51055908203125
1663860971652784000,14.5197841796875,6.38885498046875,-36.81793212890625,65.81573486328125
1663860971672773000,14.539773193359375,3.41796875,-33.33740234375,64.91546630859375
1663860971692762000,14.55976220703125,4.55780029296875,-30.14373779296875,64.9322509765625
1663860971712751400,14.57975146484375,3.5400390625,-27.8778076171875,63.4185791015625
1663860971732709600,14.599709716796875,3.42559814453125,-26.2054443359375,63.57879638671875
1663860971752729300,14.619729248046875,3.77197265625,-24.383544921875,63.28277587890625
1663860971772718300,14.63971826171875,2.45513916015625,-21.954345703125,63.29345703125
1663860971792707300,14.659707275390625,-0.27618408203125,-21.35162353515625,63.446044921875
1663860971812696300,14.6796962890625,1.300048828125,-19.073486328125,62.84942626953125
1663860971832685300,14.699685302734375,0.4241943359375,-17.3980712890625,63.46588134765625
1663860971852674300,14.71967431640625,-0.3265380859375,-16.802978515625,62.249755859375
1663860971872663300,14.739663330078125,-2.91595458984375,-16.66412353515625,61.33270263671875
1663860971892652300,14.75965234375,-2.50244140625,-18.6248779296875,62.847900390625
1663860971912641300,14.779641357421875,-3.21807861328125,-16.51458740234375,61.02752685546875
1663860971932630500,14.799630615234374,-1.10321044921875,-17.4163818359375,61.6363525390625
1663860971952619500,14.81961962890625,-0.34942626953125,-17.85736083984375,63.31024169921875
1663860971972608500,14.8396083984375,-0.19378662109375,-17.7093505859375,62.701416015625
1663860971992597500,14.859597412109375,-1.904296875,-19.22760009765625,63.4552001953125
1663860972012586500,14.87958642578125,-0.98724365234375,-19.07806396484375,62.84637451171875
1663860972032575500,14.899575439453125,-1.14898681640625,-19.52667236328125,63.75885009765625
1663860972052564500,14.919564453125,-0.9246826171875,-23.15521240234375,66.02783203125
1663860972072553500,14.939553466796875,2.37274169921875,-25.59356689453125,64.34326171875
1663860972092542500,14.95954248046875,3.56903076171875,-26.78680419921875,66.77703857421875
1663860972112531500,14.979531494140625,2.63824462890625,-27.4017333984375,66.16363525390625
1663860972132520400,14.9995205078125,4.38995361328125,-30.889892578125,66.4520263671875
1663860972152509400,15.019509521484375,5.8685302734375,-32.9925537109375,69.1864013671875
1663860972172468000,15.039468017578125,7.0343017578125,-35.4217529296875,69.17724609375
1663860972192487700,15.05948779296875,7.9132080078125,-37.07733154296875,70.84503173828125
1663860972212476700,15.0794765625,7.2418212890625,-39.79949951171875,72.50823974609375
1663860972232465700,15.099465576171875,6.11572265625,-42.388916015625,72.1893310546875
1663860972252790300,15.119790283203125,5.9112548828125,-44.67315673828125,71.56829833984375
1663860972272565800,15.139565673828125,5.2154541015625,-48.46649169921875,72.46246337890625
1663860972292432600,15.1594326171875,6.842041015625,-50.61492919921875,69.7113037109375
1663860972312421600,15.179421630859375,7.73162841796875,-51.80816650390625,72.14508056640625
1663860972332410600,15.19941064453125,6.597900390625,-54.70428466796875,71.36688232421875
1663860972352399600,15.219399658203125,6.61773681640625,-53.93218994140625,72.89581298828125
1663860972372388600,15.239388671875,5.81817626953125,-55.462646484375,71.66748046875
1663860972392377600,15.259377685546875,7.07550048828125,-53.79638671875,70.76263427734375
1663860972412366800,15.279366943359374,6.5887451171875,-55.0323486328125,68.47076416015625
1663860972432355800,15.29935595703125,7.17010498046875,-56.2469482421875,68.46466064453125
1663860972452344800,15.3193447265625,5.07049560546875,-54.73175048828125,68.46923828125
1663860972472333800,15.339333740234375,5.69915771484375,-53.8299560546875,67.10357666015625
1663860972492322800,15.35932275390625,7.537841796875,-53.5064697265625,68.9361572265625
1663860972512311800,15.379311767578125,9.13238525390625,-50.33111572265625,66.66717529296875
1663860972532300800,15.39930078125,9.33074951171875,-48.35357666015625,66.82891845703125
1663860972552289800,15.419289794921875,8.3526611328125,-44.40765380859375,66.3909912109375
1663860972572278800,15.43927880859375,7.818603515625,-41.05987548828125,67.169189453125
1663860972592267800,15.459267822265625,8.4686279296875,-39.24560546875,65.80657958984375
1663860972612256800,15.4792568359375,7.04345703125,-34.84954833984375,64.91241455078125
1663860972632245800,15.499245849609375,6.64215087890625,-32.27996826171875,63.4002685546875
1663860972652235000,15.519235107421874,5.37109375,-27.8717041015625,63.72528076171875
1663860972672224000,15.53922412109375,4.61578369140625,-27.569580078125,63.72528076171875
1663860972692213000,15.559212890625,2.53753662109375,-25.00152587890625,62.36419677734375
1663860972712202000,15.579201904296875,1.21917724609375,-22.7020263671875,65.11688232421875
1663860972732191000,15.59919091796875,0.95367431640625,-20.90301513671875,62.22991943359375
1663860972752180000,15.619179931640625,-0.177001953125,-16.949462890625,62.70599365234375
1663860972772169000,15.6391689453125,-3.51104736328125,-16.046142578125,62.55340576171875
1663860972792158000,15.659157958984375,-3.6956787109375,-17.41943359375,61.93695068359375
1663860972812147000,15.67914697265625,-3.9764404296875,-16.36505126953125,60.87493896484375
1663860972832136000,15.699135986328125,-3.24249267578125,-17.578125,61.02294921875
1663860972852125000,15.719125,-0.93841552734375,-16.8182373046875,60.42022705078125
1663860972872114000,15.739114013671875,-1.7181396484375,-17.5872802734375,59.6527099609375
1663860972892103200,15.759103271484374,-1.72576904296875,-17.89398193359375,59.1949462890625
1663860972912092200,15.779092041015625,0.71563720703125,-17.877197265625,60.7208251953125
1663860972932081200,15.7990810546875,-0.567626953125,-20.6207275390625,60.09674072265625
1663860972952070100,15.819070068359375,0.970458984375,-20.1385498046875,62.84332275390625
1663860972972059100,15.83905908203125,3.10516357421875,-20.135498046875,62.54119873046875
1663860972992048000,15.859048095703125,2.45513916015625,-21.954345703125,63.29345703125
1663860973012037000,15.879037109375,1.70440673828125,-21.4935302734375,64.05792236328125
1663860973032026000,15.899026123046875,1.81121826171875,-23.4649658203125,64.5050048828125
1663860973052015000,15.91901513671875,3.43475341796875,-25.8880615234375,65.10467529296875
1663860973072004000,15.939004150390625,4.62646484375,-27.10113525390625,65.252685546875
1663860973091993000,15.9589931640625,4.901123046875,-28.5980224609375,67.83599853515625
1663860973111982000,15.978982177734375,6.83135986328125,-30.87310791015625,67.97943115234375
1663860973132245800,15.999245849609375,7.66754150390625,-34.3658447265625,68.115234375
1663860973152173800,16.019173828125,7.62786865234375,-36.16943359375,70.39337158203125
1663860973171949300,16.03894921875,5.5755615234375,-39.22119140625,69.4610595703125
1663860973191938300,16.058938232421873,7.4951171875,-41.95556640625,69.14520263671875
1663860973211927300,16.07892724609375,8.33892822265625,-45.14312744140625,69.43511962890625
1663860973231916300,16.098916259765623,7.66448974609375,-48.0224609375,70.4864501953125
1663860973251905300,16.1189052734375,6.80084228515625,-52.43377685546875,70.159912109375
1663860973271894300,16.138894287109373,8.30078125,-53.63006591796875,72.13592529296875
1663860973291883300,16.15888330078125,7.4981689453125,-55.31768798828125,70.45135498046875
1663860973311872300,16.178872314453123,6.2225341796875,-57.75299072265625,70.4376220703125
1663860973331861200,16.198861328125,7.44171142578125,-57.75604248046875,69.67620849609375
1663860973351819800,16.21881982421875,7.92083740234375,-56.8389892578125,70.2911376953125
1663860973371839500,16.238839599609374,7.147216796875,-57.2998046875,69.83184814453125
1663860973391828500,16.258828369140623,8.14971923828125,-53.49578857421875,70.15533447265625
1663860973411817500,16.2788173828125,6.8115234375,-51.97906494140625,70.16143798828125
1663860973431806500,16.298806396484373,7.60345458984375,-50.62255859375,68.64471435546875
1663860973451795500,16.31879541015625,7.93609619140625,-49.40338134765625,68.95599365234375
1663860973471784400,16.338784423828123,8.1573486328125,-46.36688232421875,68.5150146484375
1663860973491773400,16.3587734375,8.831787109375,-43.6126708984375,70.50933837890625
1663860973511762400,16.378762451171873,8.44573974609375,-40.42816162109375,69.76318359375
1663860973531751400,16.39875146484375,7.91168212890625,-37.0880126953125,69.47479248046875
1663860973551740400,16.418740478515623,6.7474365234375,-34.52911376953125,66.89453125
1663860973571729400,16.4387294921875,4.6661376953125,-32.10906982421875,66.14227294921875
1663860973591718700,16.45871875,3.83148193359375,-28.6163330078125,66.0064697265625
1663860973611707600,16.478707763671874,3.582763671875,-26.05133056640625,63.73291015625
1663860973631696600,16.498696533203123,3.92913818359375,-24.2218017578125,64.50347900390625
1663860973651685600,16.518685546875,2.76031494140625,-21.9482421875,64.056396484375
1663860973671674600,16.538674560546873,2.9449462890625,-20.5780029296875,64.215087890625
1663860973691663600,16.55866357421875,-0.4974365234375,-17.70477294921875,63.46435546875
1663860973711622100,16.5786220703125,0.274658203125,-17.2515869140625,62.8570556640625
1663860973731641600,16.5986416015625,1.20391845703125,-16.63360595703125,63.775634765625
1663860973751630600,16.618630615234373,-0.61187744140625,-16.021728515625,64.691162109375
1663860973771619600,16.63861962890625,-1.373291015625,-16.01715087890625,65.45257568359375
1663860973791608600,16.658608642578123,-3.36456298828125,-16.3421630859375,63.4674072265625
1663860973811597600,16.67859765625,-2.783203125,-17.5628662109375,62.85247802734375
1663860973831586800,16.6985869140625,-2.0111083984375,-17.24700927734375,64.07470703125
1663860973851545000,16.718545166015623,-2.33917236328125,-18.1671142578125,63.15460205078125
1663860973871564800,16.738564697265623,0.9674072265625,-20.416259765625,65.8905029296875
1663860973891553800,16.7585537109375,0.38604736328125,-19.19708251953125,66.35284423828125
1663860973911542800,16.778542724609373,0.9918212890625,-19.35577392578125,65.4388427734375
1663860973931562200,16.798562255859373,2.0172119140625,-21.17156982421875,66.192626953125
1663860973951520800,16.818520751953123,1.63116455078125,-24.8138427734375,66.937255859375
1663860973971540200,16.838540283203123,2.06146240234375,-26.01776123046875,68.15032958984375
1663860973991498800,16.858498779296873,3.8726806640625,-26.78985595703125,66.31927490234375
1663860974011487700,16.87848779296875,5.36346435546875,-28.30047607421875,67.07611083984375
1663860974031873500,16.89887353515625,5.41839599609375,-32.6934814453125,68.73016357421875
1663860974051649000,16.91864892578125,6.2713623046875,-35.4248046875,68.87054443359375
1663860974071485400,16.9384853515625,7.8704833984375,-38.909912109375,69.769287109375
1663860974091474400,16.958474365234373,8.08563232421875,-42.85736083984375,70.208740234375
1663860974111555000,16.97855517578125,8.0291748046875,-45.42999267578125,71.5667724609375
1663860974131452400,16.998452392578123,9.17816162109375,-48.47412109375,70.6390380859375
1663860974151441400,17.01844140625,8.68377685546875,-50.14801025390625,70.477294921875
1663860974171430400,17.038430419921873,7.55615234375,-52.7374267578125,70.15838623046875
1663860974191449900,17.058449951171873,7.62176513671875,-56.54144287109375,69.53125
1663860974211378000,17.0783779296875,5.18646240234375,-56.3934326171875,69.6807861328125
1663860974231367000,17.098366943359373,5.7525634765625,-58.36029052734375,70.58563232421875
1663860974251356000,17.11835595703125,5.77545166015625,-57.3028564453125,69.830322265625
1663860974271314400,17.138314453125,6.92596435546875,-60.34088134765625,69.66400146484375
1663860974291334000,17.158333984375,6.50634765625,-58.67156982421875,69.51904296875
1663860974311323100,17.1783232421875,6.83441162109375,-57.61260986328125,68.76220703125
1663860974331312000,17.19831201171875,4.8736572265625,-56.7047119140625,68.9178466796875
1663860974351301000,17.218301025390623,3.84521484375,-54.8980712890625,67.095947265625
1663860974371290000,17.2382900390625,4.78057861328125,-53.985595703125,66.949462890625
1663860974391279000,17.258279052734373,5.77239990234375,-50.634765625,67.57659912109375
1663860974411268000,17.27826806640625,6.43463134765625,-48.3489990234375,68.1976318359375
1663860974431257000,17.298257080078123,7.23724365234375,-46.53472900390625,66.8365478515625
1663860974451246000,17.31824609375,7.31964111328125,-42.88482666015625,67.15850830078125
1663860974471235000,17.338235107421873,5.69305419921875,-40.6158447265625,66.253662109375
1663860974491224000,17.35822412109375,6.43157958984375,-34.9853515625,66.8914794921875
1663860974511213000,17.378213134765623,5.14984130859375,-30.90362548828125,64.6240234375
1663860974531202300,17.398202392578124,3.84674072265625,-27.86865234375,64.48516845703125
1663860974551191300,17.41819140625,2.4566650390625,-21.93603515625,65.42816162109375
1663860974571180300,17.43818017578125,0.018310546875,-21.80633544921875,63.44451904296875
1663860974591169300,17.458169189453123,-0.26702880859375,-21.03424072265625,64.971923828125
1663860974611158300,17.478158203125,-0.0946044921875,-20.12939453125,64.0625
1663860974631147300,17.498147216796873,-0.201416015625,-18.14727783203125,64.98565673828125
1663860974651136300,17.51813623046875,-2.89459228515625,-15.8721923828125,64.99481201171875
1663860974671125200,17.538125244140623,-3.80859375,-15.740966796875,62.860107421875
1663860974691114200,17.5581142578125,-2.5909423828125,-15.8782958984375,64.23187255859375
1663860974711103200,17.578103271484373,-3.717041015625,-18.46466064453125,64.2181396484375
1663860974731092200,17.59809228515625,-1.44195556640625,-19.0643310546875,64.6759033203125
1663860974751081200,17.618081298828123,-4.8004150390625,-19.219970703125,64.9749755859375
1663860974771039700,17.638039794921873,-2.0599365234375,-19.37103271484375,64.36767578125
1663860974791059500,17.6580595703125,-1.49688720703125,-21.48895263671875,65.42510986328125
1663860974811048400,17.67804833984375,1.26190185546875,-20.86944580078125,66.19415283203125
1663860974831037400,17.698037353515623,0.59814453125,-23.3001708984375,66.485595703125
1663860974851026400,17.7180263671875,2.99530029296875,-25.1190185546875,66.4794921875
1663860974870985000,17.73798486328125,3.43780517578125,-25.86212158203125,68.304443359375
1663860974891004400,17.75800439453125,2.97393798828125,-26.15966796875,69.0643310546875
1663860974911268000,17.77826806640625,3.7017822265625,-27.685546875,68.29681396484375
1663860974931196200,17.798196044921873,1.068115234375,-29.51507568359375,68.28460693359375
1663860974950971400,17.817971435546873,2.97088623046875,-33.00933837890625,67.81158447265625
1663860974970960400,17.83796044921875,5.07965087890625,-34.210205078125,69.0277099609375
1663860974990949400,17.857949462890623,6.69097900390625,-37.09564208984375,69.0155029296875
1663860975010969000,17.877968994140623,6.92901611328125,-40.11383056640625,71.4385986328125
1663860975030927600,17.897927734375,5.535888671875,-41.03546142578125,70.51849365234375
1663860975050947000,17.917947021484373,6.390380859375,-43.756103515625,72.1832275390625
1663860975070905600,17.937905517578123,6.927490234375,-46.9451904296875,72.320556640625
1663860975090894600,17.95789453125,5.9478759765625,-49.69940185546875,70.32470703125
1663860975110883600,17.977883544921873,6.35528564453125,-51.9683837890625,71.533203125
1663860975130903000,17.997903076171873,4.81109619140625,-52.8778076171875,72.13592529296875
1663860975150861600,18.017861572265623,5.67779541015625,-54.87213134765625,69.68841552734375
1663860975170850600,18.0378505859375,5.65185546875,-55.94482421875,68.61724853515625
1663860975190839600,18.057839599609373,6.71234130859375,-56.38427734375,70.44525146484375
1663860975210828500,18.07782861328125,5.657958984375,-55.65032958984375,67.55218505859375
1663860975230817500,18.097817626953123,6.1370849609375,-54.736328125,67.7093505859375
1663860975250806800,18.117806884765624,7.8277587890625,-54.1259765625,67.56134033203125
1663860975270795800,18.137795654296873,6.1767578125,-52.92510986328125,66.19415283203125
1663860975290784800,18.15778466796875,6.982421875,-51.08642578125,67.7276611328125
1663860975310773800,18.177773681640623,7.18536376953125,-48.81439208984375,66.8243408203125
1663860975330762800,18.1977626953125,6.1767578125,-46.23260498046875,66.8365478515625
1663860975350751700,18.217751708984373,5.67779541015625,-41.36962890625,67.01202392578125
1663860975370740700,18.23774072265625,6.036376953125,-38.94500732421875,66.1102294921875
1663860975390729700,18.257729736328123,6.57958984375,-35.15167236328125,65.21453857421875
1663860975410718700,18.27771875,6.36444091796875,-31.201171875,65.234375
1663860975430707700,18.297707763671873,5.3375244140625,-29.3853759765625,64.47906494140625
1663860975450696700,18.31769677734375,1.60369873046875,-25.897216796875,64.6453857421875
1663860975470685700,18.337685791015623,1.9500732421875,-24.0814208984375,63.58795166015625
1663860975490705400,18.357705322265623,1.55181884765625,-21.3653564453125,61.31439208984375
1663860975510664000,18.377663818359373,-0.41046142578125,-20.4559326171875,61.468505859375
1663860975530653000,18.39765283203125,-1.13372802734375,-18.77899169921875,62.39166259765625
1663860975550642000,18.417641845703123,-1.38702392578125,-16.5069580078125,61.48681640625
1663860975570631000,18.437630859375,-3.25775146484375,-18.3319091796875,61.78131103515625
1663860975590620000,18.457619873046873,-1.66778564453125,-15.44342041015625,61.492919921875
1663860975610609000,18.47760888671875,-1.50909423828125,-15.13824462890625,61.64703369140625
1663860975630598000,18.497597900390623,-1.080322265625,-16.36810302734375,59.8114013671875
1663860975650587000,18.5175869140625,-3.2012939453125,-15.75775146484375,60.7269287109375
1663860975670575900,18.537575927734373,-1.84173583984375,-16.3604736328125,60.87799072265625
1663860975690564900,18.55756494140625,-1.873779296875,-17.72918701171875,60.87188720703125
1663860975710554000,18.57755419921875,-1.751708984375,-19.091796875,61.474609375
1663860975730543000,18.597543212890624,0.0579833984375,-19.9981689453125,61.6241455078125
1663860975750532000,18.617531982421873,-0.40283203125,-20.15228271484375,61.47003173828125
1663860975770521000,18.63752099609375,3.533935546875,-21.490478515625,64.0594482421875
1663860975790510000,18.657510009765623,1.82342529296875,-22.8729248046875,62.67852783203125
1663860975810804200,18.67780419921875,2.557373046875,-24.22027587890625,64.959716796875
1663860975830579700,18.697579833984374,5.2215576171875,-27.72369384765625,63.26904296875
1663860975850477000,18.71747705078125,4.4189453125,-29.534912109375,65.087890625
1663860975870466000,18.737466064453123,7.1197509765625,-31.50482177734375,64.92919921875
1663860975890485500,18.757485595703123,7.3486328125,-34.84344482421875,65.52276611328125
1663860975910444000,18.777444091796873,8.19549560546875,-37.87689208984375,66.11785888671875
1663860975930433000,18.79743310546875,7.52410888671875,-40.60821533203125,66.71295166015625
1663860975950422300,18.81742236328125,8.34808349609375,-44.69757080078125,68.21746826171875
1663860975970411300,18.837411376953124,9.94415283203125,-48.2025146484375,66.6778564453125
1663860975990400300,18.857400146484373,8.0902099609375,-49.261474609375,67.73834228515625
1663860976010389200,18.87738916015625,9.564208984375,-51.5380859375,67.72918701171875
1663860976030378200,18.897378173828123,9.52301025390625,-53.35845947265625,68.023681640625
1663860976050367200,18.9173671875,7.17926025390625,-55.8074951171875,66.63818359375
1663860976070356200,18.937356201171873,7.4951171875,-55.340576171875,67.86041259765625
1663860976090345200,18.95734521484375,7.77435302734375,-56.4117431640625,66.7877197265625
1663860976110334200,18.977334228515623,8.0474853515625,-57.794189453125,64.95361328125
1663860976130323200,18.9973232421875,8.660888671875,-57.64312744140625,64.80255126953125
1663860976150312200,19.017312255859373,8.10394287109375,-55.34515380859375,67.0989990234375
1663860976170301200,19.03730126953125,8.75091552734375,-53.68804931640625,65.12603759765625
1663860976190290400,19.05729052734375,8.03070068359375,-51.86004638671875,65.8966064453125
1663860976210279400,19.077279541015624,7.6446533203125,-48.80218505859375,68.1976318359375
1663860976230268400,19.097268310546873,8.85772705078125,-48.974609375,65.4541015625
1663860976250257400,19.11725732421875,8.02764892578125,-45.1873779296875,64.25323486328125
1663860976270246400,19.137246337890623,7.4798583984375,-42.45147705078125,64.41802978515625
1663860976290235400,19.1572353515625,6.51092529296875,-38.055419921875,63.37127685546875
1663860976310224400,19.177224365234373,7.64617919921875,-35.150146484375,65.216064453125
1663860976330213400,19.19721337890625,7.40509033203125,-32.275390625,63.7054443359375
1663860976350172000,19.217171875,6.2408447265625,-29.84771728515625,63.56353759765625
1663860976370191400,19.23719140625,5.41229248046875,-26.04217529296875,64.495849609375
1663860976390180400,19.257180419921873,3.21502685546875,-22.0977783203125,64.208984375
1663860976410169300,19.27716943359375,2.00653076171875,-21.5087890625,62.2283935546875
1663860976430158600,19.29715869140625,-1.00250244140625,-19.70367431640625,60.71014404296875
1663860976450147600,19.317147705078124,-1.8829345703125,-18.17779541015625,61.63177490234375
1663860976470136600,19.337136474609373,-1.12762451171875,-18.4814453125,61.6302490234375
1663860976490125600,19.35712548828125,-1.56402587890625,-17.7001953125,64.2242431640625
1663860976510114600,19.377114501953123,-1.82952880859375,-15.88287353515625,63.47198486328125
1663860976530073000,19.397072998046873,-3.18145751953125,-14.97955322265625,62.86468505859375
1663860976550092500,19.417092529296873,-4.58831787109375,-16.50543212890625,62.55035400390625
1663860976570081500,19.43708154296875,-4.83551025390625,-13.92364501953125,62.2589111328125
1663860976590070500,19.457070556640623,-2.60162353515625,-16.34063720703125,63.4674072265625
1663860976610059500,19.4770595703125,-1.42669677734375,-18.30902099609375,64.07012939453125
1663860976630048500,19.497048583984373,-0.860595703125,-20.281982421875,64.2120361328125
1663860976650037500,19.51703759765625,0.384521484375,-19.2047119140625,65.5914306640625
1663860976670026800,19.53702685546875,1.11541748046875,-20.57342529296875,65.2801513671875
1663860976690290400,19.55729052734375,0.927734375,-22.22900390625,67.25311279296875
1663860976710187800,19.577187744140623,3.1768798828125,-23.89678955078125,67.09442138671875
1663860976729993700,19.59699365234375,3.59344482421875,-25.72021484375,67.0867919921875
1663860976750013200,19.61701318359375,5.37567138671875,-27.8350830078125,68.145751953125
1663860976769971700,19.6369716796875,5.96771240234375,-28.59649658203125,67.8375244140625
1663860976789960700,19.656960693359373,5.2520751953125,-33.2977294921875,69.18487548828125
1663860976809949700,19.67694970703125,6.73828125,-34.97314453125,68.26324462890625
1663860976829938700,19.696938720703123,8.001708984375,-39.82086181640625,69.91729736328125
1663860976849927700,19.716927734375,7.42645263671875,-44.9981689453125,68.82476806640625
1663860976869916700,19.736916748046873,6.719970703125,-49.25537109375,68.80340576171875
1663860976889905700,19.75690576171875,7.72857666015625,-51.83868408203125,68.487548828125
1663860976909895000,19.77689501953125,7.9498291015625,-55.49163818359375,67.70782470703125
1663860976929884000,19.7968837890625,6.99920654296875,-57.14263916015625,70.440673828125
1663860976949873000,19.816872802734373,7.42340087890625,-58.52508544921875,68.6065673828125
1663860976969862000,19.83686181640625,6.6497802734375,-58.99505615234375,67.07916259765625
1663860976989851000,19.856850830078123,7.843017578125,-60.19439697265625,68.75152587890625
1663860977009839900,19.87683984375,6.80694580078125,-58.70208740234375,65.86151123046875
1663860977029828900,19.896828857421873,7.1136474609375,-58.6944580078125,66.62445068359375
1663860977049817900,19.91681787109375,7.11212158203125,-58.69903564453125,66.16668701171875
1663860977069806800,19.936806884765623,8.203125,-57.6385498046875,65.411376953125
1663860977089795800,19.9567958984375,8.69293212890625,-56.2591552734375,66.63818359375
1663860977109754400,19.97675439453125,8.6456298828125,-51.6876220703125,68.18389892578125
1663860977129774000,19.996774169921874,9.7869873046875,-48.35662841796875,66.3726806640625
1663860977149763000,20.01676318359375,8.7921142578125,-45.17059326171875,66.082763671875
1663860977169752000,20.036751953125,7.05413818359375,-41.0797119140625,65.03448486328125
1663860977189741000,20.056740966796873,6.341552734375,-38.94195556640625,66.4154052734375
1663860977209730000,20.07672998046875,6.6925048828125,-36.83013916015625,64.29290771484375
1663860977229719000,20.096718994140623,6.8115234375,-31.65435791015625,65.38543701171875
1663860977249708000,20.1167080078125,6.44073486328125,-27.85491943359375,65.5548095703125
1663860977269697000,20.136697021484373,2.960205078125,-26.64947509765625,65.10009765625
1663860977289686000,20.15668603515625,2.43072509765625,-23.016357421875,63.59405517578125
1663860977309675000,20.176675048828123,1.88446044921875,-20.27587890625,64.21661376953125
1663860977329633500,20.196633544921873,-0.72174072265625,-20.88623046875,64.666748046875
1663860977349653000,20.216653076171873,-1.72119140625,-17.85736083984375,63.6138916015625
1663860977369642200,20.236642333984374,-0.54931640625,-19.97528076171875,64.51873779296875
1663860977389631200,20.25663134765625,-0.335693359375,-17.25311279296875,62.8570556640625
1663860977409620200,20.2766201171875,-0.4730224609375,-16.63818359375,63.77410888671875
1663860977429578800,20.296578857421874,-0.46539306640625,-16.3299560546875,64.23187255859375
1663860977449598200,20.31659814453125,-0.1861572265625,-17.39959716796875,63.46588134765625
1663860977469617700,20.33661767578125,1.3275146484375,-17.85736083984375,62.85552978515625
1663860977489576200,20.356576171875,0.74310302734375,-16.7877197265625,63.62152099609375
1663860977509565200,20.376565185546873,-0.63018798828125,-16.79840087890625,62.85858154296875
1663860977529554200,20.39655419921875,1.27716064453125,-20.12481689453125,64.36767578125
1663860977549543200,20.416543212890623,0.982666015625,-19.66705322265625,64.67437744140625
1663860977569532200,20.4365322265625,0.74462890625,-23.46343994140625,64.96124267578125
1663860977589826600,20.45682666015625,1.95770263671875,-23.76861572265625,64.65606689453125
1663860977609601800,20.476601806640623,4.0374755859375,-26.19171142578125,65.1031494140625
1663860977629499400,20.49649951171875,4.4952392578125,-26.18865966796875,65.4083251953125
1663860977649488400,20.51648828125,5.20782470703125,-28.45001220703125,67.2271728515625
1663860977669507800,20.5365078125,5.61981201171875,-30.4290771484375,66.76177978515625
1663860977689436000,20.556435791015623,5.71136474609375,-33.1573486328125,67.66204833984375
1663860977709455400,20.576455322265623,8.392333984375,-35.89935302734375,66.27960205078125
1663860977729444400,20.5964443359375,6.9671630859375,-38.3209228515625,67.79022216796875
1663860977749433300,20.616433349609373,8.40911865234375,-41.83349609375,65.33660888671875
1663860977769422300,20.63642236328125,9.0728759765625,-46.23260498046875,66.07818603515625
1663860977789411300,20.656411376953123,9.63287353515625,-48.5015869140625,67.28668212890625
1663860977809400300,20.676400390625,10.1654052734375,-51.8524169921875,66.20330810546875
1663860977829389300,20.696389404296873,7.2296142578125,-53.66058349609375,68.78204345703125
1663860977849378600,20.716378662109374,7.48291015625,-55.9417724609375,68.6187744140625
1663860977869367600,20.736367431640623,8.72802734375,-54.736328125,66.949462890625
1663860977889356500,20.7563564453125,8.50830078125,-57.7667236328125,68.15338134765625
1663860977909345500,20.776345458984373,5.92803955078125,-57.17315673828125,67.0867919921875
1663860977929334500,20.79633447265625,6.70013427734375,-56.72149658203125,66.32843017578125
1663860977949323500,20.816323486328123,6.89849853515625,-54.74395751953125,66.64276123046875
1663860977969312500,20.8363125,5.81207275390625,-55.51910400390625,65.11383056640625
1663860977989301500,20.856301513671873,7.5531005859375,-52.764892578125,66.8060302734375
1663860978009290500,20.87629052734375,9.8846435546875,-50.78277587890625,66.9708251953125
1663860978029279500,20.896279541015623,6.9091796875,-47.59063720703125,67.89703369140625
1663860978049268500,20.9162685546875,7.09381103515625,-46.08612060546875,65.924072265625
1663860978069257500,20.936257568359373,7.7911376953125,-42.2821044921875,66.400146484375
1663860978089246700,20.956246826171874,7.5469970703125,-39.55078125,65.95611572265625
1663860978109235700,20.976235595703123,7.30133056640625,-36.96746826171875,65.96832275390625
1663860978129224700,20.996224609375,7.0526123046875,-34.3994140625,64.15252685546875
1663860978149213700,21.016213623046873,4.83245849609375,-31.50177001953125,65.99273681640625
1663860978169233200,21.036233154296873,5.37109375,-27.874755859375,63.42010498046875
1663860978189191700,21.056191650390623,4.79888916015625,-26.1962890625,64.34173583984375
1663860978209150200,21.076150146484373,2.581787109375,-23.1536865234375,65.26947021484375
1663860978229169700,21.096169677734373,1.12152099609375,-20.27587890625,64.520263671875
1663860978249158700,21.11615869140625,-2.337646484375,-18.1640625,63.45977783203125
1663860978269147600,21.136147705078123,-1.3763427734375,-16.0400390625,62.86163330078125
1663860978289136600,21.15613671875,-2.44140625,-16.0308837890625,64.07928466796875
1663860978309095200,21.17609521484375,-3.25775146484375,-18.3319091796875,61.78131103515625
1663860978329115000,21.196114990234374,-1.85394287109375,-16.949462890625,63.16070556640625
1663860978349103900,21.216103759765623,-0.91552734375,-16.02325439453125,64.691162109375
1663860978369092900,21.2360927734375,-0.1678466796875,-16.63055419921875,64.5355224609375
1663860978389081900,21.256081787109373,-0.17547607421875,-16.937255859375,64.2303466796875
1663860978409070800,21.27607080078125,-1.3824462890625,-16.473388671875,65.44952392578125
1663860978429059800,21.296059814453123,0.05645751953125,-20.26519775390625,66.0430908203125
1663860978449048800,21.316048828125,0.1708984375,-21.93450927734375,66.1865234375
1663860978469312500,21.3363125,0.32501220703125,-21.80023193359375,64.2059326171875
1663860978489210000,21.356210205078124,2.5482177734375,-24.6673583984375,66.02325439453125
1663860978509015800,21.376015869140623,2.5360107421875,-25.2655029296875,67.08831787109375
1663860978529004800,21.3960048828125,4.5745849609375,-29.38385009765625,64.93682861328125
1663860978548994000,21.415994140625,5.92803955078125,-30.4046630859375,69.6563720703125
1663860978568983000,21.435983154296874,7.25250244140625,-32.40509033203125,66.448974609375
1663860978588972000,21.455971923828123,5.68084716796875,-34.51995849609375,68.2647705078125
1663860978608961000,21.4759609375,7.29827880859375,-37.24517822265625,69.1680908203125
1663860978628950000,21.495949951171873,6.60858154296875,-40.73638916015625,69.7601318359375
1663860978648939000,21.51593896484375,6.5093994140625,-45.1446533203125,69.73724365234375
1663860978668928000,21.535927978515623,7.05718994140625,-47.87750244140625,69.87762451171875
1663860978688917000,21.5559169921875,6.9671630859375,-51.8218994140625,70.61920166015625
1663860978708936400,21.5759365234375,8.16802978515625,-52.72674560546875,71.22650146484375
1663860978728895000,21.59589501953125,8.11614990234375,-54.8797607421875,68.1671142578125
1663860978748884000,21.615884033203123,7.025146484375,-55.9417724609375,68.6187744140625
1663860978768873000,21.635873046875,5.1666259765625,-57.1685791015625,67.84820556640625
1663860978788862200,21.6558623046875,6.96563720703125,-58.5296630859375,68.1488037109375
1663860978808851200,21.675851318359374,6.9732666015625,-58.22296142578125,68.6065673828125
1663860978828840200,21.695840087890623,7.44171142578125,-57.75604248046875,69.67620849609375
1663860978848829200,21.7158291015625,7.1563720703125,-56.85577392578125,68.46160888671875
1663860978868818200,21.735818115234373,5.96466064453125,-55.63812255859375,68.9239501953125
1663860978888807200,21.75580712890625,7.65380859375,-55.03997802734375,67.2515869140625
1663860978908796200,21.775796142578123,7.53021240234375,-53.81317138671875,68.62945556640625
1663860978928785200,21.79578515625,7.58056640625,-51.67999267578125,69.40155029296875
1663860978948774100,21.815774169921873,7.9681396484375,-48.028564453125,69.72503662109375
1663860978968763100,21.83576318359375,8.94012451171875,-45.5810546875,71.4141845703125
1663860978988752100,21.855752197265623,7.04803466796875,-41.50238037109375,68.994140625
1663860979008710700,21.875710693359373,6.38427734375,-37.11395263671875,66.88079833984375
1663860979028730400,21.89573046875,6.268310546875,-35.443115234375,66.73736572265625
1663860979048719400,21.91571923828125,5.47027587890625,-30.28564453125,65.8477783203125
1663860979068708400,21.935708251953123,4.28009033203125,-28.93218994140625,64.4805908203125
1663860979088697300,21.955697265625,4.34722900390625,-26.031494140625,66.0186767578125
1663860979108655900,21.97565576171875,2.9052734375,-22.3846435546875,66.34063720703125
1663860979128675300,21.99567529296875,0.811767578125,-20.5718994140625,65.5853271484375
1663860979148664300,22.015664306640623,0.799560546875,-21.03271484375,64.97344970703125
1663860979168653300,22.0356533203125,-0.6378173828125,-17.22564697265625,66.20941162109375
1663860979188642300,22.055642333984373,-2.43988037109375,-16.02020263671875,65.4510498046875
1663860979208631300,22.07563134765625,-1.837158203125,-16.32080078125,65.60211181640625
1663860979228620300,22.095620361328123,-4.44488525390625,-16.943359375,64.5294189453125
1663860979248609300,22.115609375,-1.861572265625,-17.38739013671875,65.2923583984375
1663860979268598500,22.1355986328125,-0.7781982421875,-16.632080078125,64.5355224609375
1663860979288587500,22.15558740234375,-0.1922607421875,-17.694091796875,64.53094482421875
1663860979308546000,22.175546142578124,0.11444091796875,-17.68798828125,65.29388427734375
1663860979328565500,22.1955654296875,0.69427490234375,-19.036865234375,67.26837158203125
1663860979348920600,22.215920654296873,2.69012451171875,-18.4295654296875,66.81671142578125
1663860979368848600,22.2358486328125,1.72119140625,-20.8587646484375,67.2607421875
1663860979388593700,22.25559375,1.56402587890625,-21.01898193359375,66.34521484375
1663860979408521500,22.275521484375,2.71759033203125,-24.03564453125,68.76983642578125
1663860979428510500,22.295510498046873,2.84881591796875,-24.9481201171875,68.61419677734375
1663860979448530200,22.3155302734375,5.3192138671875,-30.40313720703125,69.9615478515625
1663860979468519200,22.335519287109374,5.56640625,-32.9742431640625,71.47216796875
1663860979488477700,22.355477783203124,7.586669921875,-37.98675537109375,71.1456298828125
1663860979508466700,22.375466796875,7.257080078125,-39.05487060546875,70.68328857421875
1663860979528455700,22.39545556640625,6.39495849609375,-43.46160888671875,71.1181640625
1663860979548414200,22.415414306640624,7.1014404296875,-46.03118896484375,72.47772216796875
1663860979568433700,22.43543359375,5.94940185546875,-49.69329833984375,71.08612060546875
1663860979588422700,22.455422607421873,5.10406494140625,-53.3416748046875,71.06781005859375
1663860979608411600,22.47541162109375,6.88629150390625,-55.46417236328125,71.36383056640625
1663860979628400600,22.495400634765623,6.27288818359375,-55.6182861328125,71.209716796875
1663860979648359200,22.515359130859373,5.7342529296875,-59.12628173828125,69.8211669921875
1663860979668378600,22.535378662109373,5.55572509765625,-60.32867431640625,71.490478515625
1663860979688367600,22.55536767578125,5.572509765625,-59.57489013671875,70.73211669921875
1663860979708356600,22.575356689453123,3.88031005859375,-60.18829345703125,70.574951171875
1663860979728345900,22.595345947265624,6.62078857421875,-60.3424072265625,69.6624755859375
1663860979748334800,22.6153349609375,5.27496337890625,-59.1339111328125,69.0582275390625
1663860979768323800,22.63532373046875,5.5938720703125,-58.526611328125,68.90869140625
1663860979788312800,22.655312744140623,6.26983642578125,-55.6304931640625,69.68536376953125
1663860979808301800,22.6753017578125,6.81610107421875,-51.6876220703125,68.63861083984375
1663860979828290800,22.695290771484373,7.05718994140625,-47.87139892578125,70.6390380859375
1663860979848279800,22.71527978515625,7.05718994140625,-47.8729248046875,70.3338623046875
1663860979868268800,22.735268798828123,8.5479736328125,-42.7001953125,70.66650390625
1663860979888257800,22.7552578125,6.4849853515625,-39.50958251953125,71.136474609375
1663860979908246800,22.775246826171873,5.61676025390625,-37.5244140625,72.36480712890625
1663860979928235800,22.79523583984375,6.79931640625,-32.36846923828125,70.867919921875
1663860979948224800,22.815224853515623,3.924560546875,-31.32171630859375,69.4976806640625
1663860979968214000,22.835214111328124,4.28466796875,-28.89404296875,68.90106201171875
1663860979988203000,22.855203125,5.267333984375,-25.860595703125,68.0023193359375
1663860980008192000,22.87519189453125,3.47747802734375,-24.053955078125,66.485595703125
1663860980028181000,22.895180908203123,2.73284912109375,-23.29559326171875,66.4886474609375
1663860980048170000,22.915169921875,0.189208984375,-21.16241455078125,67.7154541015625
1663860980068159000,22.935158935546873,0.213623046875,-20.0958251953125,68.02520751953125
1663860980088148000,22.95514794921875,-0.689697265625,-19.63958740234375,68.33038330078125
1663860980108137000,22.975136962890623,-0.96588134765625,-18.28765869140625,66.50848388671875
1663860980128126000,22.9951259765625,-2.5054931640625,-19.03076171875,68.7896728515625
1663860980148115000,23.015114990234373,-0.8392333984375,-19.4854736328125,68.63555908203125
1663860980168104000,23.03510400390625,-0.4180908203125,-21.1456298828125,69.84710693359375
1663860980188093000,23.055093017578123,0.054931640625,-20.52459716796875,71.22344970703125
1663860980208082200,23.075082275390624,0.80718994140625,-20.977783203125,71.527099609375
1663860980228071200,23.0950712890625,1.10321044921875,-21.295166015625,69.696044921875
1663860980248334800,23.1153349609375,0.799560546875,-21.282958984375,71.22039794921875
1663860980268232200,23.135232177734373,1.18865966796875,-24.3255615234375,70.9014892578125
1663860980288068600,23.155068603515623,3.7384033203125,-26.15203857421875,69.8272705078125
1663860980308027100,23.175027099609373,3.0364990234375,-30.11932373046875,68.1304931640625
1663860980328016100,23.19501611328125,6.67572021484375,-31.1492919921875,71.17767333984375
1663860980348005000,23.215005126953123,6.1492919921875,-34.1888427734375,71.31500244140625
1663860980367994000,23.234994140625,6.2408447265625,-36.9140625,72.52044677734375
1663860980387983000,23.254983154296873,6.072998046875,-37.530517578125,71.6033935546875
1663860980407972000,23.27497216796875,7.3333740234375,-42.53082275390625,73.1048583984375
1663860980427961000,23.294961181640623,8.38470458984375,-43.2861328125,73.406982421875
1663860980447950300,23.314950439453124,8.02154541015625,-45.86334228515625,74.15618896484375
1663860980467908600,23.33490869140625,8.1146240234375,-48.44512939453125,74.2950439453125
1663860980487928300,23.35492822265625,6.05316162109375,-51.953125,73.3612060546875
1663860980507917300,23.374917236328123,6.34002685546875,-52.7130126953125,73.358154296875
1663860980527906300,23.39490625,6.12640380859375,-55.44281005859375,73.9532470703125
1663860980547895300,23.414895263671873,4.205322265625,-59.4085693359375,72.86529541015625
1663860980567853800,23.434853759765623,5.52215576171875,-61.83624267578125,73.0072021484375
1663860980587873300,23.454873291015623,4.57305908203125,-63.35601806640625,73.150634765625
1663860980607862300,23.4748623046875,5.03387451171875,-63.2080078125,72.5433349609375
1663860980627851300,23.494851318359373,5.64117431640625,-63.3544921875,73.15216064453125
1663860980647840300,23.51484033203125,2.14385986328125,-62.9058837890625,72.998046875
1663860980667829200,23.534829345703123,5.69610595703125,-60.9222412109375,73.16436767578125
1663860980687818500,23.554818603515624,3.85284423828125,-61.52496337890625,74.22637939453125
1663860980707807500,23.574807373046873,6.524658203125,-58.0230712890625,74.2462158203125
1663860980727796500,23.59479638671875,6.7108154296875,-56.6436767578125,75.6256103515625
1663860980747785500,23.614785400390623,5.2490234375,-53.77197265625,74.11346435546875
1663860980767774500,23.6347744140625,7.1533203125,-50.567626953125,75.1983642578125
1663860980787763500,23.654763427734373,7.35626220703125,-48.42529296875,76.885986328125
1663860980807752400,23.67475244140625,8.367919921875,-44.036865234375,74.468994140625
1663860980827741400,23.694741455078123,8.148193359375,-40.374755859375,76.31683349609375
1663860980847730400,23.71473046875,5.34210205078125,-36.29150390625,74.50408935546875
1663860980867719400,23.734719482421873,5.712890625,-33.40301513671875,74.51934814453125
1663860980887708400,23.75470849609375,3.44390869140625,-32.50732421875,73.30169677734375
1663860980907697700,23.77469775390625,4.290771484375,-28.84521484375,74.8443603515625
1663860980927686700,23.794686767578124,4.33349609375,-27.0111083984375,75.92010498046875
1663860980947675600,23.814675537109373,1.0345458984375,-24.58038330078125,76.690673828125
1663860980967664600,23.83466455078125,1.02081298828125,-25.1953125,75.92620849609375
1663860980987653600,23.854653564453123,2.4383544921875,-23.2147216796875,76.0894775390625
1663860981007642600,23.874642578125,0.640869140625,-21.832275390625,78.22723388671875
1663860981027631600,23.894631591796873,0.77056884765625,-22.76153564453125,76.2420654296875
1663860981047620600,23.91462060546875,-0.8636474609375,-20.93505859375,77.0111083984375
1663860981067609600,23.934609619140623,0.32501220703125,-22.30224609375,76.70135498046875
1663860981087598600,23.9545986328125,1.8310546875,-23.06976318359375,75.4791259765625
1663860981107557000,23.97455712890625,1.95465087890625,-24.2889404296875,75.01678466796875
1663860981127943000,23.99494287109375,2.55279541015625,-24.8809814453125,76.690673828125
1663860981147840300,24.01484033203125,3.55377197265625,-27.77252197265625,75.91552734375
1663860981167615700,24.03461572265625,5.2520751953125,-26.85394287109375,76.37939453125
1663860981187574300,24.05457421875,5.5023193359375,-29.4158935546875,78.9581298828125
1663860981207532800,24.07453271484375,4.547119140625,-31.09893798828125,77.72979736328125
1663860981227491300,24.0944912109375,6.5216064453125,-31.536865234375,79.40521240234375
1663860981247510800,24.1145107421875,4.1961669921875,-33.21685791015625,79.09088134765625
1663860981267469300,24.13446923828125,6.41937255859375,-35.96038818359375,77.55584716796875
1663860981287488800,24.15448876953125,5.279541015625,-39.154052734375,77.53753662109375
1663860981307477800,24.174477783203123,7.80487060546875,-42.1722412109375,79.3548583984375
1663860981327466800,24.194466796875,7.1624755859375,-43.6767578125,81.32781982421875
1663860981347472600,24.21447265625,4.3548583984375,-46.42333984375,80.70220947265625
1663860981367461600,24.234461669921874,5.4962158203125,-49.9053955078125,82.05718994140625
1663860981387450600,24.25445068359375,4.81109619140625,-53.2501220703125,82.0404052734375
1663860981407439600,24.274439697265624,4.7454833984375,-56.13861083984375,82.02667236328125
1663860981427428600,24.2944287109375,2.2613525390625,-58.111572265625,82.928466796875
1663860981447417600,24.31441748046875,2.0477294921875,-60.84442138671875,83.3709716796875
1663860981467406800,24.33440673828125,0.5767822265625,-65.11077880859375,82.281494140625
1663860981487395800,24.354395751953124,0.84686279296875,-66.63360595703125,81.97021484375
1663860981507384800,24.374384765625,-0.25482177734375,-68.1549072265625,81.9610595703125
1663860981527373800,24.394373779296874,-0.28533935546875,-69.5159912109375,82.71636962890625
1663860981547362800,24.41436279296875,-0.15411376953125,-70.4315185546875,82.40814208984375
1663860981567351800,24.434351806640624,0.50048828125,-68.45703125,81.9610595703125
1663860981587340800,24.4543408203125,1.42669677734375,-67.864990234375,79.8309326171875
1663860981607329800,24.474329833984374,1.92108154296875,-66.33148193359375,81.5155029296875
1663860981627318800,24.49431884765625,1.81732177734375,-64.19830322265625,82.135009765625
1663860981647277300,24.51427734375,2.76641845703125,-62.677001953125,81.9915771484375
1663860981667296800,24.534296875,1.85699462890625,-62.3870849609375,80.621337890625
1663860981687285800,24.55428564453125,2.386474609375,-59.332275390625,82.31201171875
1663860981707275000,24.57427490234375,3.6712646484375,-56.4453125,82.02362060546875
1663860981727264000,24.594263916015624,5.40771484375,-53.8482666015625,83.10546875
1663860981747253000,24.6142529296875,5.3314208984375,-50.5035400390625,83.2733154296875
1663860981767242000,24.634241943359374,6.77490234375,-47.31903076171875,82.07244873046875
1663860981787200500,24.654200439453124,6.451416015625,-41.52984619140625,83.929443359375
1663860981807220000,24.674219970703124,6.04705810546875,-39.10980224609375,82.568359375
1663860981827209000,24.694208984375,4.266357421875,-36.97662353515625,83.79669189453125
1663860981847198000,24.714197998046874,3.72772216796875,-33.929443359375,84.72442626953125
1663860981867187000,24.73418701171875,3.47137451171875,-31.66961669921875,82.4493408203125
1663860981887176000,24.754176025390624,2.60772705078125,-29.38995361328125,82.61260986328125
1663860981907165000,24.7741650390625,3.35540771484375,-30.13916015625,83.8287353515625
1663860981927154000,24.79415380859375,1.71356201171875,-28.4820556640625,82.46307373046875
1663860981947143200,24.81414306640625,3.12347412109375,-26.93939208984375,84.75799560546875
1663860981967132200,24.834132080078124,1.14898681640625,-26.50299072265625,83.08258056640625
1663860981987121200,24.85412109375,1.02996826171875,-25.115966796875,85.37445068359375
1663860982007140600,24.874140625,-0.50201416015625,-25.4241943359375,85.21881103515625
1663860982027343400,24.89434326171875,-0.0732421875,-26.64642333984375,84.2987060546875
1663860982047240700,24.91424072265625,1.409912109375,-28.47900390625,82.92083740234375
1663860982067077000,24.9340771484375,3.0548095703125,-29.97894287109375,84.7442626953125
1663860982087066000,24.954066162109374,3.01513671875,-31.6619873046875,83.51593017578125
1663860982107055000,24.97405517578125,4.35638427734375,-33.02459716796875,83.8165283203125
1663860982127044000,24.994044189453124,4.6875,-31.94427490234375,85.650634765625
1663860982147033000,25.014033203125,2.97698974609375,-33.45947265625,86.55548095703125
1663860982167022000,25.03402197265625,3.53851318359375,-35.58197021484375,87.0025634765625
1663860982187011300,25.05401123046875,1.21917724609375,-37.091064453125,88.9739990234375
1663860982207000300,25.074000244140624,0.84228515625,-40.27862548828125,89.56756591796875
1663860982226958800,25.093958740234374,1.2603759765625,-42.08831787109375,91.082763671875
1663860982246978300,25.113978271484374,0.62255859375,-43.3074951171875,90.771484375
1663860982266967300,25.13396728515625,0.360107421875,-48.16436767578125,91.66107177734375
1663860982286956300,25.153956298828124,-0.7232666015625,-48.919677734375,92.41943359375
1663860982306945300,25.1739453125,-0.335693359375,-51.96685791015625,91.49017333984375
1663860982326903800,25.19390380859375,-1.3275146484375,-55.31158447265625,91.47186279296875
1663860982346923300,25.21392333984375,-2.484130859375,-59.2681884765625,91.1468505859375
1663860982366912300,25.233912353515624,-1.45721435546875,-61.0809326171875,92.205810546875
1663860982386901200,25.2539013671875,-4.8797607421875,-64.12200927734375,92.79632568359375
1663860982406890200,25.27389013671875,-6.42547607421875,-64.90478515625,90.50445556640625
1663860982426879500,25.29387939453125,-7.5439453125,-67.17987060546875,91.25518798828125
1663860982446868500,25.313868408203124,-7.55157470703125,-67.49420166015625,90.185546875
1663860982466857500,25.333857421875,-7.31048583984375,-70.37200927734375,91.2384033203125
1663860982486846500,25.353846435546874,-7.4615478515625,-70.2362060546875,89.2578125
1663860982506835500,25.37383544921875,-8.80889892578125,-69.16046142578125,91.09039306640625
1663860982526824400,25.393824462890624,-8.502197265625,-69.15283203125,91.85333251953125
1663860982546813400,25.4138134765625,-7.904052734375,-69.6197509765625,90.48004150390625
1663860982566802400,25.433802490234374,-6.4483642578125,-65.96221923828125,91.26129150390625
1663860982586791400,25.45379150390625,-7.3699951171875,-66.26739501953125,91.412353515625
1663860982606780400,25.473780517578124,-3.62701416015625,-62.60528564453125,92.1966552734375
1663860982626769400,25.493769287109377,-4.38690185546875,-62.591552734375,94.024658203125
1663860982646758700,25.513758544921874,-4.47845458984375,-59.86328125,93.12286376953125
1663860982666747600,25.53374755859375,-1.96533203125,-56.6650390625,93.29376220703125
1663860982686736600,25.553736572265624,-1.61285400390625,-54.53948974609375,92.999267578125
1663860982706725600,25.5737255859375,-0.7965087890625,-52.24456787109375,94.68841552734375
1663860982726714600,25.593714599609374,-1.348876953125,-49.67041015625,93.634033203125
1663860982746703600,25.61370361328125,0.70953369140625,-46.319580078125,93.95751953125
1663860982766692600,25.633692626953124,-0.86212158203125,-41.62445068359375,92.45452880859375
1663860982786681600,25.653681640625,-1.3824462890625,-37.6678466796875,93.23577880859375
1663860982806670600,25.673670654296874,-1.4892578125,-35.68572998046875,94.158935546875
1663860982826659600,25.69365966796875,-3.5919189453125,-34.320068359375,94.31610107421875
1663860982846648600,25.713648681640624,-5.54046630859375,-32.806396484375,94.16961669921875
1663860982866637600,25.733637451171877,-4.30755615234375,-32.33184814453125,96.002197265625
1663860982886626800,25.753626708984374,-2.75421142578125,-31.10504150390625,96.923828125
1663860982906951400,25.773951416015624,-2.2735595703125,-30.03997802734375,96.929931640625
1663860982926879500,25.79387939453125,-3.47747802734375,-29.2938232421875,95.5596923828125
1663860982946654700,25.81365478515625,-5.6182861328125,-29.59747314453125,96.16546630859375
1663860982966582800,25.833582763671874,-5.1544189453125,-29.30145263671875,95.10040283203125
1663860982986571800,25.85357177734375,-4.1046142578125,-30.059814453125,95.098876953125
1663860983006560800,25.873560791015624,-1.83868408203125,-30.96771240234375,94.94476318359375
1663860983026549800,25.8935498046875,-5.6610107421875,-31.43310546875,94.7845458984375
1663860983046538800,25.913538818359374,-4.17022705078125,-32.9437255859375,95.5413818359375
1663860983066527700,25.93352783203125,-4.931640625,-32.94219970703125,95.84503173828125
1663860983086516700,25.953516845703124,-3.62548828125,-35.8306884765625,95.52764892578125
1663860983106505700,25.973505615234377,-2.3468017578125,-33.24127197265625,95.8465576171875
1663860983126495000,25.993494873046874,-0.42877197265625,-36.11602783203125,96.9024658203125
1663860983146484000,26.01348388671875,-1.03912353515625,-36.1236572265625,96.1395263671875
1663860983166473000,26.033472900390624,-2.7618408203125,-38.1072998046875,95.6695556640625
1663860983186462000,26.0534619140625,-4.0283203125,-40.21453857421875,98.40087890625
1663860983206451000,26.073450927734374,-4.85687255859375,-43.109130859375,97.62420654296875
1663860983226409500,26.093409423828124,-3.8543701171875,-45.99456787109375,97.61199951171875
1663860983246429000,26.113428955078124,-4.36248779296875,-48.26202392578125,99.2767333984375
1663860983266418000,26.13341796875,-6.24237060546875,-50.537109375,100.32958984375
1663860983286407000,26.153406982421874,-4.76837158203125,-52.6824951171875,97.7294921875
1663860983306396000,26.17339599609375,-7.57598876953125,-55.4229736328125,97.86529541015625
1663860983326385000,26.193385009765624,-6.52313232421875,-56.1676025390625,99.3865966796875
1663860983346374000,26.213373779296877,-7.35321044921875,-59.06982421875,97.8485107421875
1663860983366363100,26.233363037109374,-7.69195556640625,-60.58349609375,98.602294921875
1663860983386352000,26.25335205078125,-9.26513671875,-62.71820068359375,98.284912109375
1663860983406341000,26.273341064453124,-9.44671630859375,-63.93890380859375,97.66845703125
1663860983426330000,26.293330078125,-8.52813720703125,-63.78936767578125,97.2137451171875
1663860983446319000,26.313319091796874,-8.73870849609375,-66.2445068359375,94.4580078125
1663860983466308000,26.33330810546875,-6.5673828125,-64.70489501953125,96.29669189453125
1663860983486297000,26.353297119140624,-7.1563720703125,-63.78936767578125,96.75750732421875
1663860983506286000,26.3732861328125,-5.74798583984375,-62.12615966796875,95.54901123046875
1663860983526244600,26.39324462890625,-5.8563232421875,-60.15777587890625,94.6441650390625
1663860983546264000,26.41326416015625,-4.90264892578125,-58.4808349609375,95.111083984375
1663860983566253000,26.433253173828124,-6.05621337890625,-55.58929443359375,95.88470458984375
1663860983586242000,26.453241943359377,-4.8126220703125,-54.52880859375,95.12939453125
1663860983606231300,26.473231201171874,-3.2379150390625,-52.25372314453125,94.2291259765625
1663860983626220300,26.49322021484375,-2.5543212890625,-49.05548095703125,94.854736328125
1663860983646209300,26.513209228515624,-2.02789306640625,-46.01287841796875,95.0225830078125
1663860983666167800,26.533167724609374,-2.9754638671875,-40.826416015625,97.637939453125
1663860983686187300,26.553187255859374,-2.886962890625,-36.8865966796875,96.1334228515625
1663860983706176300,26.57317626953125,-2.87017822265625,-36.1297607421875,95.83282470703125
1663860983726165200,26.593165283203124,-3.11737060546875,-33.685302734375,97.36785888671875
1663860983746154200,26.613154296875,-5.0445556640625,-31.25457763671875,97.83477783203125
1663860983766143200,26.633143310546874,-5.908203125,-28.98101806640625,97.3876953125
1663860983786132200,26.65313232421875,-6.0546875,-28.68194580078125,96.77886962890625
1663860983806487600,26.673487548828124,-8.52508544921875,-30.0567626953125,96.61712646484375
1663860983826263000,26.693262939453124,-6.8817138671875,-24.87945556640625,97.40753173828125
1663860983846099500,26.713099365234374,-7.99102783203125,-26.6998291015625,98.00567626953125
1663860983866088400,26.73308837890625,-6.9244384765625,-26.71356201171875,96.17919921875
1663860983886077400,26.753077392578124,-7.05413818359375,-25.78125,98.62213134765625
1663860983906066400,26.77306640625,-7.6446533203125,-24.884033203125,96.9482421875
1663860983926055400,26.793055419921874,-5.65338134765625,-24.42474365234375,96.80023193359375
1663860983946044400,26.81304443359375,-7.02667236328125,-24.4415283203125,95.27587890625
1663860983966033400,26.833033447265624,-8.599853515625,-26.5716552734375,95.263671875
1663860983986022400,26.8530224609375,-8.77685546875,-27.7679443359375,97.6959228515625
1663860984006011400,26.873011474609374,-7.13348388671875,-29.14886474609375,95.709228515625
1663860984025970000,26.892969970703124,-6.4117431640625,-31.0943603515625,99.20501708984375
1663860984045989400,26.9129892578125,-5.14678955078125,-28.9886474609375,96.1700439453125
1663860984065978600,26.932978515625,-5.66864013671875,-31.86798095703125,97.37396240234375
1663860984085967600,26.952967529296874,-4.31671142578125,-32.77587890625,97.52349853515625
1663860984105956600,26.97295654296875,-5.25970458984375,-33.9935302734375,97.36328125
1663860984125945600,26.992945556640624,-6.64520263671875,-34.5947265625,98.577880859375
1663860984145934600,27.0129345703125,-5.63201904296875,-37.02239990234375,98.87237548828125
1663860984165923600,27.032923583984374,-5.05828857421875,-38.6810302734375,100.23651123046875
