time,seconds_elapsed,z,y,x
1663860957300676400,0.16767626953125,-46.74530029296875,0.1739501953125,33.3648681640625
1663860957320665300,0.187665283203125,-46.59576416015625,0.0274658203125,33.97369384765625
1663860957340654600,0.207654541015625,-48.25439453125,0.9124755859375,31.23321533203125
1663860957360643600,0.2276435546875,-47.06268310546875,-0.29754638671875,31.5338134765625
1663860957380632600,0.247632568359375,-46.905517578125,-0.01373291015625,29.095458984375
1663860957400621600,0.26762158203125,-47.7996826171875,0.89263916015625,28.64227294921875
1663860957420610600,0.287610595703125,-47.81951904296875,0.1190185546875,27.1148681640625
1663860957440599600,0.307599609375,-49.0814208984375,-1.84478759765625,28.77960205078125
1663860957460558000,0.32755810546875,-49.84588623046875,-1.8585205078125,27.2552490234375
1663860957480577500,0.34757763671875,-49.72381591796875,-3.22113037109375,27.85797119140625
1663860957500566500,0.36756640625,-50.73394775390625,-0.64697265625,27.10723876953125
1663860957520555500,0.387555419921875,-49.99847412109375,-1.7364501953125,23.75030517578125
1663860957540544500,0.40754443359375,-50.445556640625,-1.40838623046875,26.79901123046875
1663860957560533500,0.427533447265625,-51.84478759765625,-2.48870849609375,25.2685546875
1663860957580522800,0.447522705078125,-50.7720947265625,-2.197265625,23.44207763671875
1663860957600511700,0.46751171875,-50.6622314453125,-4.156494140625,25.41351318359375
1663860957620500700,0.487500732421875,-50.05950927734375,-4.33807373046875,21.6033935546875
1663860957640489700,0.50748974609375,-49.908447265625,-4.46929931640625,24.041748046875
1663860957660478700,0.527478759765625,-50.36773681640625,-4.486083984375,22.21221923828125
1663860957680467700,0.5474677734375,-50.6744384765625,-4.49676513671875,20.9930419921875
1663860957700456700,0.567456787109375,-49.75433349609375,-4.32891845703125,22.6715087890625
1663860957720445700,0.58744580078125,-50.86212158203125,-6.15081787109375,23.11859130859375
1663860957740404200,0.607404296875,-50.0762939453125,-5.096435546875,21.905517578125
1663860957760423700,0.627423583984375,-49.93438720703125,-5.54656982421875,22.5128173828125
1663860957780412700,0.64741259765625,-50.39215087890625,-5.5572509765625,21.4447021484375
1663860957800402000,0.66740185546875,-49.75433349609375,-4.32891845703125,22.6715087890625
1663860957820360200,0.687360107421875,-51.3031005859375,-5.3955078125,22.66387939453125
1663860957840380000,0.7073798828125,-50.06256103515625,-4.35638427734375,19.47021484375
1663860957860369000,0.727368896484375,-52.38189697265625,-5.86395263671875,21.59423828125
1663860957880358000,0.74735791015625,-50.07781982421875,-5.10101318359375,21.295166015625
1663860957900316400,0.76731640625,-50.70953369140625,-6.01959228515625,20.68023681640625
1663860957920336000,0.7873359375,-51.6326904296875,-6.4727783203125,21.2860107421875
1663860957940324900,0.807324951171875,-49.9114990234375,-4.498291015625,20.68939208984375
1663860957960313900,0.82731396484375,-50.5523681640625,-5.865478515625,20.8343505859375
1663860957980302800,0.847302734375,-49.7955322265625,-6.1553955078125,22.357177734375
1663860958000281000,0.867281005859375,-52.11334228515625,-7.3974609375,19.90966796875
1663860958020575500,0.887575439453125,-50.6744384765625,-4.49676513671875,20.9930419921875
1663860958040503300,0.90750341796875,-51.5869140625,-4.35791015625,19.7723388671875
1663860958060278800,0.92727880859375,-51.9256591796875,-5.87158203125,20.52764892578125
1663860958080237300,0.9472373046875,-50.067138671875,-4.644775390625,21.29669189453125
1663860958100256800,0.9672568359375,-49.81231689453125,-6.9122314453125,22.65777587890625
1663860958120215300,0.98721533203125,-50.85906982421875,-5.877685546875,19.4610595703125
1663860958140204300,1.007204345703125,-51.47705078125,-6.31866455078125,21.44012451171875
1663860958160223700,1.0272236328125,-50.8575439453125,-5.8685302734375,20.5291748046875
1663860958180182300,1.047182373046875,-50.58441162109375,-7.24029541015625,20.0653076171875
1663860958200171300,1.067171142578125,-51.35498046875,-7.55462646484375,18.99566650390625
1663860958220160300,1.08716015625,-51.3397216796875,-6.93817138671875,20.0653076171875
1663860958240149200,1.107149169921875,-50.592041015625,-7.5469970703125,19.75860595703125
1663860958260138500,1.127138427734375,-50.89111328125,-7.25555419921875,18.23577880859375
1663860958280127500,1.14712744140625,-51.47857666015625,-6.33392333984375,19.610595703125
1663860958300116500,1.167116455078125,-50.60272216796875,-8.01239013671875,18.68896484375
1663860958320105500,1.18710546875,-50.86669921875,-6.1859130859375,19.0032958984375
1663860958340094500,1.207094482421875,-51.64642333984375,-6.94732666015625,18.99871826171875
1663860958360083500,1.22708349609375,-50.88348388671875,-6.9427490234375,19.45648193359375
1663860958380072400,1.247072509765625,-51.0650634765625,-8.16650390625,18.536376953125
1663860958400061400,1.2670615234375,-50.7171630859375,-6.3385009765625,18.84918212890625
1663860958420050400,1.287050537109375,-52.4017333984375,-6.51702880859375,16.1041259765625
1663860958440039400,1.307039306640625,-52.7496337890625,-8.35113525390625,15.02838134765625
1663860958460028400,1.3270283203125,-53.84521484375,-9.4482421875,11.36322021484375
1663860958480017400,1.347017333984375,-53.51104736328125,-8.10089111328125,8.7799072265625
1663860958500006700,1.367006591796875,-53.64990234375,-7.2479248046875,1.9256591796875
1663860958519995600,1.38699560546875,-52.17437744140625,-9.12017822265625,-4.3304443359375
1663860958539984600,1.406984619140625,-49.65057373046875,-11.90032958984375,-10.284423828125
1663860958560065000,1.42706494140625,-47.41363525390625,-13.7908935546875,-18.8262939453125
1663860958579962600,1.446962646484375,-39.5721435546875,-17.4652099609375,-23.86474609375
1663860958599921200,1.466921142578125,-32.57904052734375,-17.99774169921875,-34.68017578125
1663860958619940600,1.486940673828125,-24.63226318359375,-16.96319580078125,-40.1519775390625
1663860958639929600,1.5069296875,-19.23980712890625,-14.276123046875,-47.296142578125
1663860958659918600,1.526918701171875,-11.92169189453125,-7.44781494140625,-50.3021240234375
1663860958679907600,1.546907470703125,-8.77838134765625,3.48358154296875,-52.37884521484375
1663860958699896600,1.566896484375,-7.18536376953125,13.07830810546875,-50.347900390625
1663860958719885800,1.5868857421875,-9.39178466796875,16.461181640625,-45.15228271484375
1663860958739905300,1.6069052734375,-8.98895263671875,20.59478759765625,-41.6259765625
1663860958759863800,1.62686376953125,-9.564208984375,21.9940185546875,-37.80975341796875
1663860958779852800,1.646852783203125,-9.21630859375,23.8311767578125,-36.2762451171875
1663860958799841800,1.666841796875,-11.77978515625,25.048828125,-35.35919189453125
1663860958819830800,1.686830810546875,-15.24810791015625,26.72119140625,-34.44061279296875
1663860958839819800,1.70681982421875,-14.95208740234375,26.28173828125,-32.6141357421875
1663860958859808800,1.726808837890625,-17.2271728515625,26.8707275390625,-34.28955078125
1663860958879797800,1.7467978515625,-17.13409423828125,24.151611328125,-32.3211669921875
1663860958899786800,1.766786865234375,-20.36285400390625,23.065185546875,-34.15985107421875
1663860958920111600,1.787111572265625,-20.25604248046875,21.08001708984375,-35.38818359375
1663860958939886800,1.806886962890625,-22.5494384765625,20.90911865234375,-37.06817626953125
1663860958959754000,1.82675390625,-23.345947265625,19.3878173828125,-37.0758056640625
1663860958979773400,1.8467734375,-23.97003173828125,18.78204345703125,-36.62261962890625
1663860958999762400,1.866762451171875,-25.78277587890625,19.53887939453125,-36.62109375
1663860959019721000,1.886720947265625,-23.065185546875,18.32427978515625,-37.0819091796875
1663860959039710000,1.9067099609375,-23.03619384765625,19.683837890625,-38.140869140625
1663860959059699000,1.926698974609375,-21.392822265625,18.1640625,-38.4521484375
1663860959079688000,1.94668798828125,-22.49908447265625,16.3604736328125,-35.870361328125
1663860959099677000,1.966677001953125,-22.00927734375,17.86346435546875,-37.8448486328125
1663860959119666000,1.986666015625,-22.9766845703125,15.58074951171875,-38.0096435546875
1663860959139655000,2.006655029296875,-21.45233154296875,15.57464599609375,-39.07470703125
1663860959159613400,2.026613525390625,-19.62890625,15.27557373046875,-39.07318115234375
1663860959179633000,2.0466328125,-19.81964111328125,13.61083984375,-38.1683349609375
1663860959199622100,2.0666220703125,-16.802978515625,12.22686767578125,-40.9149169921875
1663860959219611100,2.086611083984375,-17.242431640625,12.994384765625,-39.84375
1663860959239600000,2.10660009765625,-16.43829345703125,14.8162841796875,-40.29083251953125
1663860959259558700,2.12655859375,-16.436767578125,14.8284912109375,-38.76800537109375
1663860959279578000,2.146578125,-17.09747314453125,19.25048828125,-36.9171142578125
1663860959299567000,2.166567138671875,-18.6248779296875,19.09942626953125,-36.309814453125
1663860959319556000,2.18655615234375,-19.51141357421875,20.3216552734375,-35.3912353515625
1663860959339545000,2.206545166015625,-20.56121826171875,21.08154296875,-35.0830078125
1663860959359534000,2.2265341796875,-21.47216796875,21.24176025390625,-33.8653564453125
1663860959379523000,2.246523193359375,-20.9503173828125,23.98681640625,-32.93609619140625
1663860959399512000,2.266511962890625,-20.9930419921875,22.16339111328125,-32.94525146484375
1663860959419470600,2.286470703125,-23.39630126953125,23.69232177734375,-31.11114501953125
1663860959439490300,2.306490234375,-22.3846435546875,27.81829833984375,-28.65142822265625
1663860959459479300,2.326479248046875,-20.65887451171875,29.9591064453125,-27.5726318359375
1663860959479468300,2.34646826171875,-21.21429443359375,32.2479248046875,-26.3427734375
1663860959499457300,2.366457275390625,-21.051025390625,32.708740234375,-25.88348388671875
1663860959519446300,2.3864462890625,-22.90496826171875,31.640625,-25.89111328125
1663860959539435300,2.406435302734375,-22.91259765625,31.33697509765625,-25.89263916015625
1663860959559424300,2.42642431640625,-21.21429443359375,32.25250244140625,-25.732421875
1663860959579413200,2.446413330078125,-22.589111328125,32.11212158203125,-24.05853271484375
1663860959599402200,2.46640234375,-23.05450439453125,31.79779052734375,-25.28076171875
1663860959619391200,2.48639111328125,-21.07391357421875,31.658935546875,-24.06005859375
1663860959639380200,2.506380126953125,-19.6868896484375,32.4005126953125,-26.6448974609375
1663860959659369200,2.526369140625,-18.75,33.3251953125,-25.2685546875
1663860959679358500,2.5463583984375,-17.07763671875,33.1695556640625,-26.1810302734375
1663860959699347500,2.566347412109375,-15.89508056640625,31.50482177734375,-25.73089599609375
1663860959719336400,2.58633642578125,-16.9189453125,33.33282470703125,-24.9603271484375
1663860959739325400,2.606325439453125,-16.95404052734375,31.81610107421875,-24.51171875
1663860959759314400,2.626314453125,-16.3299560546875,32.42340087890625,-24.81231689453125
1663860959779303400,2.646303466796875,-16.19873046875,31.5093994140625,-24.969482421875
1663860959799567000,2.666567138671875,-17.8619384765625,32.1197509765625,-24.35760498046875
1663860959819495200,2.6864951171875,-18.3013916015625,32.879638671875,-24.20196533203125
1663860959839270400,2.7062705078125,-18.182373046875,31.365966796875,-23.60076904296875
1663860959859259400,2.72625927734375,-15.875244140625,32.27996826171875,-23.8983154296875
1663860959879248400,2.746248291015625,-16.42913818359375,34.7198486328125,-22.66693115234375
1663860959899237400,2.7662373046875,-16.74041748046875,34.295654296875,-18.85986328125
1663860959919226600,2.7862265625,-17.17071533203125,35.50262451171875,-19.769287109375
1663860959939215600,2.806215576171875,-15.9027099609375,37.50762939453125,-16.70989990234375
1663860959959204600,2.82620458984375,-15.10162353515625,39.0625,-12.58544921875
1663860959979193600,2.846193603515625,-13.3941650390625,40.29693603515625,-10.90240478515625
1663860959999182600,2.8661826171875,-15.4998779296875,41.52069091796875,-9.37347412109375
1663860960019141000,2.88614111328125,-14.28985595703125,41.0736083984375,-8.61358642578125
1663860960039160600,2.90616064453125,-14.74761962890625,41.06597900390625,-9.375
1663860960059149600,2.926149658203125,-14.312744140625,40.14434814453125,-10.7513427734375
1663860960079138600,2.946138671875,-13.96942138671875,41.81976318359375,-10.43701171875
1663860960099127600,2.96612744140625,-11.82861328125,42.11578369140625,-11.80572509765625
1663860960119116500,2.986116455078125,-10.3363037109375,40.74554443359375,-12.5732421875
1663860960139075000,3.006074951171875,-10.467529296875,41.66412353515625,-11.65313720703125
1663860960159094800,3.0260947265625,-11.66839599609375,42.43011474609375,-10.58502197265625
1663860960179083800,3.046083740234375,-10.44158935546875,42.73529052734375,-10.88714599609375
1663860960199072800,3.06607275390625,-11.97357177734375,42.42401123046875,-11.346435546875
1663860960219061800,3.086061767578125,-11.370849609375,42.12646484375,-10.73760986328125
1663860960239050800,3.10605078125,-11.25946044921875,40.301513671875,-10.89935302734375
1663860960259039700,3.126039794921875,-10.02197265625,41.064453125,-10.7421875
1663860960279028700,3.14602880859375,-10.31494140625,41.52984619140625,-9.67254638671875
1663860960299017700,3.166017822265625,-9.19952392578125,43.65692138671875,-9.96551513671875
1663860960319006700,3.1860068359375,-6.463623046875,43.0999755859375,-4.63104248046875
1663860960338995700,3.20599560546875,-6.3140869140625,42.95196533203125,-4.1748046875
1663860960358984700,3.225984619140625,-5.072021484375,43.878173828125,-2.79693603515625
1663860960378974000,3.245973876953125,-6.44989013671875,43.5791015625,-1.7333984375
1663860960398963000,3.265962890625,-5.3741455078125,43.89495849609375,-0.66375732421875
1663860960418952000,3.285951904296875,-3.8787841796875,42.66510009765625,-2.65045166015625
1663860960438941000,3.30594091796875,-5.0811767578125,43.5546875,-5.08575439453125
1663860960458960400,3.32596044921875,-5.5267333984375,44.02618408203125,-3.10211181640625
1663860960478919000,3.3459189453125,-4.168701171875,43.41278076171875,-4.17022705078125
1663860960498938400,3.3659384765625,-4.46319580078125,43.73779296875,-1.5777587890625
1663860960518897000,3.38589697265625,-6.28814697265625,44.0277099609375,-2.6458740234375
1663860960538886000,3.405885986328125,-2.935791015625,43.890380859375,-1.72882080078125
1663860960558905600,3.425905517578125,-3.09906005859375,43.426513671875,-2.64434814453125
1663860960578894600,3.44589453125,-1.409912109375,43.9056396484375,-0.35552978515625
1663860960598883600,3.465883544921875,-0.95672607421875,43.74237060546875,-1.87835693359375
1663860960618872600,3.48587255859375,-0.3448486328125,43.8812255859375,-3.55377197265625
1663860960638861600,3.505861572265625,0.27008056640625,44.05059814453125,-1.5716552734375
1663860960658850600,3.5258505859375,-1.458740234375,41.766357421875,-1.7364501953125
1663860960679266800,3.546266845703125,-1.26800537109375,43.4417724609375,-1.27105712890625
1663860960699225300,3.566225341796875,-2.61688232421875,44.5037841796875,-1.26800537109375
1663860960718909200,3.5859091796875,-2.1728515625,43.8995361328125,-0.96588134765625
1663860960738776000,3.605776123046875,-1.739501953125,42.83294677734375,-1.42669677734375
1663860960758948000,3.625947998046875,-2.6336669921875,43.73779296875,-1.88140869140625
1663860960778784500,3.645784423828125,-2.67791748046875,41.89910888671875,-3.71856689453125
1663860960798773800,3.665773681640625,-3.10821533203125,42.98858642578125,-0.51422119140625
1663860960818762800,3.6857626953125,-2.33001708984375,43.73931884765625,-1.88140869140625
1663860960838751700,3.705751708984375,-1.41754150390625,43.597412109375,-0.96588134765625
1663860960858740700,3.72574072265625,-2.484130859375,43.59893798828125,-0.3570556640625
1663860960878760200,3.74576025390625,-1.54266357421875,44.81048583984375,-1.26495361328125
1663860960898749200,3.765749267578125,-1.25885009765625,43.76220703125,0.5584716796875
1663860960918738200,3.78573828125,-1.69525146484375,44.6746826171875,0.86822509765625
1663860960938727200,3.80572705078125,-4.11224365234375,45.60546875,3.61328125
1663860960958716200,3.825716064453125,-3.47442626953125,46.820068359375,3.314208984375
1663860960978705200,3.845705078125,-4.18548583984375,49.09820556640625,3.32489013671875
1663860960998694400,3.8656943359375,-5.4351806640625,47.7386474609375,4.68902587890625
1663860961018683400,3.885683349609375,-4.80499267578125,48.51837158203125,6.8267822265625
1663860961038611200,3.905611083984375,-8.76922607421875,48.5198974609375,8.0413818359375
1663860961058600200,3.92560009765625,-11.49139404296875,49.43695068359375,9.2620849609375
1663860961078589200,3.945589111328125,-12.994384765625,50.3509521484375,9.87396240234375
1663860961098578400,3.965578369140625,-13.91143798828125,50.20904541015625,11.39678955078125
1663860961118567400,3.9855673828125,-14.09454345703125,48.846435546875,11.99951171875
1663860961138556400,4.005556396484375,-15.4327392578125,50.23193359375,14.4439697265625
1663860961158545400,4.02554541015625,-18.78204345703125,50.3997802734375,17.18292236328125
1663860961178504000,4.04550390625,-19.5587158203125,49.66278076171875,20.074462890625
1663860961198523400,4.0655234375,-20.7550048828125,50.5950927734375,22.821044921875
1663860961218512400,4.085512451171875,-21.22650146484375,49.8565673828125,25.40740966796875
1663860961238501400,4.10550146484375,-21.722412109375,47.9248046875,30.731201171875
1663860961258490400,4.125490478515625,-21.39129638671875,49.01580810546875,33.9385986328125
1663860961278582800,4.145582763671875,-18.817138671875,47.998046875,38.812255859375
1663860961298541300,4.165541259765625,-16.1407470703125,44.9737548828125,40.020751953125
1663860961318530300,4.1855302734375,-14.02435302734375,43.951416015625,44.4366455078125
1663860961338519300,4.205519287109375,-12.84332275390625,42.2821044921875,44.2779541015625
1663860961358508300,4.22550830078125,-10.7421875,40.63873291015625,47.16796875
1663860961378497300,4.245497314453125,-7.2723388671875,38.98468017578125,48.382568359375
1663860961398608400,4.2656083984375,-6.3995361328125,37.02850341796875,50.50811767578125
1663860961418597400,4.285597412109375,-2.46429443359375,35.67962646484375,51.8768310546875
1663860961438617000,4.3056171875,-1.1444091796875,33.40301513671875,51.86767578125
1663860961458575600,4.32557568359375,1.13067626953125,32.81097412109375,53.08685302734375
1663860961478595000,4.345594970703125,1.7059326171875,31.28814697265625,52.62298583984375
1663860961498553600,4.3655537109375,5.2154541015625,31.4422607421875,52.0172119140625
1663860961518542600,4.38554248046875,5.79986572265625,30.23681640625,53.0792236328125
1663860961538379000,4.40537890625,9.5794677734375,28.86810302734375,52.00958251953125
1663860961558337500,4.425337646484375,11.69891357421875,28.25469970703125,50.9429931640625
1663860961578570800,4.44557080078125,13.08441162109375,28.8604736328125,50.18463134765625
1663860961598498600,4.46549853515625,14.92462158203125,29.31976318359375,50.189208984375
1663860961618335000,4.4853349609375,17.30804443359375,26.8768310546875,48.199462890625
1663860961638293500,4.50529345703125,18.72100830078125,28.70330810546875,48.2086181640625
1663860961658282500,4.525282470703125,21.282958984375,27.3468017578125,48.96697998046875
1663860961678302200,4.54530224609375,22.35565185546875,27.63214111328125,46.37908935546875
1663860961698260500,4.565260498046875,25.7110595703125,27.777099609375,44.70672607421875
1663860961718249500,4.58524951171875,25.518798828125,26.08795166015625,42.71697998046875
1663860961738238700,4.60523876953125,27.191162109375,25.9246826171875,41.0430908203125
1663860961758227700,4.625227783203125,30.230712890625,25.48065185546875,41.6534423828125
1663860961778247200,4.6452470703125,30.9356689453125,22.90496826171875,42.40264892578125
1663860961798205700,4.665205810546875,36.2457275390625,21.832275390625,40.118408203125
1663860961818194700,4.685194580078125,35.90087890625,20.02105712890625,41.632080078125
1663860961838183700,4.70518359375,36.00006103515625,17.60406494140625,43.29681396484375
1663860961858172700,4.725172607421875,36.08551025390625,14.5721435546875,44.19708251953125
1663860961878161700,4.74516162109375,37.4359130859375,13.65203857421875,42.822265625
1663860961898150700,4.765150634765625,38.1622314453125,12.1307373046875,42.510986328125
1663860961918139600,4.7851396484375,39.31427001953125,9.09271240234375,42.34466552734375
1663860961938128600,4.805128662109375,37.18109130859375,9.1033935546875,44.171142578125
1663860961958117600,4.82511767578125,37.18109130859375,9.1094970703125,44.93408203125
1663860961978107000,4.84510693359375,37.65869140625,10.01739501953125,44.32830810546875
1663860961998096000,4.865095947265625,37.32452392578125,8.660888671875,45.8465576171875
1663860962018084900,4.8850849609375,38.41552734375,9.72442626953125,45.3948974609375
1663860962038073900,4.905073974609375,38.30718994140625,11.6912841796875,44.49005126953125
1663860962058062800,4.925062744140625,36.97967529296875,13.67034912109375,45.1080322265625
1663860962078021400,4.945021484375,37.7838134765625,15.49530029296875,45.1171875
1663860962098040800,4.965040771484375,37.34588623046875,16.39251708984375,43.44482421875
1663860962118029800,4.98502978515625,36.883544921875,16.10260009765625,45.2728271484375
1663860962138018800,5.005018798828125,35.3668212890625,16.54815673828125,44.35882568359375
1663860962158007800,5.0250078125,35.56365966796875,18.51043701171875,42.6910400390625
1663860962177996800,5.044996826171875,35.55755615234375,18.21441650390625,43.75762939453125
1663860962197986000,5.064986083984375,35.51788330078125,16.4093017578125,46.03424072265625
1663860962217975000,5.08497509765625,35.06011962890625,16.4031982421875,45.27130126953125
1663860962238238700,5.10523876953125,35.51025390625,16.10260009765625,45.574951171875
1663860962257983500,5.1249833984375,36.10992431640625,15.64788818359375,45.57342529296875
1663860962277972500,5.144972412109375,35.302734375,13.6627197265625,44.64874267578125
1663860962297931000,5.164930908203125,36.54327392578125,14.5751953125,44.50225830078125
1663860962317920000,5.184919921875,34.5489501953125,13.9801025390625,46.478271484375
1663860962337939500,5.204939453125,36.5081787109375,13.05999755859375,44.952392578125
1663860962357898000,5.22489794921875,34.70611572265625,14.27154541015625,44.9554443359375
1663860962377887000,5.244886962890625,36.8560791015625,14.8895263671875,45.57037353515625
1663860962397906700,5.26490673828125,36.41357421875,15.50445556640625,46.4874267578125
1663860962417895700,5.284895751953125,37.2833251953125,13.52691650390625,46.02203369140625
1663860962437915100,5.3049150390625,36.8682861328125,15.36102294921875,47.4029541015625
1663860962458270500,5.3252705078125,36.8438720703125,14.2913818359375,46.78802490234375
1663860962478198300,5.3451982421875,35.03570556640625,15.33660888671875,44.9615478515625
1663860962498065200,5.365065185546875,35.92987060546875,14.42413330078125,44.6533203125
1663860962517840600,5.384840576171875,33.97064208984375,15.35797119140625,47.85614013671875
1663860962537799200,5.404799072265625,35.04180908203125,15.6341552734375,44.20166015625
1663860962557788200,5.4247880859375,33.7127685546875,17.46978759765625,46.03729248046875
1663860962577777200,5.444777099609375,34.4085693359375,14.57061767578125,44.49920654296875
1663860962597766100,5.46476611328125,34.43145751953125,15.62652587890625,43.438720703125
1663860962617755100,5.484755126953125,36.11907958984375,16.082763671875,43.13812255859375
1663860962637744000,5.504744140625,33.52508544921875,16.20025634765625,39.630126953125
1663860962657733000,5.524733154296875,34.78240966796875,17.74139404296875,41.925048828125
1663860962677722400,5.544722412109375,33.85772705078125,17.2821044921875,41.7694091796875
1663860962697711400,5.56471142578125,33.251953125,17.4407958984375,42.68341064453125
1663860962717700400,5.584700439453125,34.0545654296875,19.26422119140625,42.388916015625
1663860962737689300,5.604689453125,33.62274169921875,20.458984375,39.9566650390625
1663860962757648000,5.62464794921875,33.01849365234375,20.74737548828125,38.27972412109375
1663860962777667300,5.644667236328125,35.75439453125,20.43914794921875,37.06207275390625
1663860962797656300,5.66465625,37.030029296875,22.87445068359375,37.2283935546875
1663860962817645300,5.684645263671875,35.821533203125,23.46343994140625,35.24932861328125
1663860962837634300,5.70463427734375,36.920166015625,24.8291015625,34.7991943359375
1663860962857623300,5.724623291015625,34.9761962890625,26.507568359375,36.17706298828125
1663860962877612300,5.7446123046875,36.0595703125,27.2552490234375,34.3536376953125
1663860962897601300,5.764601318359375,36.41815185546875,29.681396484375,33.6029052734375
1663860962917559800,5.784559814453125,34.16900634765625,31.34918212890625,33.7615966796875
1663860962937579500,5.80457958984375,33.25653076171875,31.4910888671875,32.84759521484375
1663860962957568500,5.824568603515625,33.3343505859375,34.85107421875,34.6923828125
1663860962977557500,5.8445576171875,30.41839599609375,34.0728759765625,33.31298828125
1663860962997546500,5.86454638671875,28.75518798828125,34.67864990234375,33.46710205078125
1663860963017505000,5.884505126953125,27.83355712890625,34.36737060546875,32.855224609375
1663860963037524500,5.9045244140625,25.40435791015625,34.82208251953125,33.31146240234375
1663860963057513500,5.924513427734375,25.56610107421875,35.27374267578125,32.70416259765625
1663860963077502500,5.94450244140625,25.9033203125,36.78131103515625,31.18743896484375
1663860963097491500,5.964491455078125,27.2552490234375,35.8642578125,30.2703857421875
1663860963117450000,5.984449951171875,26.3427734375,36.0107421875,29.8126220703125
1663860963137469400,6.004469482421875,27.69622802734375,35.24169921875,28.2867431640625
1663860963157458700,6.024458740234375,27.25830078125,36.1419677734375,27.0721435546875
1663860963177447700,6.04444775390625,28.30963134765625,35.5255126953125,25.84991455078125
1663860963197436700,6.064436767578125,30.16204833984375,36.578369140625,24.029541015625
1663860963217425700,6.08442578125,28.2989501953125,35.05859375,24.47662353515625
1663860963237414700,6.10441455078125,27.740478515625,37.46795654296875,22.0489501953125
1663860963257403600,6.124403564453125,28.20587158203125,37.78228759765625,23.11859130859375
1663860963277392600,6.144392578125,30.04608154296875,38.23699951171875,22.5128173828125
1663860963297381600,6.164381591796875,29.74395751953125,38.38043212890625,21.59881591796875
1663860963317370600,6.18437060546875,30.18341064453125,37.6220703125,21.59576416015625
1663860963337359600,6.204359619140625,31.43157958984375,38.83819580078125,21.2982177734375
1663860963357592800,6.2245927734375,31.41937255859375,38.24005126953125,22.51434326171875
1663860963377490400,6.244490478515625,29.5440673828125,36.3861083984375,19.4549560546875
1663860963397326800,6.264326904296875,29.0985107421875,36.8560791015625,21.1334228515625
1663860963417346300,6.28434619140625,29.559326171875,37.00408935546875,20.67718505859375
1663860963437304800,6.304304931640625,30.0323486328125,37.7532958984375,19.15740966796875
1663860963457293800,6.3242939453125,29.742431640625,38.37432861328125,20.83740234375
1663860963477282800,6.34428271484375,30.6365966796875,37.457275390625,19.9188232421875
1663860963497241300,6.364241455078125,30.0140380859375,36.9903564453125,18.84918212890625
1663860963517260800,6.3842607421875,30.3131103515625,36.68975830078125,19.15283203125
1663860963537249800,6.404249755859375,28.680419921875,38.6627197265625,19.31304931640625
1663860963557238800,6.42423876953125,28.48968505859375,36.98272705078125,18.389892578125
1663860963577227800,6.444227783203125,29.58526611328125,38.2110595703125,19.464111328125
1663860963597186300,6.464186279296875,29.11529541015625,37.60986328125,20.37506103515625
1663860963617206000,6.4842060546875,28.5308837890625,38.80462646484375,18.0938720703125
1663860963637195000,6.504195068359375,29.58526611328125,38.2110595703125,19.464111328125
1663860963657184000,6.52418408203125,25.9674072265625,40.0238037109375,19.1650390625
1663860963677173000,6.544173095703125,27.67486572265625,41.3970947265625,19.32525634765625
1663860963697131500,6.564131591796875,25.07476806640625,41.07513427734375,17.94891357421875
1663860963717151000,6.58415087890625,25.68206787109375,40.92559814453125,18.10150146484375
1663860963737140000,6.604139892578125,25.592041015625,43.67523193359375,19.79217529296875
1663860963757129000,6.62412890625,25.86212158203125,42.15087890625,19.0216064453125
1663860963777118000,6.644117919921875,23.88153076171875,42.28363037109375,17.34466552734375
1663860963797107000,6.66410693359375,24.0509033203125,42.91229248046875,19.78607177734375
1663860963817096000,6.684095947265625,22.69439697265625,43.66607666015625,19.33135986328125
1663860963837085000,6.7040849609375,23.63739013671875,44.88525390625,19.49005126953125
1663860963857074200,6.72407421875,23.138427734375,43.060302734375,19.48089599609375
1663860963877063200,6.744063232421875,21.62933349609375,43.67218017578125,20.39642333984375
1663860963897052200,6.76405224609375,22.70965576171875,44.2779541015625,19.7906494140625
1663860963917041200,6.784041259765625,22.07183837890625,43.06488037109375,20.2423095703125
1663860963937030100,6.804030029296875,22.51129150390625,42.29888916015625,19.476318359375
1663860963957019100,6.82401904296875,22.23968505859375,43.67828369140625,20.85418701171875
1663860963977008000,6.844008056640625,20.67718505859375,42.00439453125,20.99761962890625
1663860963997027600,6.864027587890625,20.5596923828125,43.6614990234375,19.32830810546875
1663860964017016600,6.8840166015625,20.0927734375,43.21136474609375,20.08819580078125
1663860964036975000,6.90397509765625,20.99761962890625,42.76123046875,20.697021484375
1663860964056964000,6.923964111328125,23.44970703125,43.22662353515625,21.1578369140625
1663860964076983800,6.94398388671875,22.6959228515625,43.67828369140625,20.855712890625
1663860964096942300,6.9639423828125,23.4588623046875,43.682861328125,21.160888671875
1663860964116931300,6.983931396484375,22.20611572265625,42.16461181640625,21.6094970703125
1663860964136950800,7.00395068359375,22.222900390625,42.9290771484375,22.222900390625
1663860964156939800,7.023939697265625,23.60687255859375,43.39141845703125,22.5311279296875
1663860964176928800,7.0439287109375,24.37896728515625,43.841552734375,21.77276611328125
1663860964196917800,7.063917724609375,24.07684326171875,43.994140625,21.92535400390625
1663860964216906800,7.08390673828125,24.52850341796875,43.701171875,22.99041748046875
1663860964237292500,7.10429248046875,23.7274169921875,42.1478271484375,19.32525634765625
1663860964257708800,7.124708740234375,26.03912353515625,43.0877685546875,22.07489013671875
1663860964276995800,7.143995849609375,26.02081298828125,42.32177734375,21.30889892578125
1663860964296863000,7.163863037109375,26.3153076171875,41.86248779296875,20.849609375
1663860964316821200,7.1838212890625,27.36663818359375,41.1163330078125,22.2198486328125
1663860964336810500,7.203810546875,27.3681640625,41.1285400390625,23.74420166015625
1663860964356799500,7.223799560546875,29.46319580078125,39.44854736328125,22.2137451171875
1663860964376788500,7.24378857421875,28.7078857421875,39.75067138671875,22.2137451171875
1663860964396777500,7.263777587890625,28.84063720703125,38.84735107421875,23.12469482421875
1663860964416766500,7.283766357421875,30.03082275390625,37.48626708984375,23.57635498046875
1663860964436755500,7.30375537109375,29.69512939453125,36.12060546875,24.0264892578125
1663860964456744400,7.323744384765625,30.79833984375,37.65411376953125,25.25482177734375
1663860964476733400,7.3437333984375,32.24029541015625,34.014892578125,25.848388671875
1663860964496722400,7.363722412109375,35.205078125,36.92169189453125,27.3895263671875
1663860964516711400,7.38371142578125,33.44879150390625,33.4197998046875,27.21710205078125
1663860964536700400,7.403700439453125,36.43951416015625,30.84259033203125,27.05535888671875
1663860964556689400,7.423689453125,39.03961181640625,31.15997314453125,28.1280517578125
1663860964576678700,7.4436787109375,38.8275146484375,28.44390869140625,30.55267333984375
1663860964596667600,7.463667724609375,39.72015380859375,27.52685546875,29.63409423828125
1663860964616626200,7.483626220703125,39.99481201171875,26.031494140625,32.5225830078125
1663860964636645600,7.503645751953125,41.0369873046875,24.96337890625,31.756591796875
1663860964656634600,7.523634521484375,41.28265380859375,22.25189208984375,34.48638916015625
1663860964676623600,7.54362353515625,42.32177734375,20.904541015625,36.614990234375
1663860964696612600,7.563612548828125,43.15032958984375,17.1051025390625,36.44561767578125
1663860964716601600,7.5836015625,43.2586669921875,15.14129638671875,37.80670166015625
1663860964736590600,7.603590576171875,44.4305419921875,13.01727294921875,37.95013427734375
1663860964756579600,7.62357958984375,44.82574462890625,10.28594970703125,38.3941650390625
1663860964776568600,7.643568603515625,46.6156005859375,8.59832763671875,35.94970703125
1663860964796557800,7.663557861328125,47.4761962890625,6.16912841796875,36.09161376953125
1663860964816546800,7.683546875,48.17962646484375,3.71856689453125,33.64105224609375
1663860964836535800,7.703535888671875,46.47216796875,2.3468017578125,33.6334228515625
1663860964856524800,7.72352490234375,46.9085693359375,1.44195556640625,34.23919677734375
1663860964876513800,7.743513671875,47.49908447265625,0.53253173828125,34.38720703125
1663860964896502800,7.763502685546875,47.62420654296875,-0.67596435546875,35.296630859375
1663860964916491800,7.78349169921875,48.7335205078125,1.1474609375,35.0006103515625
1663860964936480800,7.803480712890625,48.663330078125,-1.89666748046875,34.52911376953125
1663860964956469800,7.8234697265625,48.8128662109375,-2.04620361328125,34.68017578125
1663860964976458800,7.843458740234375,46.39739990234375,-0.99029541015625,34.3780517578125
1663860964996447700,7.86344775390625,48.37493896484375,-1.13983154296875,34.22698974609375
1663860965016436700,7.883436767578125,46.087646484375,-1.153564453125,33.15887451171875
1663860965036426000,7.903426025390625,48.69537353515625,-0.39825439453125,31.94580078125
1663860965056415000,7.9234150390625,46.93145751953125,2.496337890625,33.17718505859375
1663860965076373200,7.943373291015625,46.923828125,2.1820068359375,31.95648193359375
1663860965096393000,7.96339306640625,47.59674072265625,4.92095947265625,32.275390625
1663860965116382000,7.9833818359375,46.8475341796875,5.52215576171875,31.5155029296875
1663860965136615200,8.003615234375,46.91619873046875,8.56781005859375,32.29217529296875
1663860965156512500,8.023512451171875,45.8984375,10.6964111328125,32.60650634765625
1663860965176379400,8.04337939453125,45.440673828125,10.69793701171875,32.91015625
1663860965196368400,8.063368408203125,46.2615966796875,13.27362060546875,31.8572998046875
1663860965216327000,8.083326904296875,44.3023681640625,14.337158203125,32.318115234375
1663860965236316000,8.10331591796875,44.67926025390625,17.51708984375,30.810546875
1663860965256305000,8.123304931640625,43.53179931640625,20.70770263671875,30.97686767578125
1663860965276294100,8.143294189453124,43.69354248046875,21.15936279296875,30.52215576171875
1663860965296283100,8.163283203125,42.79937744140625,22.07183837890625,30.67779541015625
1663860965316272000,8.183272216796874,41.650390625,25.24871826171875,29.31976318359375
1663860965336261000,8.20326123046875,39.65606689453125,24.64447021484375,30.22918701171875
1663860965356250000,8.22325,40.01007080078125,26.776123046875,30.6976318359375
1663860965376208600,8.243208740234374,36.82403564453125,27.520751953125,29.63104248046875
1663860965396228000,8.26322802734375,37.0147705078125,29.1961669921875,30.096435546875
1663860965416217000,8.283217041015625,36.383056640625,28.28216552734375,29.93927001953125
1663860965436206000,8.3032060546875,36.83929443359375,28.2745361328125,28.8726806640625
1663860965456195000,8.323195068359375,36.10687255859375,29.62493896484375,27.04925537109375
1663860965476153600,8.343153564453125,36.14044189453125,31.14471435546875,27.056884765625
1663860965496173000,8.363173095703125,35.37750244140625,31.1370849609375,26.2939453125
1663860965516131600,8.383131591796875,34.3841552734375,34.3353271484375,27.37579345703125
1663860965536151300,8.4031513671875,32.13348388671875,35.992431640625,26.1627197265625
1663860965556140300,8.423140380859374,30.29632568359375,35.6842041015625,26.15814208984375
1663860965576129300,8.44312939453125,28.75518798828125,34.930419921875,27.22015380859375
1663860965596118300,8.4631181640625,28.656005859375,37.34588623046875,25.250244140625
1663860965616107300,8.483107177734375,28.5125732421875,37.79296875,24.3377685546875
1663860965636096300,8.50309619140625,27.2979736328125,37.95318603515625,25.55694580078125
1663860965656085200,8.523085205078125,27.31475830078125,38.71002197265625,25.25482177734375
1663860965676074200,8.54307421875,27.1514892578125,38.250732421875,24.9481201171875
1663860965696063200,8.563063232421875,27.13623046875,37.50457763671875,26.4678955078125
1663860965716052200,8.58305224609375,29.28619384765625,38.250732421875,24.3408203125
1663860965736041200,8.603041259765625,28.25164794921875,39.63470458984375,26.4801025390625
1663860965756030500,8.623030517578124,30.517578125,38.7176513671875,25.2593994140625
1663860965776019500,8.64301953125,31.09893798828125,37.493896484375,24.33929443359375
1663860965796008400,8.663008544921874,32.6080322265625,36.88507080078125,23.72894287109375
1663860965815997400,8.68299755859375,31.097412109375,37.48779296875,23.577880859375
1663860965835956000,8.7029560546875,33.11920166015625,39.178466796875,25.26397705078125
1663860965855975400,8.722975341796875,29.4830322265625,40.228271484375,24.50408935546875
1663860965875964400,8.74296435546875,30.39703369140625,40.0970458984375,26.78985595703125
1663860965895953400,8.762953369140625,29.28009033203125,37.83416748046875,29.06341552734375
1663860965915942400,8.7829423828125,31.3934326171875,36.79656982421875,31.65130615234375
1663860965935931400,8.802931396484375,34.04693603515625,32.71331787109375,33.31146240234375
1663860965955920400,8.82292041015625,36.29608154296875,31.04400634765625,33.00018310546875
1663860965975909600,8.84290966796875,37.1734619140625,29.3701171875,32.53631591796875
1663860965995898600,8.862898681640624,37.1337890625,27.557373046875,33.89892578125
1663860966016192800,8.88319287109375,39.66217041015625,24.69024658203125,35.71624755859375
1663860966036120600,8.90312060546875,40.09857177734375,23.785400390625,36.322021484375
1663860966055896000,8.92289599609375,41.89453125,22.271728515625,36.62109375
1663860966075854600,8.9428544921875,41.5252685546875,19.38934326171875,37.3687744140625
1663860966095843600,8.962843505859375,42.81463623046875,15.74859619140625,37.80975341796875
1663860966115832600,8.98283251953125,44.55413818359375,11.79656982421875,37.335205078125
1663860966135821600,9.002821533203125,45.3948974609375,8.58917236328125,35.186767578125
1663860966155810600,9.022810546875,46.07391357421875,4.93316650390625,34.10186767578125
1663860966175799600,9.042799560546875,46.453857421875,1.58538818359375,33.3251953125
1663860966195758000,9.062758056640625,46.39739990234375,-0.99029541015625,34.3780517578125
1663860966215777800,9.08277783203125,46.32415771484375,-4.1839599609375,34.0576171875
1663860966235766800,9.102766845703124,48.7548828125,-4.62646484375,35.125732421875
1663860966255755800,9.122755859375,47.8179931640625,-5.5450439453125,34.51080322265625
1663860966275744800,9.142744873046874,47.7935791015625,-6.61773681640625,33.4381103515625
1663860966295703300,9.162703369140624,47.9766845703125,-5.2490234375,33.5968017578125
1663860966315722800,9.18272265625,46.94061279296875,-3.8787841796875,34.0606689453125
1663860966335711700,9.202711669921875,47.894287109375,-2.197265625,34.98382568359375
1663860966355700700,9.22270068359375,47.48077392578125,-0.22735595703125,34.3841552734375
1663860966375689700,9.242689697265625,46.62017822265625,2.191162109375,33.1756591796875
1663860966395678700,9.2626787109375,48.6236572265625,3.10516357421875,32.8765869140625
1663860966415667700,9.282667724609375,47.4365234375,4.61273193359375,31.66351318359375
1663860966435656700,9.30265673828125,46.29974365234375,8.25958251953125,31.9854736328125
1663860966455646000,9.32264599609375,47.70050048828125,9.61456298828125,30.01251220703125
1663860966475635000,9.342635009765624,45.4559326171875,11.43646240234375,30.47637939453125
1663860966495624000,9.3626240234375,45.2392578125,15.380859375,29.7332763671875
1663860966515613000,9.382613037109374,44.81201171875,16.61529541015625,32.025146484375
1663860966535602000,9.402601806640625,45.02410888671875,19.33441162109375,30.0567626953125
1663860966555560400,9.422560546875,43.85986328125,21.76055908203125,29.6112060546875
1663860966575580000,9.442579833984375,42.83599853515625,23.59771728515625,31.44683837890625
1663860966595569000,9.46256884765625,41.81365966796875,25.701904296875,28.86505126953125
1663860966615558000,9.482557861328125,39.080810546875,26.29241943359375,27.4932861328125
1663860966635547000,9.502546875,37.25738525390625,26.5899658203125,27.1881103515625
1663860966655505400,9.52250537109375,39.69879150390625,26.73187255859375,25.5157470703125
1663860966675524900,9.54252490234375,37.7197265625,26.87835693359375,25.36163330078125
1663860966695514000,9.56251416015625,36.859130859375,29.302978515625,24.76348876953125
1663860966715503000,9.582503173828124,35.23712158203125,31.73065185546875,24.62005615234375
1663860966735492000,9.6024921875,35.0341796875,29.58831787109375,22.9339599609375
1663860966755450600,9.62245068359375,32.97882080078125,32.94677734375,25.23345947265625
1663860966775470000,9.642469970703125,33.86993408203125,32.01904296875,23.09722900390625
1663860966795459000,9.662458984375,31.92596435546875,33.685302734375,22.95074462890625
1663860966815448000,9.682447998046875,32.56072998046875,34.75494384765625,23.4130859375
1663860966835437000,9.70243701171875,31.20880126953125,35.7940673828125,20.82672119140625
1663860966855426000,9.722426025390625,30.63812255859375,37.47406005859375,22.05352783203125
1663860966875415000,9.7424150390625,29.41436767578125,37.31842041015625,21.89788818359375
1663860966895404000,9.762404052734375,30.3314208984375,37.46185302734375,20.68023681640625
1663860966915637200,9.78263720703125,29.70123291015625,36.54632568359375,20.3704833984375
1663860966935534800,9.802534912109374,32.58819580078125,36.09466552734375,20.06683349609375
1663860966955371300,9.822371337890624,32.208251953125,32.88421630859375,17.9168701171875
1663860966975360300,9.8423603515625,34.33990478515625,32.611083984375,21.1181640625
1663860966995349200,9.862349365234374,36.10992431640625,30.02471923828125,20.3460693359375
1663860967015338200,9.882338134765625,38.702392578125,30.03692626953125,21.11053466796875
1663860967035327200,9.9023271484375,37.90130615234375,28.22723388671875,22.92938232421875
1663860967055316200,9.922316162109375,41.34979248046875,25.77972412109375,20.17822265625
1663860967075305200,9.94230517578125,43.70880126953125,22.149658203125,21.68731689453125
1663860967095294200,9.962294189453125,45.9197998046875,18.80340576171875,20.75958251953125
1663860967115283200,9.982283203125,46.30279541015625,15.606689453125,20.13397216796875
1663860967135272200,10.002272216796875,51.48773193359375,8.92333984375,19.1925048828125
1663860967155261400,10.022261474609374,51.3580322265625,3.16314697265625,20.9930419921875
1663860967175250400,10.04225048828125,53.228759765625,-1.71051025390625,19.29473876953125
1663860967195239400,10.062239501953124,53.4912109375,-3.5369873046875,18.98193359375
1663860967215228400,10.082228515625,53.51409912109375,-9.173583984375,17.27752685546875
1663860967235217400,10.102217529296874,53.9031982421875,-12.20855712890625,17.72003173828125
1663860967255206400,10.122206298828125,53.26690673828125,-13.421630859375,18.170166015625
1663860967275195400,10.1421953125,53.06854248046875,-15.4083251953125,16.94183349609375
1663860967295184400,10.162184326171875,52.72979736328125,-16.912841796875,18.76220703125
1663860967315143000,10.182142822265625,49.5361328125,-16.61224365234375,19.2169189453125
1663860967335162400,10.202162353515625,51.83563232421875,-16.00494384765625,18.61419677734375
1663860967355151400,10.2221513671875,51.03912353515625,-17.39654541015625,16.015625
1663860967375140400,10.242140380859375,52.72064208984375,-17.2454833984375,15.4083251953125
1663860967395343000,10.262343017578125,54.241943359375,-17.38739013671875,16.3238525390625
1663860967415149000,10.282149169921874,51.85089111328125,-15.26641845703125,16.02630615234375
1663860967435107600,10.302107666015624,53.22113037109375,-15.27862548828125,14.19830322265625
1663860967455096600,10.3220966796875,53.106689453125,-13.60321044921875,14.6636962890625
1663860967475116000,10.342115966796875,53.09906005859375,-13.909912109375,14.3585205078125
1663860967495074600,10.362074462890625,52.53448486328125,-11.94000244140625,13.75732421875
1663860967515063600,10.3820634765625,52.374267578125,-12.2528076171875,12.841796875
1663860967535052500,10.402052490234375,53.1707763671875,-10.73150634765625,12.84942626953125
1663860967555041500,10.42204150390625,52.972412109375,-6.01654052734375,13.330078125
1663860967575061000,10.44206103515625,52.54974365234375,-4.5013427734375,12.87994384765625
1663860967595080700,10.462080810546874,53.52630615234375,-1.7669677734375,12.43743896484375
1663860967615039200,10.482039306640624,53.2958984375,1.434326171875,13.824462890625
1663860967634997800,10.501997802734374,54.4464111328125,5.08880615234375,14.300537109375
1663860967654986800,10.52198681640625,51.7364501953125,6.73370361328125,11.86676025390625
1663860967675036700,10.54203662109375,51.67083740234375,10.53924560546875,12.49542236328125
1663860967694964700,10.56196484375,49.73297119140625,12.506103515625,11.8927001953125
1663860967714953700,10.58195361328125,48.74114990234375,15.84014892578125,11.14654541015625
1663860967734942700,10.601942626953125,46.53167724609375,19.32830810546875,10.85662841796875
1663860967754931700,10.621931640625,46.5240478515625,19.0155029296875,9.78851318359375
1663860967774920700,10.641920654296875,44.4671630859375,22.49908447265625,8.88824462890625
1663860967795214800,10.66221484375,42.63916015625,22.51129150390625,10.7147216796875
1663860967815143000,10.682142822265625,41.85791015625,21.73004150390625,8.42437744140625
1663860967834918400,10.70191845703125,42.35076904296875,23.2666015625,10.26153564453125
1663860967854876700,10.721876708984375,43.4417724609375,24.31640625,8.43963623046875
1663860967874866000,10.741865966796874,41.01409912109375,24.79095458984375,11.181640625
1663860967894855000,10.76185498046875,42.1051025390625,25.8453369140625,9.81597900390625
1663860967914844000,10.781843994140624,42.09136962890625,25.238037109375,9.81292724609375
1663860967934802400,10.801802490234374,43.22662353515625,21.58660888671875,9.03472900390625
1663860967954822000,10.82182177734375,43.6798095703125,21.42791748046875,8.1207275390625
1663860967974811000,10.841810791015625,44.73724365234375,20.97625732421875,8.42437744140625
1663860967994799900,10.8617998046875,45.02716064453125,20.22552490234375,9.4879150390625
1663860968014819300,10.8818193359375,45.4376220703125,18.243408203125,8.563232421875
1663860968034777900,10.90177783203125,44.9798583984375,18.11676025390625,11.76300048828125
1663860968054766800,10.921766845703125,47.23968505859375,16.900634765625,11.14959716796875
1663860968074755800,10.941755859375,47.0916748046875,17.06085205078125,12.06512451171875
1663860968094744800,10.961744873046875,50.5767822265625,16.13922119140625,10.0830078125
1663860968114734000,10.981734130859374,48.39935302734375,14.18914794921875,13.57574462890625
1663860968134723000,11.00172314453125,50.653076171875,12.66937255859375,13.11492919921875
1663860968154712000,11.021712158203124,51.5289306640625,10.9954833984375,12.6495361328125
1663860968174701000,11.041701171875,52.06146240234375,7.513427734375,14.0045166015625
1663860968194690000,11.06168994140625,52.35137939453125,6.90155029296875,13.54522705078125
1663860968214679000,11.081678955078125,50.76751708984375,4.31060791015625,13.07373046875
1663860968234668000,11.10166796875,53.13262939453125,0.9796142578125,13.9739990234375
1663860968254657000,11.121656982421875,53.863525390625,-0.3875732421875,13.8153076171875
1663860968274615600,11.141615478515625,53.79180908203125,-3.5797119140625,13.800048828125
1663860968294635000,11.161635009765625,54.034423828125,-6.30645751953125,14.70184326171875
1663860968314624000,11.1816240234375,53.40576171875,-7.21282958984375,15.61126708984375
1663860968334613000,11.201613037109375,52.60162353515625,-9.03778076171875,15.6005859375
1663860968354602200,11.221602294921874,52.23846435546875,-11.614990234375,16.34979248046875
1663860968374591200,11.24159130859375,51.58843994140625,-13.311767578125,13.59710693359375
1663860968394580200,11.261580322265624,52.74200439453125,-16.19720458984375,13.58489990234375
1663860968414569200,11.2815693359375,51.53045654296875,-15.7623291015625,11.45172119140625
1663860968434558200,11.30155810546875,52.7069091796875,-17.59490966796875,9.91973876953125
1663860968454516700,11.321516845703124,50.5828857421875,-17.13714599609375,10.833740234375
1663860968474536200,11.3415361328125,51.35498046875,-16.68548583984375,10.07537841796875
1663860968494525200,11.361525146484375,53.16619873046875,-17.45758056640625,8.24432373046875
1663860968514514200,11.38151416015625,53.2745361328125,-12.73651123046875,9.3353271484375
1663860968534503200,11.401503173828125,52.37884521484375,-11.83624267578125,8.11920166015625
1663860968554492200,11.4214921875,54.0679931640625,-11.36322021484375,9.7991943359375
1663860968574481400,11.4414814453125,51.5533447265625,-8.01544189453125,10.8795166015625
1663860968594470400,11.461470458984374,54.3609619140625,-5.26580810546875,11.81182861328125
1663860968614459400,11.48145947265625,52.28424072265625,-2.69622802734375,10.75439453125
1663860968634418000,11.50141796875,51.71966552734375,-0.7171630859375,11.2213134765625
1663860968654437400,11.521437255859375,50.72174072265625,2.45361328125,9.10186767578125
1663860968674426400,11.54142626953125,51.87225341796875,6.1065673828125,9.42535400390625
1663860968694751000,11.5617509765625,51.42974853515625,6.71539306640625,9.73358154296875
1663860968714526500,11.5815263671875,50.90484619140625,10.5072021484375,8.83636474609375
1663860968734423800,11.601423828125,49.00360107421875,14.0106201171875,10.3759765625
1663860968754382300,11.62138232421875,47.65777587890625,15.34271240234375,6.4178466796875
1663860968774340900,11.6413408203125,46.0357666015625,17.77801513671875,7.342529296875
1663860968794360300,11.6613603515625,44.51446533203125,17.926025390625,7.18994140625
1663860968814349600,11.681349609375,43.20831298828125,20.81146240234375,7.2021484375
1663860968834338600,11.701338623046874,43.20068359375,20.50323486328125,6.74285888671875
1663860968854327600,11.72132763671875,43.8232421875,21.1029052734375,5.68084716796875
1663860968874316500,11.741316650390624,42.96417236328125,23.541259765625,6.60552978515625
1663860968894305500,11.761305419921875,40.97900390625,23.3856201171875,6.75506591796875
1663860968914294500,11.78129443359375,40.960693359375,22.6165771484375,5.68389892578125
1663860968934283500,11.801283447265625,43.69354248046875,22.02911376953125,7.36083984375
1663860968954242000,11.821241943359375,43.7042236328125,22.4853515625,7.3638916015625
1663860968974261500,11.841261474609375,44.952392578125,23.7091064453125,7.9803466796875
1663860968994250500,11.86125048828125,44.573974609375,20.51239013671875,7.50732421875
1663860969014239500,11.881239501953125,44.88525390625,20.81756591796875,7.50885009765625
1663860969034228500,11.901228515625,44.86846923828125,20.06072998046875,7.9620361328125
1663860969054187000,11.92118701171875,43.1854248046875,19.76470947265625,9.33074951171875
1663860969074206700,11.941206787109374,46.02813720703125,17.34466552734375,9.93194580078125
1663860969094195700,11.96119580078125,48.2635498046875,15.0634765625,9.31396484375
1663860969114184700,11.981184814453124,48.09722900390625,14.45770263671875,9.46197509765625
1663860969134173700,12.001173583984375,50.04425048828125,12.80975341796875,11.895751953125
1663860969154132200,12.02113232421875,50.04425048828125,12.80670166015625,11.590576171875
1663860969174151700,12.041151611328125,49.6734619140625,9.91973876953125,11.5753173828125
1663860969194140700,12.061140625,50.37078857421875,7.03277587890625,11.56158447265625
1663860969214129700,12.081129638671875,51.67236328125,3.85284423828125,12.61444091796875
1663860969234118700,12.10111865234375,51.7791748046875,1.88140869140625,13.06304931640625
1663860969254107600,12.121107666015625,51.72882080078125,-0.39520263671875,13.50860595703125
1663860969274096600,12.1410966796875,52.42767333984375,-3.2623291015625,15.62957763671875
1663860969294086000,12.1610859375,52.38037109375,-5.3863525390625,16.07513427734375
1663860969314044200,12.181044189453125,51.39923095703125,-8.148193359375,13.31787109375
1663860969334063900,12.20106396484375,51.45721435546875,-12.38555908203125,15.27862548828125
1663860969354052900,12.221052978515624,52.392578125,-11.4776611328125,14.67437744140625
1663860969374041900,12.241041748046875,52.95867919921875,-13.43994140625,16.0369873046875
1663860969394030800,12.26103076171875,53.34625244140625,-16.49322509765625,14.3463134765625
1663860969414019800,12.281019775390625,51.80816650390625,-17.09747314453125,15.2557373046875
1663860969434008800,12.3010087890625,51.49993896484375,-17.254638671875,14.64385986328125
1663860969453997800,12.320997802734375,51.4617919921875,-18.798828125,11.74163818359375
1663860969473986800,12.34098681640625,50.3814697265625,-19.39544677734375,13.26141357421875
1663860969493975800,12.360975830078125,51.3580322265625,-16.66412353515625,12.66632080078125
1663860969513934300,12.380934326171875,49.52850341796875,-16.66412353515625,12.96844482421875
1663860969533954000,12.4009541015625,53.33251953125,-16.9677734375,12.0574951171875
1663860969553943000,12.420943115234374,51.26800537109375,-13.92669677734375,12.8326416015625
1663860969574237200,12.4412373046875,51.15966796875,-11.95526123046875,12.384033203125
1663860969594165200,12.461165283203124,51.71051025390625,-7.84912109375,12.5579833984375
1663860969613940500,12.4809404296875,52.69317626953125,-4.82177734375,10.89630126953125
1663860969633929500,12.500929443359375,51.849365234375,-1.63726806640625,10.302734375
1663860969653888000,12.520887939453125,51.9073486328125,0.94146728515625,9.70458984375
1663860969673877000,12.540876953125,50.92010498046875,4.43572998046875,9.72137451171875
1663860969693896400,12.560896484375,52.04620361328125,7.02056884765625,9.735107421875
1663860969713855000,12.58085498046875,51.495361328125,9.6038818359375,9.747314453125
1663860969733844000,12.600843994140625,49.237060546875,10.955810546875,8.53271484375
1663860969753833200,12.620833251953124,48.85406494140625,14.16473388671875,10.68115234375
1663860969773822200,12.640822265625,47.38922119140625,16.7510986328125,11.30218505859375
1663860969793811200,12.660811279296874,46.966552734375,18.27239990234375,11.61346435546875
1663860969813800200,12.68080029296875,43.5577392578125,22.662353515625,10.41259765625
1663860969833789200,12.7007890625,44.12841796875,20.98388671875,9.48944091796875
1663860969853747700,12.720747802734374,42.9718017578125,23.85406494140625,7.67364501953125
1663860969873767200,12.74076708984375,41.595458984375,23.5687255859375,10.26153564453125
1663860969893756200,12.760756103515625,42.30804443359375,21.4263916015625,8.4228515625
1663860969913745200,12.7807451171875,42.04864501953125,23.4100341796875,9.3475341796875
1663860969933734100,12.800734130859375,43.4326171875,23.8739013671875,9.9609375
1663860969953723100,12.82072314453125,43.75152587890625,24.615478515625,7.67822265625
1663860969973712100,12.840712158203125,42.48046875,22.33734130859375,8.2763671875
1663860969993701400,12.860701416015624,42.61322021484375,21.42486572265625,8.11920166015625
1663860970013690400,12.8806904296875,44.71893310546875,20.20416259765625,7.04803466796875
1663860970033679400,12.900679443359374,44.55718994140625,19.75555419921875,7.96051025390625
1663860970053668400,12.92066845703125,46.356201171875,18.40057373046875,8.86993408203125
1663860970073627000,12.940626953125,46.96197509765625,18.243408203125,8.2611083984375
1663860970093646300,12.960646240234375,46.12884521484375,15.057373046875,9.0057373046875
1663860970113635300,12.98063525390625,48.91815185546875,17.03948974609375,9.17205810546875
1663860970133624300,13.000624267578125,48.71063232421875,14.60723876953125,9.00726318359375
1663860970153613300,13.02061328125,50.1861572265625,12.3443603515625,10.67352294921875
1663860970173602300,13.040602294921875,51.04522705078125,9.918212890625,11.12060546875
1663860970193591300,13.06059130859375,53.7384033203125,7.64312744140625,10.9588623046875
1663860970213580300,13.080580322265625,53.22723388671875,5.22613525390625,12.92877197265625
1663860970233569500,13.100569580078124,53.3355712890625,3.2501220703125,12.7655029296875
1663860970253558500,13.12055859375,53.5919189453125,1.116943359375,11.993408203125
1663860970273547500,13.140547607421874,53.11279296875,0.2044677734375,12.14141845703125
1663860970293536500,13.16053662109375,53.83148193359375,-1.76239013671875,13.0462646484375
1663860970313525500,13.180525390625,54.6844482421875,-4.49676513671875,12.8814697265625
1663860970333514500,13.200514404296875,54.2633056640625,-9.6588134765625,13.61846923828125
1663860970353503500,13.22050341796875,52.4261474609375,-9.9639892578125,13.9190673828125
1663860970373492500,13.240492431640625,54.04052734375,-12.70599365234375,12.689208984375
1663860970393481500,13.2604814453125,52.95562744140625,-13.46588134765625,12.98828125
1663860970413470500,13.280470458984375,51.90582275390625,-12.713623046875,12.3809814453125
1663860970433459500,13.30045947265625,53.04412841796875,-16.2139892578125,11.45172119140625
1663860970453418000,13.32041796875,51.97601318359375,-16.2261962890625,10.23101806640625
1663860970473773300,13.340773193359375,50.29449462890625,-16.38336181640625,10.07537841796875
1663860970493548500,13.360548583984375,51.47247314453125,-18.34259033203125,11.7431640625
1663860970513415700,13.380415771484374,52.142333984375,-15.62042236328125,10.08148193359375
1663860970533404700,13.40040478515625,53.25927734375,-13.482666015625,10.8551025390625
1663860970553424100,13.420424072265625,52.960205078125,-13.1805419921875,10.85662841796875
1663860970573382700,13.440382568359375,55.16510009765625,-10.13336181640625,11.1785888671875
1663860970593371600,13.46037158203125,54.29534912109375,-8.1512451171875,12.10174560546875
1663860970613360600,13.480360595703125,54.541015625,-4.05120849609375,11.66534423828125
1663860970633349600,13.500349609375,53.38592529296875,-1.30157470703125,13.65814208984375
1663860970653338600,13.520338623046875,55.438232421875,1.873779296875,11.23809814453125
1663860970673327600,13.54032763671875,53.5400390625,5.65185546875,9.27276611328125
1663860970693316600,13.560316650390625,52.7923583984375,6.2713623046875,10.79864501953125
1663860970713305900,13.580305908203124,50.762939453125,10.97259521484375,10.05859375
1663860970733294800,13.600294921875,50.19989013671875,13.08441162109375,8.39080810546875
1663860970753283800,13.620283935546874,50.23193359375,14.4622802734375,9.46502685546875
1663860970773242400,13.640242431640624,49.2218017578125,17.0318603515625,8.10546875
1663860970793261800,13.66026171875,46.4324951171875,21.7376708984375,8.12530517578125
1663860970813250800,13.680250732421875,45.5291748046875,22.32666015625,6.14471435546875
1663860970833239800,13.70023974609375,44.78607177734375,23.22845458984375,5.08270263671875
1663860970853228800,13.720228759765625,44.7967529296875,23.81134033203125,2.18963623046875
1663860970873217800,13.7402177734375,45.0927734375,23.49853515625,1.12152099609375
1663860970893206800,13.760206787109375,44.22607421875,25.61798095703125,0.3692626953125
1663860970913195800,13.78019580078125,45.15838623046875,26.38702392578125,1.13525390625
1663860970933185000,13.80018505859375,44.8211669921875,25.0091552734375,0.06256103515625
1663860970953174000,13.820174072265624,45.721435546875,24.26605224609375,1.88751220703125
1663860970973163000,13.8401630859375,45.416259765625,24.26910400390625,2.19268798828125
1663860970993152000,13.860152099609374,45.5963134765625,25.48675537109375,2.35137939453125
1663860971013141000,13.88014111328125,46.96197509765625,25.05035400390625,4.48455810546875
1663860971033130000,13.9001298828125,48.9532470703125,25.5035400390625,3.5736083984375
1663860971053119000,13.920118896484375,46.00830078125,23.38104248046875,4.931640625
1663860971073077500,13.940077392578125,47.7874755859375,21.112060546875,5.6854248046875
1663860971093097000,13.960096923828125,47.8973388671875,19.1497802734375,7.3516845703125
1663860971113086000,13.9800859375,48.0316162109375,18.255615234375,9.3292236328125
1663860971133075000,14.000074951171875,51.00860595703125,14.9505615234375,13.1256103515625
1663860971153064000,14.02006396484375,53.55377197265625,12.701416015625,16.1651611328125
1663860971173053200,14.04005322265625,51.7333984375,13.14697265625,15.40374755859375
1663860971193042200,14.060042236328124,51.7822265625,8.58917236328125,15.533447265625
1663860971213031200,14.08003125,53.997802734375,5.40771484375,16.13006591796875
1663860971233020200,14.100020263671874,53.1585693359375,2.0599365234375,15.80810546875
1663860971253009200,14.120009033203125,54.33349609375,0.0885009765625,16.1041259765625
1663860971272998100,14.139998046875,53.826904296875,-2.1697998046875,18.68438720703125
1663860971292987100,14.159987060546875,53.4393310546875,-5.8258056640625,17.90313720703125
1663860971312976100,14.17997607421875,53.69110107421875,-8.24127197265625,19.720458984375
1663860971332934700,14.1999345703125,53.63616943359375,-10.53619384765625,17.8802490234375
1663860971353254100,14.220254150390625,53.17840576171875,-10.6719970703125,19.86083984375
1663860971373151700,14.24015185546875,52.94036865234375,-14.46533203125,20.75653076171875
1663860971392927000,14.259927001953125,52.9571533203125,-13.71307373046875,19.6929931640625
1663860971412916000,14.279916015625,52.16827392578125,-14.7857666015625,18.92547607421875
1663860971432905000,14.299905029296875,51.5533447265625,-15.08636474609375,19.53277587890625
1663860971452894000,14.31989404296875,52.28271484375,-16.46270751953125,18.3074951171875
1663860971472883200,14.33988330078125,50.95062255859375,-14.64691162109375,17.70477294921875
1663860971492872200,14.3598720703125,51.5777587890625,-13.8885498046875,17.2515869140625
1663860971512861200,14.379861083984375,52.31170654296875,-15.1092529296875,16.485595703125
1663860971532850200,14.39985009765625,52.3956298828125,-11.45782470703125,16.96014404296875
1663860971552808700,14.41980859375,54.12750244140625,-9.02557373046875,16.668701171875
1663860971572828200,14.439828125,50.5584716796875,-5.0689697265625,18.20831298828125
1663860971592817200,14.459817138671875,54.2755126953125,-2.4993896484375,15.6341552734375
1663860971612806100,14.47980615234375,52.37884521484375,1.29241943359375,15.1947021484375
1663860971632795100,14.499795166015625,51.50604248046875,3.24859619140625,13.06915283203125
1663860971652784000,14.5197841796875,51.66168212890625,3.40423583984375,13.37432861328125
1663860971672773000,14.539773193359375,48.6907958984375,6.884765625,12.47406005859375
1663860971692762000,14.55976220703125,49.83062744140625,10.07843017578125,12.4908447265625
1663860971712751400,14.57975146484375,48.8128662109375,12.3443603515625,10.9771728515625
1663860971732709600,14.599709716796875,48.69842529296875,14.0167236328125,11.13739013671875
1663860971752729300,14.619729248046875,49.0447998046875,15.838623046875,10.84136962890625
1663860971772718300,14.63971826171875,47.72796630859375,18.267822265625,10.85205078125
1663860971792707300,14.659707275390625,44.99664306640625,18.87054443359375,11.004638671875
1663860971812696300,14.6796962890625,46.5728759765625,21.148681640625,10.40802001953125
1663860971832685300,14.699685302734375,45.697021484375,22.8240966796875,11.02447509765625
1663860971852674300,14.71967431640625,44.9462890625,23.419189453125,9.808349609375
1663860971872663300,14.739663330078125,42.35687255859375,23.55804443359375,8.89129638671875
1663860971892652300,14.75965234375,42.7703857421875,21.5972900390625,10.406494140625
1663860971912641300,14.779641357421875,42.05474853515625,23.70758056640625,8.58612060546875
1663860971932630500,14.799630615234374,44.16961669921875,22.8057861328125,9.1949462890625
1663860971952619500,14.81961962890625,44.92340087890625,22.36480712890625,10.86883544921875
1663860971972608500,14.8396083984375,45.07904052734375,22.5128173828125,10.260009765625
1663860971992597500,14.859597412109375,43.3685302734375,20.99456787109375,11.0137939453125
1663860972012586500,14.87958642578125,44.28558349609375,21.14410400390625,10.40496826171875
1663860972032575500,14.899575439453125,44.12384033203125,20.69549560546875,11.31744384765625
1663860972052564500,14.919564453125,44.34814453125,17.06695556640625,13.58642578125
1663860972072553500,14.939553466796875,47.64556884765625,14.62860107421875,11.90185546875
1663860972092542500,14.95954248046875,48.84185791015625,13.43536376953125,14.33563232421875
1663860972112531500,14.979531494140625,47.91107177734375,12.8204345703125,13.72222900390625
1663860972132520400,14.9995205078125,49.66278076171875,9.332275390625,14.0106201171875
1663860972152509400,15.019509521484375,51.141357421875,7.2296142578125,16.7449951171875
1663860972172468000,15.039468017578125,52.30712890625,4.8004150390625,16.73583984375
1663860972192487700,15.05948779296875,53.18603515625,3.14483642578125,18.40362548828125
1663860972212476700,15.0794765625,52.5146484375,0.42266845703125,20.06683349609375
1663860972232465700,15.099465576171875,51.3885498046875,-2.166748046875,19.7479248046875
1663860972252790300,15.119790283203125,51.18408203125,-4.45098876953125,19.12689208984375
1663860972272565800,15.139565673828125,50.48828125,-8.24432373046875,20.02105712890625
1663860972292432600,15.1594326171875,52.1148681640625,-10.39276123046875,17.2698974609375
1663860972312421600,15.179421630859375,53.00445556640625,-11.58599853515625,19.70367431640625
1663860972332410600,15.19941064453125,51.8707275390625,-14.48211669921875,18.92547607421875
1663860972352399600,15.219399658203125,51.89056396484375,-13.71002197265625,20.45440673828125
1663860972372388600,15.239388671875,51.09100341796875,-15.240478515625,19.22607421875
1663860972392377600,15.259377685546875,52.34832763671875,-13.57421875,18.32122802734375
1663860972412366800,15.279366943359374,51.861572265625,-14.8101806640625,16.02935791015625
1663860972432355800,15.29935595703125,52.44293212890625,-16.0247802734375,16.02325439453125
1663860972452344800,15.3193447265625,50.34332275390625,-14.50958251953125,16.02783203125
1663860972472333800,15.339333740234375,50.97198486328125,-13.6077880859375,14.66217041015625
1663860972492322800,15.35932275390625,52.8106689453125,-13.2843017578125,16.4947509765625
1663860972512311800,15.379311767578125,54.40521240234375,-10.10894775390625,14.22576904296875
1663860972532300800,15.39930078125,54.60357666015625,-8.13140869140625,14.38751220703125
1663860972552289800,15.419289794921875,53.62548828125,-4.18548583984375,13.9495849609375
1663860972572278800,15.43927880859375,53.0914306640625,-0.83770751953125,14.727783203125
1663860972592267800,15.459267822265625,53.741455078125,0.9765625,13.36517333984375
1663860972612256800,15.4792568359375,52.3162841796875,5.37261962890625,12.47100830078125
1663860972632245800,15.499245849609375,51.91497802734375,7.94219970703125,10.9588623046875
1663860972652235000,15.519235107421874,50.6439208984375,12.3504638671875,11.28387451171875
1663860972672224000,15.53922412109375,49.88861083984375,12.652587890625,11.28387451171875
1663860972692213000,15.559212890625,47.81036376953125,15.22064208984375,9.92279052734375
1663860972712202000,15.579201904296875,46.49200439453125,17.5201416015625,12.67547607421875
1663860972732191000,15.59919091796875,46.22650146484375,19.31915283203125,9.78851318359375
1663860972752180000,15.619179931640625,45.0958251953125,23.272705078125,10.26458740234375
1663860972772169000,15.6391689453125,41.76177978515625,24.176025390625,10.11199951171875
1663860972792158000,15.659157958984375,41.5771484375,22.802734375,9.49554443359375
1663860972812147000,15.67914697265625,41.29638671875,23.85711669921875,8.43353271484375
1663860972832136000,15.699135986328125,42.03033447265625,22.64404296875,8.58154296875
1663860972852125000,15.719125,44.33441162109375,23.4039306640625,7.97882080078125
1663860972872114000,15.739114013671875,43.5546875,22.6348876953125,7.2113037109375
1663860972892103200,15.759103271484374,43.54705810546875,22.32818603515625,6.7535400390625
1663860972912092200,15.779092041015625,45.98846435546875,22.344970703125,8.2794189453125
1663860972932081200,15.7990810546875,44.7052001953125,19.6014404296875,7.65533447265625
1663860972952070100,15.819070068359375,46.2432861328125,20.0836181640625,10.40191650390625
1663860972972059100,15.83905908203125,48.37799072265625,20.086669921875,10.09979248046875
1663860972992048000,15.859048095703125,47.72796630859375,18.267822265625,10.85205078125
1663860973012037000,15.879037109375,46.97723388671875,18.7286376953125,11.61651611328125
1663860973032026000,15.899026123046875,47.08404541015625,16.7572021484375,12.0635986328125
1663860973052015000,15.91901513671875,48.70758056640625,14.3341064453125,12.66326904296875
1663860973072004000,15.939004150390625,49.8992919921875,13.12103271484375,12.811279296875
1663860973091993000,15.9589931640625,50.1739501953125,11.6241455078125,15.39459228515625
1663860973111982000,15.978982177734375,52.10418701171875,9.34906005859375,15.53802490234375
1663860973132245800,15.999245849609375,52.94036865234375,5.8563232421875,15.673828125
1663860973152173800,16.019173828125,52.90069580078125,4.052734375,17.95196533203125
1663860973171949300,16.03894921875,50.848388671875,1.0009765625,17.0196533203125
1663860973191938300,16.058938232421873,52.7679443359375,-1.7333984375,16.70379638671875
1663860973211927300,16.07892724609375,53.61175537109375,-4.92095947265625,16.99371337890625
1663860973231916300,16.098916259765623,52.93731689453125,-7.80029296875,18.0450439453125
1663860973251905300,16.1189052734375,52.07366943359375,-12.21160888671875,17.718505859375
1663860973271894300,16.138894287109373,53.5736083984375,-13.40789794921875,19.69451904296875
1663860973291883300,16.15888330078125,52.77099609375,-15.09552001953125,18.00994873046875
1663860973311872300,16.178872314453123,51.495361328125,-17.53082275390625,17.9962158203125
1663860973331861200,16.198861328125,52.71453857421875,-17.53387451171875,17.23480224609375
1663860973351819800,16.21881982421875,53.19366455078125,-16.6168212890625,17.8497314453125
1663860973371839500,16.238839599609374,52.4200439453125,-17.07763671875,17.39044189453125
1663860973391828500,16.258828369140623,53.42254638671875,-13.27362060546875,17.71392822265625
1663860973411817500,16.2788173828125,52.0843505859375,-11.75689697265625,17.72003173828125
1663860973431806500,16.298806396484373,52.87628173828125,-10.400390625,16.20330810546875
1663860973451795500,16.31879541015625,53.20892333984375,-9.18121337890625,16.51458740234375
1663860973471784400,16.338784423828123,53.43017578125,-6.14471435546875,16.0736083984375
1663860973491773400,16.3587734375,54.1046142578125,-3.3905029296875,18.06793212890625
1663860973511762400,16.378762451171873,53.71856689453125,-0.20599365234375,17.32177734375
1663860973531751400,16.39875146484375,53.18450927734375,3.1341552734375,17.03338623046875
1663860973551740400,16.418740478515623,52.020263671875,5.69305419921875,14.453125
1663860973571729400,16.4387294921875,49.93896484375,8.11309814453125,13.70086669921875
1663860973591718700,16.45871875,49.10430908203125,11.6058349609375,13.5650634765625
1663860973611707600,16.478707763671874,48.8555908203125,14.17083740234375,11.29150390625
1663860973631696600,16.498696533203123,49.20196533203125,16.0003662109375,12.06207275390625
1663860973651685600,16.518685546875,48.03314208984375,18.27392578125,11.614990234375
1663860973671674600,16.538674560546873,48.2177734375,19.6441650390625,11.773681640625
1663860973691663600,16.55866357421875,44.775390625,22.51739501953125,11.02294921875
1663860973711622100,16.5786220703125,45.5474853515625,22.9705810546875,10.4156494140625
1663860973731641600,16.5986416015625,46.47674560546875,23.58856201171875,11.334228515625
1663860973751630600,16.618630615234373,44.66094970703125,24.200439453125,12.249755859375
1663860973771619600,16.63861962890625,43.8995361328125,24.20501708984375,13.01116943359375
1663860973791608600,16.658608642578123,41.90826416015625,23.8800048828125,11.0260009765625
1663860973811597600,16.67859765625,42.4896240234375,22.6593017578125,10.41107177734375
1663860973831586800,16.6985869140625,43.26171875,22.97515869140625,11.63330078125
1663860973851545000,16.718545166015623,42.93365478515625,22.0550537109375,10.71319580078125
1663860973871564800,16.738564697265623,46.240234375,19.805908203125,13.4490966796875
1663860973891553800,16.7585537109375,45.65887451171875,21.02508544921875,13.91143798828125
1663860973911542800,16.778542724609373,46.2646484375,20.86639404296875,12.9974365234375
1663860973931562200,16.798562255859373,47.2900390625,19.05059814453125,13.751220703125
1663860973951520800,16.818520751953123,46.90399169921875,15.4083251953125,14.495849609375
1663860973971540200,16.838540283203123,47.33428955078125,14.20440673828125,15.70892333984375
1663860973991498800,16.858498779296873,49.1455078125,13.43231201171875,13.87786865234375
1663860974011487700,16.87848779296875,50.63629150390625,11.92169189453125,14.63470458984375
1663860974031873500,16.89887353515625,50.69122314453125,7.5286865234375,16.28875732421875
1663860974051649000,16.91864892578125,51.544189453125,4.79736328125,16.42913818359375
1663860974071485400,16.9384853515625,53.143310546875,1.312255859375,17.327880859375
1663860974091474400,16.958474365234373,53.35845947265625,-2.63519287109375,17.767333984375
1663860974111555000,16.97855517578125,53.302001953125,-5.20782470703125,19.1253662109375
1663860974131452400,16.998452392578123,54.45098876953125,-8.251953125,18.1976318359375
1663860974151441400,17.01844140625,53.95660400390625,-9.92584228515625,18.035888671875
1663860974171430400,17.038430419921873,52.8289794921875,-12.5152587890625,17.71697998046875
1663860974191449900,17.058449951171873,52.89459228515625,-16.31927490234375,17.08984375
1663860974211378000,17.0783779296875,50.45928955078125,-16.1712646484375,17.2393798828125
1663860974231367000,17.098366943359373,51.025390625,-18.13812255859375,18.14422607421875
1663860974251356000,17.11835595703125,51.04827880859375,-17.0806884765625,17.388916015625
1663860974271314400,17.138314453125,52.19879150390625,-20.11871337890625,17.22259521484375
1663860974291334000,17.158333984375,51.7791748046875,-18.44940185546875,17.07763671875
1663860974311323100,17.1783232421875,52.10723876953125,-17.39044189453125,16.32080078125
1663860974331312000,17.19831201171875,50.146484375,-16.4825439453125,16.4764404296875
1663860974351301000,17.218301025390623,49.1180419921875,-14.6759033203125,14.654541015625
1663860974371290000,17.2382900390625,50.05340576171875,-13.763427734375,14.508056640625
1663860974391279000,17.258279052734373,51.04522705078125,-10.41259765625,15.13519287109375
1663860974411268000,17.27826806640625,51.70745849609375,-8.1268310546875,15.7562255859375
1663860974431257000,17.298257080078123,52.51007080078125,-6.31256103515625,14.3951416015625
1663860974451246000,17.31824609375,52.59246826171875,-2.66265869140625,14.71710205078125
1663860974471235000,17.338235107421873,50.96588134765625,-0.3936767578125,13.812255859375
1663860974491224000,17.35822412109375,51.70440673828125,5.23681640625,14.4500732421875
1663860974511213000,17.378213134765623,50.42266845703125,9.31854248046875,12.1826171875
1663860974531202300,17.398202392578124,49.11956787109375,12.353515625,12.04376220703125
1663860974551191300,17.41819140625,47.7294921875,18.2861328125,12.98675537109375
1663860974571180300,17.43818017578125,45.2911376953125,18.41583251953125,11.00311279296875
1663860974591169300,17.458169189453123,45.00579833984375,19.18792724609375,12.530517578125
1663860974611158300,17.478158203125,45.17822265625,20.0927734375,11.62109375
1663860974631147300,17.498147216796873,45.0714111328125,22.07489013671875,12.54425048828125
1663860974651136300,17.51813623046875,42.37823486328125,24.3499755859375,12.55340576171875
1663860974671125200,17.538125244140623,41.4642333984375,24.481201171875,10.418701171875
1663860974691114200,17.5581142578125,42.681884765625,24.3438720703125,11.79046630859375
1663860974711103200,17.578103271484373,41.5557861328125,21.75750732421875,11.7767333984375
1663860974731092200,17.59809228515625,43.83087158203125,21.1578369140625,12.2344970703125
1663860974751081200,17.618081298828123,40.472412109375,21.002197265625,12.5335693359375
1663860974771039700,17.638039794921873,43.212890625,20.85113525390625,11.92626953125
1663860974791059500,17.6580595703125,43.77593994140625,18.73321533203125,12.98370361328125
1663860974811048400,17.67804833984375,46.53472900390625,19.35272216796875,13.75274658203125
1663860974831037400,17.698037353515623,45.8709716796875,16.9219970703125,14.044189453125
1663860974851026400,17.7180263671875,48.26812744140625,15.1031494140625,14.0380859375
1663860974870985000,17.73798486328125,48.71063232421875,14.36004638671875,15.863037109375
1663860974891004400,17.75800439453125,48.24676513671875,14.0625,16.6229248046875
1663860974911268000,17.77826806640625,48.974609375,12.53662109375,15.85540771484375
1663860974931196200,17.798196044921873,46.3409423828125,10.70709228515625,15.84320068359375
1663860974950971400,17.817971435546873,48.24371337890625,7.21282958984375,15.37017822265625
1663860974970960400,17.83796044921875,50.35247802734375,6.011962890625,16.5863037109375
1663860974990949400,17.857949462890623,51.96380615234375,3.12652587890625,16.5740966796875
1663860975010969000,17.877968994140623,52.20184326171875,0.10833740234375,18.9971923828125
1663860975030927600,17.897927734375,50.8087158203125,-0.81329345703125,18.07708740234375
1663860975050947000,17.917947021484373,51.6632080078125,-3.533935546875,19.7418212890625
1663860975070905600,17.937905517578123,52.2003173828125,-6.7230224609375,19.879150390625
1663860975090894600,17.95789453125,51.220703125,-9.47723388671875,17.88330078125
1663860975110883600,17.977883544921873,51.62811279296875,-11.7462158203125,19.091796875
1663860975130903000,17.997903076171873,50.08392333984375,-12.6556396484375,19.69451904296875
1663860975150861600,18.017861572265623,50.95062255859375,-14.64996337890625,17.24700927734375
1663860975170850600,18.0378505859375,50.9246826171875,-15.72265625,16.17584228515625
1663860975190839600,18.057839599609373,51.98516845703125,-16.162109375,18.00384521484375
1663860975210828500,18.07782861328125,50.9307861328125,-15.42816162109375,15.11077880859375
1663860975230817500,18.097817626953123,51.409912109375,-14.51416015625,15.2679443359375
1663860975250806800,18.117806884765624,53.1005859375,-13.90380859375,15.11993408203125
1663860975270795800,18.137795654296873,51.4495849609375,-12.70294189453125,13.75274658203125
1663860975290784800,18.15778466796875,52.2552490234375,-10.8642578125,15.2862548828125
1663860975310773800,18.177773681640623,52.45819091796875,-8.59222412109375,14.3829345703125
1663860975330762800,18.1977626953125,51.4495849609375,-6.01043701171875,14.3951416015625
1663860975350751700,18.217751708984373,50.95062255859375,-1.1474609375,14.57061767578125
1663860975370740700,18.23774072265625,51.3092041015625,1.27716064453125,13.6688232421875
1663860975390729700,18.257729736328123,51.8524169921875,5.07049560546875,12.77313232421875
1663860975410718700,18.27771875,51.63726806640625,9.02099609375,12.79296875
1663860975430707700,18.297707763671873,50.6103515625,10.8367919921875,12.03765869140625
1663860975450696700,18.31769677734375,46.87652587890625,14.324951171875,12.2039794921875
1663860975470685700,18.337685791015623,47.222900390625,16.1407470703125,11.14654541015625
1663860975490705400,18.357705322265623,46.82464599609375,18.8568115234375,8.87298583984375
1663860975510664000,18.377663818359373,44.86236572265625,19.7662353515625,9.027099609375
1663860975530653000,18.39765283203125,44.13909912109375,21.44317626953125,9.95025634765625
1663860975550642000,18.417641845703123,43.88580322265625,23.7152099609375,9.04541015625
1663860975570631000,18.437630859375,42.01507568359375,21.8902587890625,9.33990478515625
1663860975590620000,18.457619873046873,43.60504150390625,24.77874755859375,9.051513671875
1663860975610609000,18.47760888671875,43.76373291015625,25.08392333984375,9.20562744140625
1663860975630598000,18.497597900390623,44.1925048828125,23.85406494140625,7.3699951171875
1663860975650587000,18.5175869140625,42.071533203125,24.46441650390625,8.2855224609375
1663860975670575900,18.537575927734373,43.43109130859375,23.8616943359375,8.43658447265625
1663860975690564900,18.55756494140625,43.3990478515625,22.49298095703125,8.43048095703125
1663860975710554000,18.57755419921875,43.5211181640625,21.13037109375,9.033203125
1663860975730543000,18.597543212890624,45.330810546875,20.2239990234375,9.1827392578125
1663860975750532000,18.617531982421873,44.8699951171875,20.06988525390625,9.02862548828125
1663860975770521000,18.63752099609375,48.8067626953125,18.731689453125,11.6180419921875
1663860975790510000,18.657510009765623,47.09625244140625,17.3492431640625,10.23712158203125
1663860975810804200,18.67780419921875,47.8302001953125,16.00189208984375,12.518310546875
1663860975830579700,18.697579833984374,50.494384765625,12.49847412109375,10.82763671875
1663860975850477000,18.71747705078125,49.6917724609375,10.687255859375,12.646484375
1663860975870466000,18.737466064453123,52.392578125,8.71734619140625,12.48779296875
1663860975890485500,18.757485595703123,52.6214599609375,5.37872314453125,13.08135986328125
1663860975910444000,18.777444091796873,53.46832275390625,2.34527587890625,13.67645263671875
1663860975930433000,18.79743310546875,52.79693603515625,-0.38604736328125,14.27154541015625
1663860975950422300,18.81742236328125,53.62091064453125,-4.47540283203125,15.77606201171875
1663860975970411300,18.837411376953124,55.21697998046875,-7.9803466796875,14.2364501953125
1663860975990400300,18.857400146484373,53.363037109375,-9.039306640625,15.29693603515625
1663860976010389200,18.87738916015625,54.8370361328125,-11.31591796875,15.28778076171875
1663860976030378200,18.897378173828123,54.79583740234375,-13.13629150390625,15.582275390625
1663860976050367200,18.9173671875,52.45208740234375,-15.5853271484375,14.19677734375
1663860976070356200,18.937356201171873,52.7679443359375,-15.118408203125,15.41900634765625
1663860976090345200,18.95734521484375,53.04718017578125,-16.1895751953125,14.3463134765625
1663860976110334200,18.977334228515623,53.3203125,-17.572021484375,12.51220703125
1663860976130323200,18.9973232421875,53.9337158203125,-17.42095947265625,12.36114501953125
1663860976150312200,19.017312255859373,53.37677001953125,-15.12298583984375,14.6575927734375
1663860976170301200,19.03730126953125,54.02374267578125,-13.46588134765625,12.68463134765625
1663860976190290400,19.05729052734375,53.30352783203125,-11.63787841796875,13.4552001953125
1663860976210279400,19.077279541015624,52.91748046875,-8.58001708984375,15.7562255859375
1663860976230268400,19.097268310546873,54.13055419921875,-8.75244140625,13.0126953125
1663860976250257400,19.11725732421875,53.30047607421875,-4.9652099609375,11.81182861328125
1663860976270246400,19.137246337890623,52.752685546875,-2.22930908203125,11.97662353515625
1663860976290235400,19.1572353515625,51.78375244140625,2.166748046875,10.92987060546875
1663860976310224400,19.177224365234373,52.91900634765625,5.072021484375,12.774658203125
1663860976330213400,19.19721337890625,52.67791748046875,7.94677734375,11.2640380859375
1663860976350172000,19.217171875,51.513671875,10.37445068359375,11.12213134765625
1663860976370191400,19.23719140625,50.68511962890625,14.17999267578125,12.054443359375
1663860976390180400,19.257180419921873,48.48785400390625,18.1243896484375,11.767578125
1663860976410169300,19.27716943359375,47.27935791015625,18.71337890625,9.7869873046875
1663860976430158600,19.29715869140625,44.27032470703125,20.51849365234375,8.26873779296875
1663860976450147600,19.317147705078124,43.389892578125,22.04437255859375,9.19036865234375
1663860976470136600,19.337136474609373,44.14520263671875,21.74072265625,9.1888427734375
1663860976490125600,19.35712548828125,43.70880126953125,22.52197265625,11.7828369140625
1663860976510114600,19.377114501953123,43.44329833984375,24.33929443359375,11.03057861328125
1663860976530073000,19.397072998046873,42.09136962890625,25.24261474609375,10.42327880859375
1663860976550092500,19.417092529296873,40.68450927734375,23.71673583984375,10.10894775390625
1663860976570081500,19.43708154296875,40.43731689453125,26.29852294921875,9.8175048828125
1663860976590070500,19.457070556640623,42.67120361328125,23.88153076171875,11.0260009765625
1663860976610059500,19.4770595703125,43.84613037109375,21.91314697265625,11.62872314453125
1663860976630048500,19.497048583984373,44.4122314453125,19.940185546875,11.7706298828125
1663860976650037500,19.51703759765625,45.6573486328125,21.0174560546875,13.1500244140625
1663860976670026800,19.53702685546875,46.38824462890625,19.64874267578125,12.8387451171875
1663860976690290400,19.55729052734375,46.2005615234375,17.9931640625,14.81170654296875
1663860976710187800,19.577187744140623,48.44970703125,16.32537841796875,14.65301513671875
1663860976729993700,19.59699365234375,48.86627197265625,14.501953125,14.6453857421875
1663860976750013200,19.61701318359375,50.64849853515625,12.3870849609375,15.704345703125
1663860976769971700,19.6369716796875,51.24053955078125,11.62567138671875,15.3961181640625
1663860976789960700,19.656960693359373,50.52490234375,6.9244384765625,16.74346923828125
1663860976809949700,19.67694970703125,52.0111083984375,5.2490234375,15.82183837890625
1663860976829938700,19.696938720703123,53.2745361328125,0.40130615234375,17.47589111328125
1663860976849927700,19.716927734375,52.69927978515625,-4.7760009765625,16.38336181640625
1663860976869916700,19.736916748046873,51.9927978515625,-9.033203125,16.36199951171875
1663860976889905700,19.75690576171875,53.00140380859375,-11.61651611328125,16.046142578125
1663860976909895000,19.77689501953125,53.22265625,-15.26947021484375,15.26641845703125
1663860976929884000,19.7968837890625,52.27203369140625,-16.92047119140625,17.999267578125
1663860976949873000,19.816872802734373,52.69622802734375,-18.30291748046875,16.1651611328125
1663860976969862000,19.83686181640625,51.922607421875,-18.77288818359375,14.63775634765625
1663860976989851000,19.856850830078123,53.1158447265625,-19.97222900390625,16.31011962890625
1663860977009839900,19.87683984375,52.07977294921875,-18.47991943359375,13.42010498046875
1663860977029828900,19.896828857421873,52.386474609375,-18.4722900390625,14.18304443359375
1663860977049817900,19.91681787109375,52.38494873046875,-18.47686767578125,13.72528076171875
1663860977069806800,19.936806884765623,53.4759521484375,-17.4163818359375,12.969970703125
1663860977089795800,19.9567958984375,53.96575927734375,-16.0369873046875,14.19677734375
1663860977109754400,19.97675439453125,53.91845703125,-11.4654541015625,15.74249267578125
1663860977129774000,19.996774169921874,55.059814453125,-8.13446044921875,13.9312744140625
1663860977149763000,20.01676318359375,54.06494140625,-4.94842529296875,13.641357421875
1663860977169752000,20.036751953125,52.32696533203125,-0.8575439453125,12.59307861328125
1663860977189741000,20.056740966796873,51.6143798828125,1.28021240234375,13.9739990234375
1663860977209730000,20.07672998046875,51.96533203125,3.39202880859375,11.85150146484375
1663860977229719000,20.096718994140623,52.0843505859375,8.56781005859375,12.94403076171875
1663860977249708000,20.1167080078125,51.71356201171875,12.36724853515625,13.1134033203125
1663860977269697000,20.136697021484373,48.2330322265625,13.57269287109375,12.65869140625
1663860977289686000,20.15668603515625,47.70355224609375,17.205810546875,11.15264892578125
1663860977309675000,20.176675048828123,47.15728759765625,19.9462890625,11.77520751953125
1663860977329633500,20.196633544921873,44.55108642578125,19.3359375,12.225341796875
1663860977349653000,20.216653076171873,43.5516357421875,22.36480712890625,11.1724853515625
1663860977369642200,20.236642333984374,44.7235107421875,20.24688720703125,12.07733154296875
1663860977389631200,20.25663134765625,44.9371337890625,22.96905517578125,10.4156494140625
1663860977409620200,20.2766201171875,44.7998046875,23.583984375,11.33270263671875
1663860977429578800,20.296578857421874,44.80743408203125,23.8922119140625,11.79046630859375
1663860977449598200,20.31659814453125,45.086669921875,22.82257080078125,11.02447509765625
1663860977469617700,20.33661767578125,46.600341796875,22.36480712890625,10.41412353515625
1663860977489576200,20.356576171875,46.01593017578125,23.4344482421875,11.18011474609375
1663860977509565200,20.376565185546873,44.64263916015625,23.42376708984375,10.41717529296875
1663860977529554200,20.39655419921875,46.54998779296875,20.09735107421875,11.92626953125
1663860977549543200,20.416543212890623,46.2554931640625,20.55511474609375,12.23297119140625
1663860977569532200,20.4365322265625,46.0174560546875,16.75872802734375,12.51983642578125
1663860977589826600,20.45682666015625,47.23052978515625,16.45355224609375,12.21466064453125
1663860977609601800,20.476601806640623,49.310302734375,14.03045654296875,12.6617431640625
1663860977629499400,20.49649951171875,49.76806640625,14.03350830078125,12.9669189453125
1663860977649488400,20.51648828125,50.48065185546875,11.77215576171875,14.7857666015625
1663860977669507800,20.5365078125,50.89263916015625,9.7930908203125,14.32037353515625
1663860977689436000,20.556435791015623,50.98419189453125,7.0648193359375,15.22064208984375
1663860977709455400,20.576455322265623,53.6651611328125,4.32281494140625,13.83819580078125
1663860977729444400,20.5964443359375,52.239990234375,1.9012451171875,15.34881591796875
1663860977749433300,20.616433349609373,53.68194580078125,-1.611328125,12.89520263671875
1663860977769422300,20.63642236328125,54.345703125,-6.01043701171875,13.63677978515625
1663860977789411300,20.656411376953123,54.90570068359375,-8.2794189453125,14.84527587890625
1663860977809400300,20.676400390625,55.438232421875,-11.6302490234375,13.76190185546875
1663860977829389300,20.696389404296873,52.50244140625,-13.43841552734375,16.34063720703125
1663860977849378600,20.716378662109374,52.7557373046875,-15.7196044921875,16.1773681640625
1663860977869367600,20.736367431640623,54.0008544921875,-14.51416015625,14.508056640625
1663860977889356500,20.7563564453125,53.7811279296875,-17.5445556640625,15.71197509765625
1663860977909345500,20.776345458984373,51.20086669921875,-16.95098876953125,14.6453857421875
1663860977929334500,20.79633447265625,51.97296142578125,-16.49932861328125,13.88702392578125
1663860977949323500,20.816323486328123,52.17132568359375,-14.52178955078125,14.20135498046875
1663860977969312500,20.8363125,51.08489990234375,-15.29693603515625,12.67242431640625
1663860977989301500,20.856301513671873,52.825927734375,-12.542724609375,14.3646240234375
1663860978009290500,20.87629052734375,55.157470703125,-10.56060791015625,14.5294189453125
1663860978029279500,20.896279541015623,52.1820068359375,-7.36846923828125,15.45562744140625
1663860978049268500,20.9162685546875,52.36663818359375,-5.86395263671875,13.482666015625
1663860978069257500,20.936257568359373,53.06396484375,-2.0599365234375,13.958740234375
1663860978089246700,20.956246826171874,52.81982421875,0.67138671875,13.51470947265625
1663860978109235700,20.976235595703123,52.57415771484375,3.25469970703125,13.52691650390625
1663860978129224700,20.996224609375,52.325439453125,5.82275390625,11.71112060546875
1663860978149213700,21.016213623046873,50.10528564453125,8.72039794921875,13.55133056640625
1663860978169233200,21.036233154296873,50.6439208984375,12.347412109375,10.97869873046875
1663860978189191700,21.056191650390623,50.07171630859375,14.02587890625,11.90032958984375
1663860978209150200,21.076150146484373,47.8546142578125,17.0684814453125,12.82806396484375
1663860978229169700,21.096169677734373,46.39434814453125,19.9462890625,12.078857421875
1663860978249158700,21.11615869140625,42.9351806640625,22.05810546875,11.01837158203125
1663860978269147600,21.136147705078123,43.896484375,24.18212890625,10.42022705078125
1663860978289136600,21.15613671875,42.8314208984375,24.1912841796875,11.63787841796875
1663860978309095200,21.17609521484375,42.01507568359375,21.8902587890625,9.33990478515625
1663860978329115000,21.196114990234374,43.41888427734375,23.272705078125,10.71929931640625
1663860978349103900,21.216103759765623,44.3572998046875,24.19891357421875,12.249755859375
1663860978369092900,21.2360927734375,45.10498046875,23.59161376953125,12.0941162109375
1663860978389081900,21.256081787109373,45.09735107421875,23.284912109375,11.7889404296875
1663860978409070800,21.27607080078125,43.890380859375,23.748779296875,13.00811767578125
1663860978429059800,21.296059814453123,45.32928466796875,19.95697021484375,13.6016845703125
1663860978449048800,21.316048828125,45.4437255859375,18.28765869140625,13.7451171875
1663860978469312500,21.3363125,45.59783935546875,18.42193603515625,11.7645263671875
1663860978489210000,21.356210205078124,47.821044921875,15.5548095703125,13.58184814453125
1663860978509015800,21.376015869140623,47.808837890625,14.9566650390625,14.64691162109375
1663860978529004800,21.3960048828125,49.847412109375,10.83831787109375,12.49542236328125
1663860978548994000,21.415994140625,51.20086669921875,9.8175048828125,17.2149658203125
1663860978568983000,21.435983154296874,52.52532958984375,7.81707763671875,14.007568359375
1663860978588972000,21.455971923828123,50.95367431640625,5.70220947265625,15.8233642578125
1663860978608961000,21.4759609375,52.57110595703125,2.97698974609375,16.7266845703125
1663860978628950000,21.495949951171873,51.88140869140625,-0.51422119140625,17.3187255859375
1663860978648939000,21.51593896484375,51.7822265625,-4.9224853515625,17.29583740234375
1663860978668928000,21.535927978515623,52.33001708984375,-7.65533447265625,17.43621826171875
1663860978688917000,21.5559169921875,52.239990234375,-11.5997314453125,18.17779541015625
1663860978708936400,21.5759365234375,53.44085693359375,-12.50457763671875,18.78509521484375
1663860978728895000,21.59589501953125,53.38897705078125,-14.6575927734375,15.7257080078125
1663860978748884000,21.615884033203123,52.2979736328125,-15.7196044921875,16.1773681640625
1663860978768873000,21.635873046875,50.439453125,-16.9464111328125,15.40679931640625
1663860978788862200,21.6558623046875,52.23846435546875,-18.3074951171875,15.7073974609375
1663860978808851200,21.675851318359374,52.24609375,-18.00079345703125,16.1651611328125
1663860978828840200,21.695840087890623,52.71453857421875,-17.53387451171875,17.23480224609375
1663860978848829200,21.7158291015625,52.42919921875,-16.63360595703125,16.02020263671875
1663860978868818200,21.735818115234373,51.23748779296875,-15.41595458984375,16.4825439453125
1663860978888807200,21.75580712890625,52.9266357421875,-14.81781005859375,14.8101806640625
1663860978908796200,21.775796142578123,52.80303955078125,-13.59100341796875,16.18804931640625
1663860978928785200,21.79578515625,52.8533935546875,-11.45782470703125,16.96014404296875
1663860978948774100,21.815774169921873,53.240966796875,-7.806396484375,17.28363037109375
1663860978968763100,21.83576318359375,54.21295166015625,-5.35888671875,18.9727783203125
1663860978988752100,21.855752197265623,52.32086181640625,-1.28021240234375,16.552734375
1663860979008710700,21.875710693359373,51.6571044921875,3.10821533203125,14.43939208984375
1663860979028730400,21.89573046875,51.5411376953125,4.779052734375,14.29595947265625
1663860979048719400,21.91571923828125,50.74310302734375,9.9365234375,13.4063720703125
1663860979068708400,21.935708251953123,49.55291748046875,11.28997802734375,12.0391845703125
1663860979088697300,21.955697265625,49.62005615234375,14.190673828125,13.5772705078125
1663860979108655900,21.97565576171875,48.1781005859375,17.8375244140625,13.89923095703125
1663860979128675300,21.99567529296875,46.0845947265625,19.6502685546875,13.1439208984375
1663860979148664300,22.015664306640623,46.0723876953125,19.189453125,12.53204345703125
1663860979168653300,22.0356533203125,44.635009765625,22.99652099609375,13.76800537109375
1663860979188642300,22.055642333984373,42.83294677734375,24.20196533203125,13.0096435546875
1663860979208631300,22.07563134765625,43.4356689453125,23.9013671875,13.16070556640625
1663860979228620300,22.095620361328123,40.82794189453125,23.27880859375,12.0880126953125
1663860979248609300,22.115609375,43.4112548828125,22.83477783203125,12.8509521484375
1663860979268598500,22.1355986328125,44.49462890625,23.590087890625,12.0941162109375
1663860979288587500,22.15558740234375,45.08056640625,22.528076171875,12.08953857421875
1663860979308546000,22.175546142578124,45.38726806640625,22.5341796875,12.85247802734375
1663860979328565500,22.1955654296875,45.96710205078125,21.185302734375,14.82696533203125
1663860979348920600,22.215920654296873,47.96295166015625,21.7926025390625,14.37530517578125
1663860979368848600,22.2358486328125,46.9940185546875,19.3634033203125,14.8193359375
1663860979388593700,22.25559375,46.83685302734375,19.20318603515625,13.90380859375
1663860979408521500,22.275521484375,47.99041748046875,16.1865234375,16.32843017578125
1663860979428510500,22.295510498046873,48.12164306640625,15.2740478515625,16.17279052734375
1663860979448530200,22.3155302734375,50.592041015625,9.81903076171875,17.5201416015625
1663860979468519200,22.335519287109374,50.8392333984375,7.2479248046875,19.03076171875
1663860979488477700,22.355477783203124,52.8594970703125,2.23541259765625,18.7042236328125
1663860979508466700,22.375466796875,52.5299072265625,1.16729736328125,18.24188232421875
1663860979528455700,22.39545556640625,51.66778564453125,-3.23944091796875,18.6767578125
1663860979548414200,22.415414306640624,52.374267578125,-5.80902099609375,20.03631591796875
1663860979568433700,22.43543359375,51.22222900390625,-9.47113037109375,18.64471435546875
1663860979588422700,22.455422607421873,50.37689208984375,-13.1195068359375,18.62640380859375
1663860979608411600,22.47541162109375,52.15911865234375,-15.24200439453125,18.92242431640625
1663860979628400600,22.495400634765623,51.54571533203125,-15.3961181640625,18.768310546875
1663860979648359200,22.515359130859373,51.007080078125,-18.90411376953125,17.3797607421875
1663860979668378600,22.535378662109373,50.82855224609375,-20.10650634765625,19.049072265625
1663860979688367600,22.55536767578125,50.8453369140625,-19.35272216796875,18.29071044921875
1663860979708356600,22.575356689453123,49.15313720703125,-19.96612548828125,18.133544921875
1663860979728345900,22.595345947265624,51.89361572265625,-20.1202392578125,17.2210693359375
1663860979748334800,22.6153349609375,50.54779052734375,-18.9117431640625,16.6168212890625
1663860979768323800,22.63532373046875,50.86669921875,-18.304443359375,16.46728515625
1663860979788312800,22.655312744140623,51.54266357421875,-15.4083251953125,17.24395751953125
1663860979808301800,22.6753017578125,52.08892822265625,-11.4654541015625,16.19720458984375
1663860979828290800,22.695290771484373,52.33001708984375,-7.64923095703125,18.1976318359375
1663860979848279800,22.71527978515625,52.33001708984375,-7.6507568359375,17.8924560546875
1663860979868268800,22.735268798828123,53.82080078125,-2.47802734375,18.22509765625
1663860979888257800,22.7552578125,51.7578125,0.71258544921875,18.695068359375
1663860979908246800,22.775246826171873,50.88958740234375,2.69775390625,19.92340087890625
1663860979928235800,22.79523583984375,52.0721435546875,7.85369873046875,18.426513671875
1663860979948224800,22.815224853515623,49.1973876953125,8.90045166015625,17.0562744140625
1663860979968214000,22.835214111328124,49.5574951171875,11.328125,16.45965576171875
1663860979988203000,22.855203125,50.5401611328125,14.361572265625,15.5609130859375
1663860980008192000,22.87519189453125,48.75030517578125,16.168212890625,14.044189453125
1663860980028181000,22.895180908203123,48.00567626953125,16.92657470703125,14.0472412109375
1663860980048170000,22.915169921875,45.4620361328125,19.05975341796875,15.2740478515625
1663860980068159000,22.935158935546873,45.4864501953125,20.1263427734375,15.58380126953125
1663860980088148000,22.95514794921875,44.5831298828125,20.58258056640625,15.88897705078125
1663860980108137000,22.975136962890623,44.30694580078125,21.93450927734375,14.06707763671875
1663860980128126000,22.9951259765625,42.767333984375,21.19140625,16.3482666015625
1663860980148115000,23.015114990234373,44.43359375,20.7366943359375,16.19415283203125
1663860980168104000,23.03510400390625,44.854736328125,19.0765380859375,17.40570068359375
1663860980188093000,23.055093017578123,45.3277587890625,19.69757080078125,18.78204345703125
1663860980208082200,23.075082275390624,46.08001708984375,19.244384765625,19.085693359375
1663860980228071200,23.0950712890625,46.37603759765625,18.927001953125,17.254638671875
1663860980248334800,23.1153349609375,46.0723876953125,18.939208984375,18.77899169921875
1663860980268232200,23.135232177734373,46.46148681640625,15.8966064453125,18.4600830078125
1663860980288068600,23.155068603515623,49.01123046875,14.07012939453125,17.3858642578125
1663860980308027100,23.175027099609373,48.309326171875,10.10284423828125,15.6890869140625
1663860980328016100,23.19501611328125,51.94854736328125,9.0728759765625,18.73626708984375
1663860980348005000,23.215005126953123,51.422119140625,6.0333251953125,18.87359619140625
1663860980367994000,23.234994140625,51.513671875,3.30810546875,20.07904052734375
1663860980387983000,23.254983154296873,51.3458251953125,2.691650390625,19.1619873046875
1663860980407972000,23.27497216796875,52.606201171875,-2.30865478515625,20.6634521484375
1663860980427961000,23.294961181640623,53.65753173828125,-3.06396484375,20.965576171875
1663860980447950300,23.314950439453124,53.29437255859375,-5.64117431640625,21.71478271484375
1663860980467908600,23.33490869140625,53.387451171875,-8.22296142578125,21.8536376953125
1663860980487928300,23.35492822265625,51.32598876953125,-11.73095703125,20.9197998046875
1663860980507917300,23.374917236328123,51.61285400390625,-12.4908447265625,20.916748046875
1663860980527906300,23.39490625,51.39923095703125,-15.22064208984375,21.5118408203125
1663860980547895300,23.414895263671873,49.4781494140625,-19.1864013671875,20.42388916015625
1663860980567853800,23.434853759765623,50.79498291015625,-21.61407470703125,20.5657958984375
1663860980587873300,23.454873291015623,49.84588623046875,-23.13385009765625,20.709228515625
1663860980607862300,23.4748623046875,50.30670166015625,-22.98583984375,20.1019287109375
1663860980627851300,23.494851318359373,50.91400146484375,-23.13232421875,20.71075439453125
1663860980647840300,23.51484033203125,47.41668701171875,-22.6837158203125,20.556640625
1663860980667829200,23.534829345703123,50.96893310546875,-20.7000732421875,20.72296142578125
1663860980687818500,23.554818603515624,49.12567138671875,-21.30279541015625,21.78497314453125
1663860980707807500,23.574807373046873,51.7974853515625,-17.8009033203125,21.8048095703125
1663860980727796500,23.59479638671875,51.983642578125,-16.4215087890625,23.1842041015625
1663860980747785500,23.614785400390623,50.5218505859375,-13.5498046875,21.67205810546875
1663860980767774500,23.6347744140625,52.4261474609375,-10.345458984375,22.7569580078125
1663860980787763500,23.654763427734373,52.62908935546875,-8.203125,24.444580078125
1663860980807752400,23.67475244140625,53.6407470703125,-3.814697265625,22.027587890625
1663860980827741400,23.694741455078123,53.4210205078125,-0.152587890625,23.87542724609375
1663860980847730400,23.71473046875,50.61492919921875,3.9306640625,22.06268310546875
1663860980867719400,23.734719482421873,50.9857177734375,6.81915283203125,22.07794189453125
1663860980887708400,23.75470849609375,48.71673583984375,7.71484375,20.86029052734375
1663860980907697700,23.77469775390625,49.5635986328125,11.376953125,22.4029541015625
1663860980927686700,23.794686767578124,49.6063232421875,13.2110595703125,23.47869873046875
1663860980947675600,23.814675537109373,46.307373046875,15.64178466796875,24.249267578125
1663860980967664600,23.83466455078125,46.29364013671875,15.02685546875,23.48480224609375
1663860980987653600,23.854653564453123,47.711181640625,17.0074462890625,23.6480712890625
1663860981007642600,23.874642578125,45.9136962890625,18.389892578125,25.78582763671875
1663860981027631600,23.894631591796873,46.04339599609375,17.46063232421875,23.8006591796875
1663860981047620600,23.91462060546875,44.4091796875,19.287109375,24.5697021484375
1663860981067609600,23.934609619140623,45.59783935546875,17.919921875,24.25994873046875
1663860981087598600,23.9545986328125,47.1038818359375,17.15240478515625,23.0377197265625
1663860981107557000,23.97455712890625,47.22747802734375,15.9332275390625,22.57537841796875
1663860981127943000,23.99494287109375,47.82562255859375,15.3411865234375,24.249267578125
1663860981147840300,24.01484033203125,48.82659912109375,12.44964599609375,23.47412109375
1663860981167615700,24.03461572265625,50.52490234375,13.36822509765625,23.93798828125
1663860981187574300,24.05457421875,50.775146484375,10.8062744140625,26.5167236328125
1663860981207532800,24.07453271484375,49.8199462890625,9.12322998046875,25.28839111328125
1663860981227491300,24.0944912109375,51.79443359375,8.685302734375,26.96380615234375
1663860981247510800,24.1145107421875,49.468994140625,7.00531005859375,26.64947509765625
1663860981267469300,24.13446923828125,51.69219970703125,4.26177978515625,25.11444091796875
1663860981287488800,24.15448876953125,50.5523681640625,1.068115234375,25.09613037109375
1663860981307477800,24.174477783203123,53.07769775390625,-1.9500732421875,26.9134521484375
1663860981327466800,24.194466796875,52.435302734375,-3.45458984375,28.88641357421875
1663860981347472600,24.21447265625,49.627685546875,-6.201171875,28.26080322265625
1663860981367461600,24.234461669921874,50.76904296875,-9.6832275390625,29.61578369140625
1663860981387450600,24.25445068359375,50.08392333984375,-13.0279541015625,29.5989990234375
1663860981407439600,24.274439697265624,50.018310546875,-15.91644287109375,29.58526611328125
1663860981427428600,24.2944287109375,47.5341796875,-17.889404296875,30.487060546875
1663860981447417600,24.31441748046875,47.320556640625,-20.62225341796875,30.9295654296875
1663860981467406800,24.33440673828125,45.849609375,-24.88861083984375,29.840087890625
1663860981487395800,24.354395751953124,46.11968994140625,-26.41143798828125,29.52880859375
1663860981507384800,24.374384765625,45.01800537109375,-27.9327392578125,29.5196533203125
1663860981527373800,24.394373779296874,44.98748779296875,-29.2938232421875,30.27496337890625
1663860981547362800,24.41436279296875,45.11871337890625,-30.2093505859375,29.96673583984375
1663860981567351800,24.434351806640624,45.7733154296875,-28.23486328125,29.5196533203125
1663860981587340800,24.4543408203125,46.69952392578125,-27.642822265625,27.3895263671875
1663860981607329800,24.474329833984374,47.19390869140625,-26.10931396484375,29.0740966796875
1663860981627318800,24.49431884765625,47.09014892578125,-23.97613525390625,29.693603515625
1663860981647277300,24.51427734375,48.03924560546875,-22.454833984375,29.5501708984375
1663860981667296800,24.534296875,47.12982177734375,-22.1649169921875,28.179931640625
1663860981687285800,24.55428564453125,47.6593017578125,-19.110107421875,29.87060546875
1663860981707275000,24.57427490234375,48.944091796875,-16.22314453125,29.58221435546875
1663860981727264000,24.594263916015624,50.6805419921875,-13.6260986328125,30.6640625
1663860981747253000,24.6142529296875,50.604248046875,-10.2813720703125,30.8319091796875
1663860981767242000,24.634241943359374,52.0477294921875,-7.09686279296875,29.63104248046875
1663860981787200500,24.654200439453124,51.7242431640625,-1.30767822265625,31.488037109375
1663860981807220000,24.674219970703124,51.31988525390625,1.11236572265625,30.126953125
1663860981827209000,24.694208984375,49.5391845703125,3.24554443359375,31.35528564453125
1663860981847198000,24.714197998046874,49.00054931640625,6.292724609375,32.28302001953125
1663860981867187000,24.73418701171875,48.74420166015625,8.55255126953125,30.0079345703125
1663860981887176000,24.754176025390624,47.88055419921875,10.83221435546875,30.17120361328125
1663860981907165000,24.7741650390625,48.62823486328125,10.0830078125,31.3873291015625
1663860981927154000,24.79415380859375,46.98638916015625,11.7401123046875,30.02166748046875
1663860981947143200,24.81414306640625,48.39630126953125,13.28277587890625,32.31658935546875
1663860981967132200,24.834132080078124,46.42181396484375,13.71917724609375,30.64117431640625
1663860981987121200,24.85412109375,46.30279541015625,15.106201171875,32.93304443359375
1663860982007140600,24.874140625,44.77081298828125,14.7979736328125,32.77740478515625
1663860982027343400,24.89434326171875,45.1995849609375,13.57574462890625,31.8572998046875
1663860982047240700,24.91424072265625,46.6827392578125,11.7431640625,30.47943115234375
1663860982067077000,24.9340771484375,48.32763671875,10.24322509765625,32.3028564453125
1663860982087066000,24.954066162109374,48.2879638671875,8.5601806640625,31.07452392578125
1663860982107055000,24.97405517578125,49.62921142578125,7.19757080078125,31.3751220703125
1663860982127044000,24.994044189453124,49.9603271484375,8.27789306640625,33.209228515625
1663860982147033000,25.014033203125,48.24981689453125,6.7626953125,34.11407470703125
1663860982167022000,25.03402197265625,48.81134033203125,4.64019775390625,34.5611572265625
1663860982187011300,25.05401123046875,46.49200439453125,3.131103515625,36.5325927734375
1663860982207000300,25.074000244140624,46.1151123046875,-0.05645751953125,37.12615966796875
1663860982226958800,25.093958740234374,46.533203125,-1.86614990234375,38.641357421875
1663860982246978300,25.113978271484374,45.8953857421875,-3.0853271484375,38.330078125
1663860982266967300,25.13396728515625,45.6329345703125,-7.94219970703125,39.21966552734375
1663860982286956300,25.153956298828124,44.549560546875,-8.697509765625,39.97802734375
1663860982306945300,25.1739453125,44.9371337890625,-11.74468994140625,39.04876708984375
1663860982326903800,25.19390380859375,43.9453125,-15.08941650390625,39.03045654296875
1663860982346923300,25.21392333984375,42.7886962890625,-19.0460205078125,38.7054443359375
1663860982366912300,25.233912353515624,43.81561279296875,-20.8587646484375,39.764404296875
1663860982386901200,25.2539013671875,40.39306640625,-23.89984130859375,40.35491943359375
1663860982406890200,25.27389013671875,38.84735107421875,-24.6826171875,38.06304931640625
1663860982426879500,25.29387939453125,37.7288818359375,-26.95770263671875,38.81378173828125
1663860982446868500,25.313868408203124,37.72125244140625,-27.27203369140625,37.744140625
1663860982466857500,25.333857421875,37.96234130859375,-30.14984130859375,38.7969970703125
1663860982486846500,25.353846435546874,37.811279296875,-30.0140380859375,36.81640625
1663860982506835500,25.37383544921875,36.46392822265625,-28.93829345703125,38.64898681640625
1663860982526824400,25.393824462890624,36.7706298828125,-28.9306640625,39.41192626953125
1663860982546813400,25.4138134765625,37.3687744140625,-29.3975830078125,38.03863525390625
1663860982566802400,25.433802490234374,38.824462890625,-25.74005126953125,38.81988525390625
1663860982586791400,25.45379150390625,37.90283203125,-26.04522705078125,38.970947265625
1663860982606780400,25.473780517578124,41.64581298828125,-22.38311767578125,39.7552490234375
1663860982626769400,25.493769287109377,40.88592529296875,-22.369384765625,41.583251953125
1663860982646758700,25.513758544921874,40.79437255859375,-19.64111328125,40.68145751953125
1663860982666747600,25.53374755859375,43.3074951171875,-16.44287109375,40.85235595703125
1663860982686736600,25.553736572265624,43.65997314453125,-14.31732177734375,40.557861328125
1663860982706725600,25.5737255859375,44.476318359375,-12.02239990234375,42.24700927734375
1663860982726714600,25.593714599609374,43.9239501953125,-9.4482421875,41.192626953125
1663860982746703600,25.61370361328125,45.98236083984375,-6.097412109375,41.51611328125
1663860982766692600,25.633692626953124,44.41070556640625,-1.40228271484375,40.01312255859375
1663860982786681600,25.653681640625,43.890380859375,2.5543212890625,40.79437255859375
1663860982806670600,25.673670654296874,43.7835693359375,4.53643798828125,41.717529296875
1663860982826659600,25.69365966796875,41.680908203125,5.902099609375,41.87469482421875
1663860982846648600,25.713648681640624,39.73236083984375,7.415771484375,41.72821044921875
1663860982866637600,25.733637451171877,40.96527099609375,7.89031982421875,43.560791015625
1663860982886626800,25.753626708984374,42.51861572265625,9.11712646484375,44.482421875
1663860982906951400,25.773951416015624,42.999267578125,10.18218994140625,44.488525390625
1663860982926879500,25.79387939453125,41.79534912109375,10.9283447265625,43.1182861328125
1663860982946654700,25.81365478515625,39.654541015625,10.62469482421875,43.72406005859375
1663860982966582800,25.833582763671874,40.118408203125,10.92071533203125,42.65899658203125
1663860982986571800,25.85357177734375,41.168212890625,10.162353515625,42.657470703125
1663860983006560800,25.873560791015624,43.43414306640625,9.25445556640625,42.50335693359375
1663860983026549800,25.8935498046875,39.61181640625,8.7890625,42.3431396484375
1663860983046538800,25.913538818359374,41.10260009765625,7.2784423828125,43.0999755859375
1663860983066527700,25.93352783203125,40.3411865234375,7.27996826171875,43.40362548828125
1663860983086516700,25.953516845703124,41.6473388671875,4.3914794921875,43.08624267578125
1663860983106505700,25.973505615234377,42.926025390625,6.98089599609375,43.4051513671875
1663860983126495000,25.993494873046874,44.84405517578125,4.10614013671875,44.4610595703125
1663860983146484000,26.01348388671875,44.23370361328125,4.0985107421875,43.6981201171875
1663860983166473000,26.033472900390624,42.510986328125,2.1148681640625,43.2281494140625
1663860983186462000,26.0534619140625,41.2445068359375,0.00762939453125,45.95947265625
1663860983206451000,26.073450927734374,40.41595458984375,-2.886962890625,45.18280029296875
1663860983226409500,26.093409423828124,41.41845703125,-5.77239990234375,45.17059326171875
1663860983246429000,26.113428955078124,40.91033935546875,-8.03985595703125,46.8353271484375
1663860983266418000,26.13341796875,39.03045654296875,-10.31494140625,47.88818359375
1663860983286407000,26.153406982421874,40.50445556640625,-12.4603271484375,45.2880859375
1663860983306396000,26.17339599609375,37.69683837890625,-15.2008056640625,45.42388916015625
1663860983326385000,26.193385009765624,38.74969482421875,-15.9454345703125,46.9451904296875
1663860983346374000,26.213373779296877,37.91961669921875,-18.84765625,45.4071044921875
1663860983366363100,26.233363037109374,37.58087158203125,-20.361328125,46.160888671875
1663860983386352000,26.25335205078125,36.0076904296875,-22.49603271484375,45.843505859375
1663860983406341000,26.273341064453124,35.82611083984375,-23.71673583984375,45.22705078125
1663860983426330000,26.293330078125,36.74468994140625,-23.56719970703125,44.7723388671875
1663860983446319000,26.313319091796874,36.53411865234375,-26.0223388671875,42.0166015625
1663860983466308000,26.33330810546875,38.7054443359375,-24.48272705078125,43.85528564453125
1663860983486297000,26.353297119140624,38.116455078125,-23.56719970703125,44.31610107421875
1663860983506286000,26.3732861328125,39.52484130859375,-21.90399169921875,43.10760498046875
1663860983526244600,26.39324462890625,39.41650390625,-19.93560791015625,42.2027587890625
1663860983546264000,26.41326416015625,40.37017822265625,-18.2586669921875,42.669677734375
1663860983566253000,26.433253173828124,39.21661376953125,-15.36712646484375,43.44329833984375
1663860983586242000,26.453241943359377,40.460205078125,-14.306640625,42.68798828125
1663860983606231300,26.473231201171874,42.034912109375,-12.03155517578125,41.7877197265625
1663860983626220300,26.49322021484375,42.718505859375,-8.83331298828125,42.413330078125
1663860983646209300,26.513209228515624,43.24493408203125,-5.79071044921875,42.5811767578125
1663860983666167800,26.533167724609374,42.29736328125,-0.604248046875,45.196533203125
1663860983686187300,26.553187255859374,42.3858642578125,3.3355712890625,43.6920166015625
1663860983706176300,26.57317626953125,42.40264892578125,4.0924072265625,43.39141845703125
1663860983726165200,26.593165283203124,42.15545654296875,6.536865234375,44.92645263671875
1663860983746154200,26.613154296875,40.228271484375,8.96759033203125,45.39337158203125
1663860983766143200,26.633143310546874,39.3646240234375,11.24114990234375,44.9462890625
1663860983786132200,26.65313232421875,39.2181396484375,11.54022216796875,44.33746337890625
1663860983806487600,26.673487548828124,36.74774169921875,10.1654052734375,44.17572021484375
1663860983826263000,26.693262939453124,38.39111328125,15.34271240234375,44.96612548828125
1663860983846099500,26.713099365234374,37.28179931640625,13.5223388671875,45.56427001953125
1663860983866088400,26.73308837890625,38.348388671875,13.50860595703125,43.73779296875
1663860983886077400,26.753077392578124,38.21868896484375,14.44091796875,46.18072509765625
1663860983906066400,26.77306640625,37.628173828125,15.338134765625,44.5068359375
1663860983926055400,26.793055419921874,39.61944580078125,15.79742431640625,44.35882568359375
1663860983946044400,26.81304443359375,38.24615478515625,15.7806396484375,42.83447265625
1663860983966033400,26.833033447265624,36.6729736328125,13.6505126953125,42.822265625
1663860983986022400,26.8530224609375,36.4959716796875,12.4542236328125,45.2545166015625
1663860984006011400,26.873011474609374,38.13934326171875,11.07330322265625,43.267822265625
1663860984025970000,26.892969970703124,38.861083984375,9.1278076171875,46.76361083984375
1663860984045989400,26.9129892578125,40.12603759765625,11.2335205078125,43.7286376953125
1663860984065978600,26.932978515625,39.60418701171875,8.35418701171875,44.93255615234375
1663860984085967600,26.952967529296874,40.95611572265625,7.4462890625,45.08209228515625
1663860984105956600,26.97295654296875,40.01312255859375,6.2286376953125,44.921875
1663860984125945600,26.992945556640624,38.62762451171875,5.62744140625,46.136474609375
1663860984145934600,27.0129345703125,39.64080810546875,3.19976806640625,46.43096923828125
1663860984165923600,27.032923583984374,40.21453857421875,1.5411376953125,47.79510498046875
1663860984185912600,27.05291259765625,39.825439453125,-2.11029052734375,47.31903076171875
1663860984205901600,27.072901611328124,40.8172607421875,-5.44891357421875,47.76153564453125
1663860984225890600,27.092890625,40.130615234375,-8.8104248046875,45.76263427734375
1663860984245879600,27.112879638671874,38.71612548828125,-10.63232421875,46.3623046875
1663860984265868500,27.13286865234375,38.98162841796875,-12.445068359375,47.57232666015625
1663860984285857500,27.152857421875,37.6983642578125,-15.19012451171875,46.64306640625
