time,seconds_elapsed,z,y,x
1663862587471078400,0.248078369140625,-2.0991220474243164,-0.704277753829956,-1.121994137763977
1663862587480996600,0.25799658203125,-2.0708465576171875,-0.13712167739868164,-1.03340482711792
1663862587490914800,0.267914794921875,-1.223393440246582,0.302962064743042,-0.7610677480697632
1663862587500772000,0.277772216796875,-0.5824031829833984,0.12211060523986816,-1.0764973163604736
1663862587510629400,0.28762939453125,-0.2906932830810547,-0.9874653816223145,-2.1322381496429443
1663862587520486400,0.297486328125,0.6436843872070312,-1.6726248264312744,-2.3458144664764404
1663862587530404600,0.307404541015625,1.248213768005371,-1.9969322681427002,-2.0482096672058105
1663862587540262000,0.317261962890625,0.6144914627075195,-2.191601037979126,-2.619626998901367
1663862587550149600,0.327149658203125,-0.4202556610107422,-1.9272897243499756,-3.081432819366455
1663862587560037000,0.337037109375,-0.8237028121948242,-0.9844887256622314,-1.4923431873321533
1663862587569924900,0.3469248046875,-1.3725357055664062,0.7894473075866699,0.8142025470733643
1663862587579812600,0.3568125,-1.785965919494629,2.5327699184417725,2.122859477996826
1663862587589670000,0.366669921875,-1.2518882751464844,2.3338887691497803,1.6709181070327759
1663862587599588000,0.376588134765625,-0.5669622421264648,0.10260939598083496,0.007873892784118652
1663862587609475600,0.3864755859375,-0.06752300262451172,-2.1768150329589844,-1.9011845588684082
1663862587619363300,0.39636328125,-1.2413578033447266,-2.170771837234497,-2.3170218467712402
1663862587629251000,0.4062509765625,-2.5949478149414062,-0.2666938304901123,0.09423691034317017
1663862587639138800,0.416138916015625,-2.5355777740478516,1.9500043392181396,1.9948691129684448
1663862587649026600,0.426026611328125,-0.9692506790161133,2.8185322284698486,1.7915781736373901
1663862587658883600,0.435883544921875,0.8655452728271484,1.4446825981140137,0.20262466371059418
1663862587668771300,0.445771240234375,0.5271978378295898,-0.730196475982666,-0.9283409714698792
1663862587678659000,0.4556591796875,-1.0439176559448242,-1.2638537883758545,-1.1966471672058105
1663862587688546800,0.465546875,-2.358017921447754,0.2354114055633545,-0.4775068759918213
1663862587698434600,0.4754345703125,-2.6089658737182617,0.9061298370361328,0.4627510607242584
1663862587708322000,0.485322021484375,-1.4029321670532227,-0.015553712844848633,0.2402649223804474
1663862587718179300,0.495179443359375,-0.9633140563964844,-1.1348659992218018,0.4109792411327362
1663862587728067000,0.505067138671875,-1.0257234573364258,-0.7127275466918945,1.410046100616455
1663862587737954800,0.514954833984375,-1.7613506317138672,-0.6052601337432861,1.8120334148406982
1663862587747842300,0.52484228515625,-1.4277963638305664,-0.9594595432281494,1.5137825012207031
1663862587757730000,0.53472998046875,-1.0286779403686523,-1.5682868957519531,1.1827925443649292
1663862587767617800,0.54461767578125,-2.268522262573242,-1.9952335357666016,0.868427038192749
1663862587777475000,0.55447509765625,-4.558821678161621,-2.6158504486083984,0.3954133987426758
1663862587787368000,0.564367919921875,-6.545642852783203,-3.9269773960113525,-0.7118014097213745
1663862587797225200,0.57422509765625,-6.924091339111328,-4.922426223754883,-0.7512545585632324
1663862587807113000,0.584113037109375,-7.174015998840332,-5.387989521026611,-0.5105462074279785
1663862587817000700,0.594000732421875,-7.002789497375488,-5.212290287017822,0.5890545845031738
1663862587826888200,0.60388818359375,-5.723860263824463,-4.283912658691406,2.153318405151367
1663862587836745500,0.613745361328125,-5.086465358734131,-3.1916422843933105,3.449063777923584
1663862587846633200,0.62363330078125,-3.1376237869262695,-3.4490625858306885,2.047640800476074
1663862587856521000,0.63352099609375,1.493821620941162,-4.319818019866943,-2.1335372924804688
1663862587866408400,0.643408447265625,5.139985084533691,-5.771057605743408,-8.390107154846191
1663862587876296200,0.653296142578125,5.122859001159668,-7.666748046875,-14.335646629333496
1663862587886184000,0.663183837890625,2.4638309478759766,-10.138772010803223,-13.84231185913086
1663862587896071700,0.67307177734375,-2.377060890197754,-11.901843070983887,-10.312454223632812
1663862587905959400,0.68295947265625,-6.620923042297363,-12.352678298950195,-6.466736316680908
1663862587915847200,0.69284716796875,-17.2034969329834,-10.861465454101562,-0.2556886672973633
1663862587925734700,0.702734619140625,-23.968643188476562,-8.013423919677734,5.561807632446289
1663862587935622400,0.712622314453125,-9.188344955444336,-7.817426681518555,1.5371546745300293
1663862587945479700,0.722479736328125,5.099438667297363,-7.46438455581665,-3.7652130126953125
1663862587955367400,0.732367431640625,5.759054660797119,-9.472840309143066,-2.976937770843506
1663862587965255000,0.7422548828125,0.24419045448303223,-12.087085723876953,0.004773139953613281
1663862587975142700,0.752142578125,0.6177806854248047,-11.320987701416016,2.0624375343322754
1663862587985030400,0.762030517578125,6.735634803771973,-8.033796310424805,5.070903778076172
1663862587994887700,0.7718876953125,8.798128128051758,-5.570741653442383,8.37469482421875
1663862588004775200,0.781775146484375,7.287114143371582,-4.394481658935547,10.554951667785645
1663862588014663000,0.791662841796875,5.670892715454102,-3.873896837234497,11.26901912689209
1663862588024550700,0.801550537109375,5.881378173828125,-2.8964169025421143,11.50406551361084
1663862588034438400,0.8114384765625,5.809750556945801,-2.168944835662842,12.847299575805664
1663862588044326100,0.821326171875,4.790502548217773,0.025294780731201172,16.316635131835938
1663862588054183200,0.83118310546875,3.095533847808838,3.8824405670166016,20.38843536376953
1663862588064071000,0.84107080078125,1.9328479766845703,6.697439670562744,22.82267189025879
1663862588073958700,0.850958740234375,2.4966371059417725,8.107934951782227,23.94470977783203
1663862588083846400,0.860846435546875,2.6958351135253906,9.473018646240234,23.914894104003906
1663862588093734000,0.87073388671875,0.7320065498352051,10.237548828125,22.21002769470215
1663862588103591200,0.880591064453125,-2.6268301010131836,10.757026672363281,19.775550842285156
1663862588113479000,0.89047900390625,-6.068071365356445,11.568137168884277,17.51419448852539
1663862588123366700,0.90036669921875,-9.658010482788086,11.701140403747559,14.750080108642578
1663862588133254100,0.910254150390625,-11.52556324005127,10.593667984008789,10.812135696411133
1663862588143142000,0.920141845703125,-11.629438400268555,8.802631378173828,7.642943382263184
1663862588153029600,0.930029541015625,-9.533315658569336,7.436917304992676,5.4490461349487305
1663862588162887000,0.939886962890625,-7.844454765319824,5.649714946746826,2.296809196472168
1663862588172774700,0.949774658203125,-9.99314022064209,1.7025372982025146,-3.455803871154785
1663862588182662100,0.959662109375,-14.428234100341797,-3.429565906524658,-9.419637680053711
1663862588192519400,0.96951953125,-13.238615989685059,-4.1877241134643555,-6.836408615112305
1663862588202407200,0.9794072265625,-9.244224548339844,-3.2894513607025146,-0.8120870590209961
1663862588212295000,0.989294921875,-7.705571174621582,-1.7755191326141357,0.7010488510131836
1663862588222182400,0.999182373046875,-6.497287273406982,-0.38937973976135254,0.7122812271118164
1663862588232070100,1.009070068359375,-10.827594757080078,1.13106107711792,-1.4149494171142578
1663862588241958000,1.0189580078125,-11.71440601348877,6.006473541259766,-6.822445869445801
1663862588251845600,1.028845703125,-3.987527370452881,0.9858136177062988,-5.529394149780273
1663862588261733400,1.0387333984375,14.197071075439453,-0.8179631233215332,0.7512063980102539
1663862588271620900,1.048620849609375,27.776945114135742,4.394254684448242,9.612398147583008
1663862588281478100,1.05847802734375,17.704519271850586,3.245309829711914,14.023388862609863
1663862588291366000,1.068365966796875,4.142233371734619,4.578126907348633,7.24237060546875
1663862588301253600,1.078253662109375,-4.642085075378418,3.993190288543701,3.5563669204711914
1663862588311141000,1.08814111328125,-6.450497627258301,3.237750291824341,4.38425350189209
1663862588321028900,1.09802880859375,-3.6261916160583496,1.8640499114990234,4.500664710998535
1663862588330886100,1.10788623046875,-2.6424601078033447,-0.5868990421295166,-0.9063243865966797
1663862588340743200,1.1177431640625,-3.7667360305786133,-3.1892478466033936,-9.10233211517334
1663862588350631000,1.127630859375,3.3493869304656982,-10.31824779510498,-17.307132720947266
1663862588360518700,1.1375185546875,1.7551099061965942,-9.800619125366211,-16.906471252441406
1663862588370376000,1.1473759765625,-3.730774164199829,-8.315983772277832,-13.367977142333984
1663862588380263400,1.157263427734375,-5.855081558227539,-12.34192943572998,-10.96518325805664
1663862588390151200,1.167151123046875,-5.019922256469727,-12.994771957397461,-6.195381164550781
1663862588400039000,1.177038818359375,-1.8833098411560059,-11.203075408935547,1.9279518127441406
1663862588409926700,1.1869267578125,-0.4974280297756195,-9.622417449951172,8.243612289428711
1663862588419783700,1.19678369140625,2.697265148162842,-7.3036909103393555,12.39259147644043
1663862588429671400,1.20667138671875,-0.7791290283203125,-1.3167009353637695,13.86592960357666
1663862588439589600,1.216589599609375,-3.3951504230499268,0.9832625389099121,6.823951244354248
1663862588449477400,1.226477294921875,1.5052627325057983,-1.8547453880310059,-1.0427970886230469
1663862588459365000,1.236365234375,5.475465297698975,-2.5289225578308105,-2.2902350425720215
1663862588469222400,1.246222412109375,1.0304430723190308,-1.429060935974121,-1.1115403175354004
1663862588479079400,1.256079345703125,-7.248388290405273,0.7333879470825195,2.476393699645996
1663862588488967200,1.26596728515625,-8.074077606201172,0.30500316619873047,4.7607550621032715
1663862588498855000,1.27585498046875,3.3367927074432373,-4.119535446166992,-1.288604736328125
1663862588508742700,1.28574267578125,3.0817928314208984,-2.3650169372558594,-3.7053322792053223
1663862588518630100,1.295630126953125,-0.20114022493362427,-0.374575138092041,-3.0175085067749023
1663862588528518000,1.305517822265625,-4.649318218231201,1.3026585578918457,2.569918632507324
1663862588538405600,1.315405517578125,-0.7356470227241516,1.7555150985717773,5.595630168914795
1663862588548293400,1.32529345703125,0.9545679688453674,2.8057007789611816,0.2608036994934082
1663862588558181000,1.33518115234375,-0.2455996870994568,0.8925662040710449,-1.4353041648864746
1663862588568068600,1.345068603515625,0.32592666149139404,-0.8703470230102539,-1.039928913116455
1663862588577956400,1.354956298828125,1.792394995689392,-1.5758581161499023,-1.0027389526367188
1663862588587844000,1.364843994140625,3.1425018310546875,-1.1934618949890137,0.06822776794433594
1663862588597701400,1.374701416015625,1.9383114576339722,0.9549407958984375,0.5624375343322754
1663862588607558400,1.384558349609375,0.49279308319091797,3.918137550354004,3.475313663482666
1663862588617446100,1.394446044921875,-1.0105184316635132,6.215920448303223,3.2727952003479004
1663862588627334000,1.404333984375,0.508102536201477,3.473935127258301,-0.662635326385498
1663862588637221600,1.4142216796875,2.2108888626098633,0.5190744400024414,-1.91064453125
1663862588647109000,1.424109130859375,0.6136261224746704,0.5306820869445801,-1.654923915863037
1663862588656996900,1.433996826171875,-0.21692824363708496,0.7657923698425293,-3.560398578643799
1663862588666884600,1.443884521484375,1.8517554998397827,-0.426145076751709,-6.539103984832764
1663862588676742000,1.453741943359375,-0.5563344955444336,-0.44991540908813477,-5.837401390075684
1663862588686629600,1.463629638671875,-0.6004866361618042,0.8664932250976562,-4.408995151519775
1663862588696517000,1.47351708984375,-1.798668384552002,-0.04530048370361328,-2.8489904403686523
1663862588706404900,1.48340478515625,-1.699851393699646,-0.301943302154541,-1.770399570465088
1663862588716292600,1.493292724609375,-2.816183090209961,0.6212377548217773,-1.624748706817627
1663862588726180400,1.503180419921875,-8.73971939086914,3.115598678588867,0.23358964920043945
1663862588736068000,1.513068115234375,-0.6393083333969116,5.298285484313965,0.8580503463745117
1663862588745955600,1.52295556640625,6.770289897918701,2.973756790161133,-1.1205310821533203
1663862588755843300,1.53284326171875,2.58626651763916,0.14869976043701172,-1.9119467735290527
1663862588765731000,1.54273095703125,-0.13573122024536133,-1.9638853073120117,-3.4536097049713135
1663862588775618800,1.552618896484375,1.3780276775360107,-4.5544843673706055,-5.663750648498535
1663862588785475800,1.562475830078125,0.9235754013061523,-6.165520668029785,-7.156394004821777
1663862588795363600,1.572363525390625,-0.21360993385314941,-3.087007522583008,-2.9822280406951904
1663862588805251300,1.582251220703125,-2.2586469650268555,2.0992536544799805,1.5234564542770386
1663862588815139000,1.59213916015625,-1.8836004734039307,0.632929801940918,1.0817357301712036
1663862588825026800,1.60202685546875,0.828453540802002,-4.53476619720459,-1.563253402709961
1663862588834914300,1.611914306640625,-0.10439586639404297,-2.863370895385742,-0.47815173864364624
1663862588844771600,1.621771484375,0.32672619819641113,0.7945184707641602,1.4348385334014893
1663862588854659300,1.631659423828125,0.22306883335113525,5.5585527420043945,1.4980690479278564
1663862588864547000,1.641547119140625,0.37177300453186035,6.4997406005859375,0.22235313057899475
1663862588874434600,1.6514345703125,-0.41191232204437256,-1.7289705276489258,-1.226273536682129
1663862588884322300,1.661322265625,0.011630475521087646,-17.78128433227539,-2.5956265926361084
1663862588894179600,1.6711796875,-1.5189282894134521,-20.05038833618164,0.7485255599021912
1663862588904067300,1.6810673828125,-3.1727054119110107,-10.724660873413086,6.765594959259033
1663862588913955000,1.690955078125,-3.4381651878356934,-6.577309608459473,5.9844746589660645
1663862588923842600,1.700842529296875,-2.933584213256836,-5.451193809509277,2.1149191856384277
1663862588933730300,1.710730224609375,-3.148747444152832,-4.857484817504883,-0.925945520401001
1663862588943618000,1.7206181640625,-1.7904086112976074,-3.76981258392334,-2.901841163635254
1663862588953475300,1.730475341796875,0.14615900814533234,-2.3992319107055664,-3.068955659866333
1663862588963362800,1.74036279296875,0.11975058168172836,-2.075688362121582,-2.852933883666992
1663862588973220000,1.75022021484375,-0.6370376348495483,-2.6313419342041016,-2.81520938873291
1663862588983077400,1.760077392578125,-1.699911117553711,-3.581160545349121,-2.595539093017578
1663862588992995600,1.76999560546875,-2.7511181831359863,-3.5604982376098633,-2.3604865074157715
1663862589002883000,1.779883056640625,-3.0603671073913574,-3.328371047973633,-2.163349151611328
1663862589012770800,1.789770751953125,-3.2314209938049316,-3.1013498306274414,-1.961820363998413
1663862589022658600,1.799658447265625,-3.3112964630126953,-3.357175827026367,-1.9815140962600708
1663862589032546300,1.80954638671875,-2.527657985687256,-3.6189489364624023,-2.1272010803222656
1663862589042434000,1.81943408203125,-1.4164221286773682,-1.368703842163086,-1.5244029760360718
1663862589052321500,1.829321533203125,-0.4983605146408081,1.0702400207519531,-3.4382262229919434
1663862589062178800,1.8391787109375,-0.6779484748840332,1.783015251159668,-5.0473151206970215
1663862589072066600,1.849066650390625,-1.1197500228881836,2.490694046020508,-3.985835552215576
1663862589081954300,1.858954345703125,-1.8467745780944824,1.7276887893676758,-3.127474308013916
1663862589091841800,1.868841796875,-2.5794765949249268,0.4206581115722656,-2.239607810974121
1663862589101729500,1.8787294921875,-2.47045636177063,-0.5238981246948242,-1.274177074432373
1663862589111586800,1.8885869140625,-3.5808565616607666,-1.5276727676391602,-0.879962682723999
1663862589121474600,1.898474609375,-3.7771339416503906,-2.3234996795654297,-0.31770646572113037
1663862589131331600,1.90833154296875,-2.912485361099243,-3.2559080123901367,-0.026176929473876953
1663862589141219300,1.91821923828125,-2.5308117866516113,-4.224782943725586,0.6920168399810791
1663862589151107000,1.928107177734375,-2.6832196712493896,-4.970160484313965,1.398451805114746
1663862589160994800,1.937994873046875,-2.725470542907715,-4.858689308166504,1.4809672832489014
1663862589170882600,1.947882568359375,-1.577474594116211,-4.670497894287109,1.2517647743225098
1663862589180770000,1.95777001953125,-1.218043327331543,-4.560947418212891,0.7586538791656494
1663862589190657800,1.96765771484375,-0.7702054977416992,-4.209466934204102,0.13420987129211426
1663862589200515000,1.97751513671875,1.207845687866211,-3.8488693237304688,0.14134693145751953
1663862589210402800,1.98740283203125,4.177921295166016,-3.021617889404297,1.0400888919830322
1663862589220290300,1.997290283203125,5.091883659362793,-1.8169989585876465,1.8162126541137695
1663862589230178000,2.007177978515625,4.097474098205566,-0.6807394027709961,2.9484431743621826
1663862589240035300,2.017035400390625,1.8135366439819336,-0.017557144165039062,2.8091351985931396
1663862589249923000,2.026923095703125,0.29936647415161133,0.6940889358520508,1.7177603244781494
1663862589259810600,2.036810546875,-0.9112210273742676,1.5288581848144531,0.23575353622436523
1663862589269698300,2.0466982421875,-1.2950634956359863,1.2281904220581055,-1.2387571334838867
1663862589279555600,2.0565556640625,0.605926513671875,1.0526800155639648,-1.2368953227996826
1663862589289443300,2.066443359375,2.0979604721069336,1.308053970336914,-0.7852616310119629
1663862589299300400,2.07630029296875,2.302781105041504,1.4319429397583008,-0.3337726593017578
1663862589309218600,2.086218505859375,2.379861354827881,1.8874964714050293,0.29634618759155273
1663862589319075800,2.096075927734375,2.383131504058838,2.5541787147521973,0.6462578773498535
1663862589328994000,2.105994140625,2.1249942779541016,2.9519805908203125,0.9432997703552246
1663862589338881800,2.1158818359375,1.9969301223754883,2.97772216796875,1.1283059120178223
1663862589348769300,2.125769287109375,2.1046857833862305,2.508808135986328,1.221524715423584
1663862589358626600,2.13562646484375,2.555880546569824,1.9940214157104492,1.1650304794311523
1663862589368514300,2.145514404296875,2.8963217735290527,1.8725671768188477,1.276921272277832
1663862589378402000,2.155402099609375,2.944347381591797,1.9673361778259277,1.452059268951416
1663862589388259000,2.165259033203125,2.7768826484680176,2.3054604530334473,1.7998948097229004
1663862589398177300,2.17517724609375,2.5952210426330566,2.7413439750671387,2.112643241882324
1663862589408065000,2.18506494140625,2.317286491394043,3.338707447052002,2.5671167373657227
1663862589417922300,2.19492236328125,1.7791728973388672,3.873100757598877,2.53794527053833
1663862589427779300,2.204779296875,1.0811643600463867,4.353509902954102,2.2984418869018555
1663862589437667000,2.2146669921875,0.5176711082458496,4.209156036376953,1.920577049255371
1663862589447554800,2.224554931640625,0.21610355377197266,4.0399861335754395,1.871419906616211
1663862589457442600,2.234442626953125,-0.3659186363220215,4.061492443084717,2.11527681350708
1663862589467330300,2.244330322265625,-1.1604647636413574,4.043516635894775,2.129176139831543
1663862589477217800,2.2542177734375,-1.2385687828063965,3.989856243133545,1.6718945503234863
1663862589487105500,2.26410546875,-0.2105875015258789,3.955596923828125,0.9496293067932129
1663862589496993300,2.2739931640625,1.1406512260437012,3.8545713424682617,0.22940778732299805
1663862589506850600,2.2838505859375,1.3578133583068848,3.6104202270507812,-0.2336726188659668
1663862589516738000,2.293738037109375,-1.4578700065612793,1.9059152603149414,-1.2320470809936523
1663862589526595300,2.30359521484375,-3.7766427993774414,-1.9344544410705566,-3.0247859954833984
1663862589536513500,2.313513427734375,-5.936214923858643,-6.427030086517334,-3.7720072269439697
1663862589546401300,2.3234013671875,-13.319639205932617,-10.844778060913086,-3.4630110263824463
1663862589556289000,2.3332890625,-5.022584915161133,-15.082149505615234,-0.2243208885192871
1663862589566176500,2.343176513671875,7.361917018890381,-16.190563201904297,2.246914863586426
1663862589576064300,2.353064208984375,0.3896670341491699,-11.550610542297363,2.354247570037842
1663862589585952000,2.362951904296875,-3.193905830383301,-6.204891681671143,0.5199122428894043
1663862589595839700,2.37283984375,-0.2983121871948242,-2.5598230361938477,-0.01609492301940918
1663862589605727500,2.3827275390625,2.5527873039245605,0.0999898910522461,1.0243396759033203
1663862589615615200,2.392615234375,2.3384571075439453,1.3690695762634277,2.17710018157959
1663862589625472300,2.40247216796875,1.083590030670166,0.5567750930786133,1.7854869365692139
1663862589635360000,2.412360107421875,1.2791986465454102,-1.087411880493164,0.7119960784912109
1663862589645247700,2.422247802734375,2.4837799072265625,-2.464109420776367,0.30937862396240234
1663862589655135500,2.432135498046875,3.4837241172790527,-3.6510238647460938,0.13047289848327637
1663862589664992500,2.441992431640625,2.823610305786133,-4.708471298217773,-0.44885122776031494
1663862589674880300,2.45188037109375,1.444434642791748,-5.452795028686523,-1.1287251710891724
1663862589684737500,2.461737548828125,1.148932933807373,-5.787846565246582,-1.8348922729492188
1663862589694594600,2.471594482421875,1.2931246757507324,-5.75930118560791,-2.2344326972961426
1663862589704512800,2.4815126953125,1.4487266540527344,-5.531735420227051,-2.69258975982666
1663862589714400500,2.491400390625,1.6085045337677002,-4.807744026184082,-2.7792611122131348
1663862589724288300,2.501288330078125,1.3402366638183594,-3.6248273849487305,-2.4855480194091797
1663862589734176000,2.511176025390625,0.6967172622680664,-2.3060827255249023,-1.862347960472107
1663862589744063500,2.5210634765625,0.35808253288269043,-1.0410823822021484,-1.1191366910934448
1663862589753951200,2.530951171875,0.6989040374755859,-0.043076515197753906,-0.9853570461273193
1663862589763839000,2.5408388671875,0.9258379936218262,0.7991733551025391,-0.8146050572395325
1663862589773696300,2.5506962890625,0.863800048828125,1.3331212997436523,-0.5743342638015747
1663862589783583700,2.560583740234375,0.37114882469177246,1.4917221069335938,-0.5576286315917969
1663862589793441000,2.57044091796875,-0.21833419799804688,1.5548229217529297,-0.4912324547767639
1663862589803328800,2.580328857421875,-0.5112388134002686,1.5178546905517578,-0.25292688608169556
1663862589813185800,2.590185791015625,-0.5369658470153809,1.4288005828857422,0.2826286554336548
1663862589823104000,2.60010400390625,-0.4684634208679199,1.2365970611572266,0.954440176486969
1663862589832991700,2.60999169921875,-0.76662278175354,1.1785736083984375,1.7352640628814697
1663862589842879500,2.61987939453125,-1.114866852760315,1.3368072509765625,2.411591053009033
1663862589852767200,2.629767333984375,-0.944900631904602,1.6476058959960938,2.9426429271698
1663862589862655000,2.639655029296875,-0.4388686418533325,2.0423965454101562,3.121941566467285
1663862589872542700,2.649542724609375,-0.15234720706939697,2.3930788040161133,3.0440735816955566
1663862589882430200,2.65943017578125,-0.5921239852905273,2.540925979614258,2.9263205528259277
1663862589892318000,2.66931787109375,-0.9040209054946899,2.391416549682617,2.8923592567443848
1663862589902175200,2.67917529296875,-1.1578432321548462,2.140353202819824,2.621777057647705
1663862589912063000,2.68906298828125,-1.1629769802093506,2.0327367782592773,2.0885260105133057
1663862589921950500,2.698950439453125,-1.5476574897766113,1.9905986785888672,1.4167470932006836
1663862589931838200,2.708838134765625,-2.4011566638946533,1.9030981063842773,0.7393785715103149
1663862589941726000,2.718725830078125,-3.0920286178588867,1.5960302352905273,0.1221308708190918
1663862589951613700,2.72861376953125,-3.2500953674316406,1.113393783569336,-0.3455590009689331
1663862589961470700,2.738470703125,-3.1136651039123535,0.6852970123291016,-0.6420093774795532
1663862589971358500,2.7483583984375,-3.185098886489868,0.4027109146118164,-0.48038730025291443
1663862589981246200,2.75824609375,-3.3565194606781006,0.11047077178955078,-0.6517540216445923
1663862589991134000,2.768134033203125,-3.5592942237854004,0.04472827911376953,-0.7851791381835938
1663862590001021700,2.778021728515625,-3.6638059616088867,0.056827545166015625,-0.7148480415344238
1663862590010909200,2.7879091796875,-3.232116937637329,-0.14913272857666016,-0.916320264339447
1663862590020766500,2.797766357421875,-2.5779170989990234,-0.7392063140869141,-1.1345946788787842
1663862590030654200,2.807654296875,-2.401641368865967,-1.728703498840332,-1.350183367729187
1663862590040542000,2.8175419921875,-2.5125865936279297,-2.8896665573120117,-1.763946533203125
1663862590050429400,2.827429443359375,-2.5739712715148926,-4.044891357421875,-2.4330527782440186
1663862590060317200,2.837317138671875,-2.650193691253662,-5.404086112976074,-2.995986223220825
1663862590070174500,2.847174560546875,-2.767726182937622,-6.947223663330078,-3.1767048835754395
1663862590080062200,2.857062255859375,-2.944070339202881,-8.0103120803833,-2.585831880569458
1663862590089949700,2.86694970703125,-2.9915003776550293,-8.320247650146484,-1.4009263515472412
1663862590099807000,2.876806884765625,-2.6847758293151855,-7.84100341796875,-0.20522987842559814
1663862590109694700,2.88669482421875,-1.9296594858169556,-7.450745582580566,0.6182153224945068
1663862590119552000,2.896552001953125,-1.2742682695388794,-7.35462760925293,0.7599607706069946
1663862590129470200,2.90647021484375,-1.310586929321289,-6.717398643493652,0.4000796675682068
1663862590139357700,2.916357666015625,-2.20863676071167,-5.7496795654296875,-0.0766371488571167
1663862590149245400,2.926245361328125,-4.116663932800293,-4.769052505493164,-0.4914339780807495
1663862590159102700,2.936102783203125,-6.500934600830078,-4.395852088928223,-0.7340981960296631
1663862590168959700,2.945959716796875,-9.2719087600708,-4.691916465759277,-0.526093065738678
1663862590178847500,2.955847412109375,-11.658397674560547,-5.542634010314941,-0.28501737117767334
1663862590188735200,2.9657353515625,-12.124916076660156,-6.4998321533203125,-0.12370038032531738
1663862590198623000,2.975623046875,-9.800853729248047,-6.814325332641602,0.4987945556640625
1663862590208510700,2.9855107421875,-5.06459379196167,-6.785628318786621,1.0905896425247192
1663862590218398200,2.995398193359375,0.5745058059692383,-6.279414176940918,2.7904365062713623
1663862590228286000,3.005285888671875,5.697216987609863,-5.161571502685547,6.257245063781738
1663862590238173700,3.015173583984375,8.293749809265137,-4.569287300109863,8.599668502807617
1663862590248061400,3.0250615234375,6.00250768661499,-5.032251358032227,7.387507438659668
1663862590257949200,3.03494921875,1.675729751586914,-5.876909255981445,3.794361114501953
1663862590277694000,3.05469384765625,1.7125310897827148,-5.325187683105469,0.24330377578735352
1663862590287551200,3.06455126953125,4.822332382202148,-4.45667839050293,-0.7947311401367188
1663862590297438700,3.074438720703125,7.0598320960998535,-3.2599973678588867,-0.91545569896698
1663862590307326500,3.084326416015625,6.963217258453369,-2.6143007278442383,-0.79866623878479
1663862590317214200,3.094214111328125,5.416316509246826,-2.070314407348633,-0.37459588050842285
1663862590327102000,3.10410205078125,4.128050804138184,-1.494032859802246,-0.03504228591918945
1663862590336959000,3.113958984375,2.662630081176758,-0.6790428161621094,0.6740515232086182
1663862590346846700,3.1238466796875,3.3343887329101562,0.1078648567199707,0.2011120319366455
1663862590356734500,3.133734375,4.4901123046875,1.5389838218688965,-0.7328214645385742
1663862590366622200,3.143622314453125,5.317131519317627,4.34644889831543,-1.6361653804779053
1663862590376479500,3.1534794921875,5.274691104888916,8.023675918579102,-2.223862886428833
1663862590386367000,3.163366943359375,4.895719051361084,9.197904586791992,-2.168571710586548
1663862590396254700,3.173254638671875,5.002897262573242,7.17788553237915,-1.1987004280090332
1663862590406142500,3.183142578125,5.315235137939453,4.9768967628479,1.2127056121826172
1663862590416030200,3.1930302734375,5.425137519836426,3.3395791053771973,3.4738452434539795
1663862590425887200,3.20288720703125,5.622273921966553,2.396627902984619,4.75089168548584
1663862590435775000,3.21277490234375,6.3498334884643555,2.0917253494262695,5.3124871253967285
1663862590445662700,3.222662841796875,6.893437385559082,2.282163143157959,5.181778907775879
1663862590455550500,3.232550537109375,6.887377738952637,2.7462716102600098,4.067348480224609
1663862590465438200,3.242438232421875,6.925202369689941,3.4042420387268066,3.1116833686828613
1663862590475295200,3.252295166015625,6.880473613739014,3.306391716003418,3.2320704460144043
1663862590485183000,3.262182861328125,6.816464424133301,3.2494912147521973,3.3378210067749023
1663862590495070700,3.27207080078125,6.7335286140441895,3.2406063079833984,3.4231185913085938
1663862590504958500,3.28195849609375,6.635804653167725,3.277998924255371,3.483673095703125
1663862590514846000,3.291845947265625,6.536921977996826,3.3508753776550293,3.5085434913635254
1663862590524733700,3.301733642578125,1.8769536018371582,5.9716715812683105,3.766146659851074
1663862590534621400,3.311621337890625,0.8466720581054688,5.212642192840576,2.704725742340088
1663862590544509200,3.32150927734375,0.6767959594726562,4.508242607116699,1.5513057708740234
1663862590554397000,3.33139697265625,1.6326918601989746,4.049833297729492,0.6351404190063477
1663862590564254000,3.34125390625,4.147345066070557,3.667642116546631,0.2645988464355469
1663862590574141700,3.3511416015625,6.325104713439941,3.060183525085449,0.7077198028564453
1663862590584029400,3.361029541015625,6.748742580413818,1.8756394386291504,1.1724438667297363
1663862590593886500,3.370886474609375,1.9096107482910156,0.10368967056274414,0.5016121864318848
1663862590603774200,3.380774169921875,-8.600912094116211,-2.9792375564575195,-2.3054444789886475
1663862590613692400,3.3906923828125,-21.636123657226562,-8.140863418579102,-3.194732904434204
1663862590623549700,3.4005498046875,-12.721922874450684,-13.910009384155273,-0.9957587718963623
1663862590633468000,3.410468017578125,12.976472854614258,-17.75719451904297,1.7210042476654053
1663862590643355600,3.420355712890625,4.284451484680176,-17.733200073242188,0.2029428482055664
1663862590653243400,3.430243408203125,-9.05600357055664,-12.036962509155273,-1.78336501121521
1663862590663131000,3.440130859375,-2.426959991455078,-4.491883754730225,1.0600049495697021
1663862590672988200,3.44998828125,5.8034820556640625,-0.8371853828430176,1.6252648830413818
1663862590682876000,3.4598759765625,3.290022850036621,1.8736968040466309,1.2902748584747314
1663862590692763600,3.469763671875,-0.31037187576293945,4.032267093658447,1.593987226486206
1663862590702651100,3.479651123046875,-0.752131462097168,3.7646055221557617,1.057786226272583
1663862590712539000,3.489538818359375,0.5566463470458984,1.6584787368774414,0.24469661712646484
1663862590722426600,3.499426513671875,1.9730467796325684,-0.04044914245605469,0.3116629123687744
1663862590732284000,3.509283935546875,2.6675448417663574,-1.2322368621826172,0.321331262588501
1663862590742171400,3.51917138671875,2.8259010314941406,-2.6752700805664062,-0.2035837173461914
1663862590752059100,3.52905908203125,2.924612045288086,-4.547567367553711,-1.0806034803390503
1663862590761947000,3.53894677734375,2.2314181327819824,-6.509608268737793,-1.240098237991333
1663862590771834600,3.548834716796875,1.1828904151916504,-8.126497268676758,-0.733333945274353
1663862590781722400,3.558722412109375,0.29859018325805664,-8.991507530212402,0.15111470222473145
1663862590791609900,3.56860986328125,-0.7998051643371582,-8.640846252441406,1.121192216873169
1663862590801467100,3.578467041015625,-1.377392292022705,-6.9275360107421875,1.3554531335830688
1663862590811355000,3.58835498046875,-0.8729941844940186,-4.408621788024902,0.875941276550293
1663862590821242600,3.59824267578125,-0.49787354469299316,-1.946824073791504,0.4917447566986084
1663862590831130400,3.60813037109375,0.24019145965576172,-0.09015846252441406,-0.06374943256378174
1663862590841017900,3.618017822265625,0.6039233207702637,1.3539009094238281,-0.6032450199127197
1663862590850905600,3.627905517578125,0.2483067512512207,2.3055648803710938,-0.7720633745193481
1663862590860793300,3.63779345703125,-0.49046850204467773,2.7583799362182617,-1.067336082458496
1663862590870650600,3.647650634765625,-0.9421758651733398,2.7739744186401367,-1.51614511013031
1663862590880538000,3.6575380859375,-0.9750754833221436,2.5552101135253906,-1.253618597984314
1663862590890425900,3.66742578125,-0.8137099742889404,2.315178871154785,-0.1423494815826416
1663862590900313600,3.677313720703125,-0.28545665740966797,1.9199600219726562,1.1499786376953125
1663862590910201300,3.687201416015625,-0.09243607521057129,1.5207080841064453,1.9797385931015015
1663862590920058400,3.697058349609375,-0.3738057613372803,1.3455171585083008,2.5542805194854736
1663862590929946000,3.706946044921875,-0.9973388910293579,1.6112146377563477,2.6152255535125732
1663862590939833900,3.716833740234375,-1.4344276189804077,2.0672407150268555,2.3004844188690186
1663862590949721600,3.7267216796875,-1.0394631624221802,2.4688901901245117,1.9672811031341553
1663862590959609300,3.736609375,-0.2935025095939636,2.859771728515625,1.7060884237289429
1663862590969496800,3.746496826171875,-0.2085300087928772,3.2071828842163086,1.4582014083862305
1663862590979354000,3.75635400390625,-0.5750501155853271,3.380136489868164,1.1819133758544922
1663862590989241900,3.766241943359375,-0.9401071071624756,3.3648719787597656,0.8008266687393188
1663862590999099000,3.776098876953125,-1.553379774093628,3.09246826171875,0.4428141117095947
1663862591008986600,3.785986572265625,-2.4966351985931396,2.678365707397461,0.06525838375091553
1663862591018874400,3.795874267578125,-3.35201096534729,2.29953670501709,-0.3214881420135498
1663862591028762000,3.80576220703125,-4.077883243560791,2.0296220779418945,-0.6220275163650513
1663862591038619100,3.815619140625,-4.988448619842529,1.8225250244140625,-0.6759762763977051
1663862591048507000,3.8255068359375,-5.612386226654053,1.5443592071533203,-0.3172416687011719
1663862591058364200,3.8353642578125,-5.592719078063965,1.1025323867797852,-0.09178388118743896
1663862591068282400,3.845282470703125,-5.262495994567871,0.5405187606811523,0.17659872770309448
1663862591078170000,3.855170166015625,-4.416845321655273,-0.10276985168457031,0.1886279582977295
1663862591088057900,3.865057861328125,-3.395397424697876,-0.6024160385131836,-0.023782551288604736
1663862591097915000,3.874914794921875,-2.665757656097412,-1.0395393371582031,-0.2426113486289978
1663862591107802600,3.884802734375,-2.41322660446167,-1.6453285217285156,-0.6139645576477051
1663862591117660000,3.894659912109375,-2.308457851409912,-2.29709529876709,-1.1653308868408203
1663862591127578000,3.904578125,-1.9927051067352295,-3.128114700317383,-1.7247298955917358
1663862591137465600,3.914465576171875,-1.4142948389053345,-4.631864547729492,-2.2322750091552734
1663862591147353300,3.924353271484375,-1.1318422555923462,-6.907227516174316,-2.3244194984436035
1663862591157241000,3.934240966796875,-1.4421554803848267,-8.49123764038086,-1.4932228326797485
1663862591167128800,3.94412890625,-2.085465669631958,-8.324746131896973,-0.0503731369972229
1663862591177016600,3.9540166015625,-2.726076364517212,-7.626360893249512,0.8037452697753906
1663862591186873600,3.96387353515625,-3.109484910964966,-7.8178558349609375,1.1792148351669312
1663862591196761300,3.97376123046875,-3.224491596221924,-8.030455589294434,1.6270723342895508
1663862591206649000,3.983649169921875,-2.875119209289551,-7.526923179626465,1.8935528993606567
1663862591216536800,3.993536865234375,-2.5539727210998535,-6.092704772949219,1.3440351486206055
1663862591226424300,4.00342431640625,-3.2564926147460938,-4.68654727935791,0.254724383354187
1663862591236312000,4.01331201171875,-4.663544178009033,-4.279423713684082,-0.7417196035385132
1663862591246199800,4.02319970703125,-5.983480453491211,-4.367818832397461,-1.3801374435424805
1663862591256087600,4.033087646484375,-7.087891101837158,-4.495746612548828,-1.444162130355835
1663862591265944600,4.042944580078125,-7.7240824699401855,-4.867863655090332,-1.2843981981277466
1663862591275801900,4.0528017578125,-7.64322566986084,-5.036948204040527,-1.4831660985946655
1663862591285689600,4.062689697265625,-7.006381034851074,-4.782804489135742,-1.095579743385315
1663862591295577300,4.072577392578125,-4.643129348754883,-4.846996307373047,0.36310791969299316
1663862591305464800,4.08246484375,-0.584524393081665,-5.262877464294434,3.261131525039673
1663862591315352600,4.0923525390625,3.8942642211914062,-5.301909446716309,7.522513389587402
1663862591325240300,4.102240234375,6.449655532836914,-5.4921369552612305,11.656584739685059
1663862591335128000,4.112128173828125,6.302130699157715,-6.324328422546387,12.994600296020508
1663862591345015800,4.122015869140625,5.241324424743652,-7.0135040283203125,11.05302619934082
1663862591354903600,4.131903564453125,3.415477752685547,-6.452569007873535,7.722140789031982
1663862591364791000,4.141791015625,1.7989494800567627,-5.209575653076172,5.397550582885742
1663862591374617900,4.151617919921875,1.4867191314697266,-4.662464141845703,3.247924327850342
1663862591384505600,4.161505615234375,1.6307687759399414,-4.466320991516113,0.3485896587371826
1663862591394362600,4.171362548828125,1.2833881378173828,-3.701791763305664,-1.8742482662200928
1663862591404280800,4.18128076171875,2.8218932151794434,-2.252873420715332,-2.1081600189208984
1663862591414168600,4.19116845703125,6.3703107833862305,-0.3564949035644531,-1.9014567136764526
1663862591424056300,4.201056396484375,7.996369361877441,1.3878870010375977,-2.542300224304199
1663862591433944000,4.210944091796875,7.2685465812683105,1.7721452713012695,-3.0987441539764404
1663862591443831600,4.22083154296875,5.835296154022217,0.8013420104980469,-3.2616629600524902
1663862591453719300,4.23071923828125,3.6845993995666504,-0.1261157989501953,-2.531911611557007
1663862591463576600,4.24057666015625,2.9555563926696777,-0.3747844696044922,-1.2020061016082764
1663862591473464300,4.25046435546875,4.299123287200928,0.255434513092041,-0.3799886703491211
1663862591483321300,4.2603212890625,5.694690227508545,1.7649650573730469,-0.1983661651611328
1663862591493209000,4.270208984375,6.262267589569092,3.952065944671631,-0.312103271484375
1663862591503096800,4.280096923828125,5.740626811981201,6.0763163566589355,-0.37740612030029297
1663862591512984600,4.289984619140625,5.260148525238037,7.193748950958252,-0.2715022563934326
1663862591522872000,4.2998720703125,5.0112996101379395,6.708658695220947,0.07563209533691406
1663862591532759800,4.309759765625,4.738724231719971,5.301924705505371,0.8147678375244141
1663862591542647600,4.3196474609375,4.674805641174316,3.955000877380371,2.004066228866577
1663862591552535300,4.329535400390625,4.764060020446777,2.9139089584350586,2.8047139644622803
1663862591562423000,4.339423095703125,5.324038028717041,2.3603782653808594,3.315561294555664
1663862591572310800,4.349310791015625,5.854738712310791,2.399982452392578,3.9077446460723877
1663862591582198300,4.3591982421875,6.056013584136963,2.7851061820983887,4.415279388427734
1663862591592086000,4.3690859375,6.083288669586182,3.4559578895568848,4.540841579437256
1663862591601943300,4.378943359375,5.655909061431885,4.191669940948486,4.131223678588867
1663862591611831000,4.3888310546875,4.668323040008545,4.40779447555542,2.8008062839508057
1663862591621718500,4.398718505859375,3.4727725982666016,4.302292823791504,1.5520198345184326
1663862591631606300,4.408606201171875,2.6755576133728027,4.13992977142334,0.8258476257324219
1663862591641494000,4.418493896484375,2.416769504547119,3.9257421493530273,0.39548420906066895
1663862591651351300,4.428351318359375,2.488940715789795,3.7147445678710938,0.3049662113189697
1663862591661238800,4.43823876953125,2.5385327339172363,3.4896435737609863,0.6977865695953369
1663862591671126500,4.44812646484375,2.886723041534424,3.2088756561279297,1.0932440757751465
1663862591681014300,4.45801416015625,3.0280542373657227,2.6391382217407227,0.9208476543426514
1663862591690902000,4.467902099609375,1.769765853881836,1.5034432411193848,0.6366279125213623
1663862591700789800,4.477789794921875,-1.1723685264587402,-0.692878246307373,-0.267179012298584
1663862591710646800,4.487646728515625,-3.477231979370117,-3.472823143005371,-1.1127285957336426
1663862591720534500,4.497534423828125,-4.261824131011963,-5.542323589324951,-1.3248684406280518
1663862591730422300,4.50742236328125,-6.591675281524658,-6.818490982055664,-1.5389153957366943
1663862591740310000,4.51731005859375,-6.033186435699463,-7.9821696281433105,-0.1278228759765625
1663862591750167000,4.5271669921875,0.7609848976135254,-9.19097900390625,0.6028470993041992
1663862591760024300,4.5370244140625,4.960487365722656,-8.721153259277344,0.07616782188415527
1663862591769912000,4.546912109375,-0.03754091262817383,-6.185349941253662,-1.4230554103851318
1663862591779799600,4.556799560546875,-1.5828347206115723,-3.597105026245117,-2.3900821208953857
1663862591789656800,4.56665673828125,0.4414386749267578,-1.7004609107971191,-1.3137538433074951
1663862591799575000,4.576574951171875,0.8737854957580566,-0.35960960388183594,0.3606001138687134
1663862591809462800,4.586462890625,1.1021041870117188,0.13587284088134766,1.4514037370681763
1663862591819350500,4.5963505859375,0.9640007019042969,-0.07835674285888672,1.6937451362609863
1663862591829238300,4.60623828125,0.23082542419433594,-0.5323505401611328,1.5168893337249756
1663862591839125800,4.616125732421875,0.3868417739868164,-1.1545639038085938,1.0105624198913574
1663862591848983000,4.625983154296875,1.0939807891845703,-1.5922784805297852,0.41199803352355957
1663862591858840300,4.63584033203125,0.8028779029846191,-1.9121475219726562,-0.5293326377868652
1663862591868758500,4.645758544921875,0.8586750030517578,-2.173177719116211,-1.5759027004241943
1663862591878615600,4.655615478515625,1.2137937545776367,-2.354996681213379,-2.419673442840576
1663862591888503300,4.66550341796875,0.8402395248413086,-2.6321516036987305,-3.0519914627075195
1663862591898391000,4.67539111328125,0.6343398094177246,-3.047933578491211,-3.3661890029907227
1663862591908278800,4.68527880859375,0.6074352264404297,-3.246021270751953,-2.9731125831604004
1663862591918135800,4.6951357421875,0.5130324363708496,-2.972475051879883,-1.8610005378723145
1663862591928054000,4.705053955078125,0.5280611515045166,-2.307229995727539,-0.5297867059707642
1663862591937911300,4.714911376953125,0.4748239517211914,-1.5611686706542969,0.2581637501716614
1663862591947799000,4.724799072265625,-0.007108211517333984,-0.8446369171142578,0.28760379552841187
1663862591957686500,4.7346865234375,-0.34456729888916016,-0.2208576202392578,0.37400364875793457
1663862591967543800,4.744543701171875,-0.09420108795166016,0.30878639221191406,0.2837240695953369
1663862591977431600,4.754431640625,-0.24465322494506836,0.8813304901123047,0.25623440742492676
1663862591987349800,4.764349853515625,-0.7832632064819336,1.2009267807006836,0.14870226383209229
1663862591997206800,4.774206787109375,-1.1219379901885986,1.2129402160644531,-0.19247299432754517
1663862592007080000,4.784079833984375,-1.3707976341247559,1.1809768676757812,-0.4347686171531677
1663862592016967700,4.7939677734375,-1.5689871311187744,1.1763057708740234,-0.4317893385887146
1663862592026825000,4.803824951171875,-1.985710859298706,1.3328027725219727,-0.3774363398551941
1663862592036743200,4.8137431640625,-2.1904685497283936,1.5887231826782227,0.0450439453125
1663862592046631000,4.823630859375,-1.7122716903686523,1.8207368850708008,0.8118239641189575
1663862592056518400,4.833518310546875,-1.1810123920440674,1.7849531173706055,1.4024004936218262
1663862592066406100,4.84340625,-0.8372094631195068,1.8317852020263672,1.918498158454895
1663862592076294000,4.8532939453125,-1.007681131362915,1.9564132690429688,2.3368966579437256
1663862592086181600,4.863181640625,-1.3060131072998047,1.8907718658447266,2.526378631591797
1663862592096069400,4.8730693359375,-1.3125228881835938,1.7279138565063477,2.4285149574279785
1663862592105926400,4.882926513671875,-1.3546805381774902,1.6398935317993164,2.077177047729492
1663862592115814100,4.892814208984375,-1.6075646877288818,1.5718450546264648,1.3854455947875977
1663862592125702000,4.902701904296875,-1.770423412322998,1.5094842910766602,0.6079366207122803
1663862592135589600,4.912589599609375,-2.103506326675415,1.5270557403564453,-0.13120007514953613
1663862592145477400,4.922477294921875,-2.426766872406006,1.550684928894043,-0.7045851945877075
1663862592155334400,4.93233447265625,-2.521552562713623,1.4612741470336914,-1.1557202339172363
1663862592165222100,4.94222216796875,-2.6828339099884033,1.2616500854492188,-1.755786657333374
1663862592175110000,4.95210986328125,-3.4576544761657715,1.0593414306640625,-2.1486809253692627
1663862592184997600,4.96199755859375,-4.017262935638428,0.6464395523071289,-2.2053427696228027
1663862592194885000,4.971885009765625,-3.661635398864746,0.1596384048461914,-1.8180060386657715
1663862592204772900,4.98177294921875,-3.4741671085357666,-0.32436561584472656,-1.3297247886657715
1663862592214660600,4.99166064453125,-4.077902793884277,-0.5763387680053711,-0.7522642016410828
1663862592224518000,5.001517822265625,-4.078120231628418,-0.5131845474243164,0.1870708465576172
1663862592234405400,5.0114052734375,-2.7850277423858643,-0.3980121612548828,1.230760097503662
1663862592244293000,5.021293212890625,-1.5319396257400513,-0.5267696380615234,1.92508864402771
1663862592254150400,5.031150390625,-1.104259967803955,-0.9393911361694336,2.028792142868042
1663862592264038100,5.0410380859375,-1.1408147811889648,-1.5755586624145508,1.5507938861846924
1663862592273925600,5.050925537109375,-1.3193976879119873,-2.3583812713623047,0.5721235871315002
1663862592283813400,5.0608134765625,-1.3126235008239746,-3.036935806274414,-0.4045058488845825
1663862592293701000,5.070701171875,-1.447887897491455,-3.528374671936035,-1.0421664714813232
1663862592303588900,5.0805888671875,-1.61871337890625,-3.892993927001953,-1.4282468557357788
1663862592313476600,5.0904765625,-1.598418951034546,-4.340847969055176,-1.7124621868133545
1663862592323333600,5.100333740234375,-1.4902145862579346,-5.110252380371094,-1.7647489309310913
1663862592333191000,5.11019091796875,-1.3871389627456665,-6.109470367431641,-1.5624961853027344
1663862592343078700,5.12007861328125,-1.3636441230773926,-6.790583610534668,-1.2994065284729004
1663862592352935700,5.129935791015625,-1.5266762971878052,-7.086940765380859,-0.8539291024208069
1663862592362854000,5.13985400390625,-1.6097034215927124,-7.178314208984375,-0.27129065990448
1663862592372741600,5.14974169921875,-1.6353846788406372,-6.929107666015625,0.07514345645904541
1663862592382629400,5.15962939453125,-1.8234336376190186,-6.308947563171387,-0.3990628719329834
1663862592392517000,5.16951708984375,-2.2571706771850586,-5.115867614746094,-1.650674819946289
1663862592402404900,5.17940478515625,-3.2906746864318848,-3.752984046936035,-3.1223883628845215
1663862592412262000,5.189261962890625,-4.6552653312683105,-2.957221031188965,-4.19899845123291
1663862592422149600,5.199149658203125,-5.5609846115112305,-2.6044044494628906,-4.745841026306152
1663862592432037400,5.209037353515625,-5.809395790100098,-2.3470458984375,-4.731614589691162
1663862592441925000,5.218925048828125,-5.853708744049072,-2.2569236755371094,-4.104310035705566
1663862592451812600,5.2288125,-6.018322467803955,-2.587052345275879,-3.4206347465515137
1663862592461700400,5.238700439453125,-6.499508380889893,-3.446664810180664,-2.4365029335021973
1663862592471588000,5.248588134765625,-6.290427207946777,-4.491086006164551,-1.181901216506958
1663862592481475800,5.258475830078125,-4.183971881866455,-5.488237380981445,0.5036400556564331
1663862592491363600,5.268363525390625,-0.4580484628677368,-6.020014762878418,3.0122146606445312
1663862592501220600,5.278220703125,2.9841277599334717,-5.734304428100586,6.265500068664551
1663862592511108400,5.2881083984375,4.524282455444336,-5.093984603881836,9.386496543884277
1663862592520996000,5.29799609375,4.067937850952148,-4.831321716308594,10.35303020477295
1663862592530883800,5.3078837890625,2.618797540664673,-4.700804710388184,8.290215492248535
1663862592540771300,5.317771240234375,0.9642736911773682,-3.9710350036621094,4.857273578643799
1663862592550659000,5.3276591796875,0.06707215309143066,-2.9122533798217773,2.3195436000823975
1663862592560516400,5.337516357421875,0.015540838241577148,-2.657224655151367,-0.6051106452941895
1663862592570404000,5.347404052734375,0.3700733184814453,-2.29891300201416,-3.0622477531433105
1663862592580291600,5.35729150390625,1.3486990928649902,-1.0571660995483398,-3.361947536468506
1663862592590148900,5.36714892578125,4.0241875648498535,0.7390928268432617,-2.4083375930786133
1663862592600036600,5.37703662109375,6.4227294921875,2.0398855209350586,-1.9329313039779663
1663862592609894000,5.386893798828125,6.926126003265381,2.3562698364257812,-1.974874496459961
1663862592619781400,5.396781494140625,6.119924545288086,2.0022478103637695,-1.7795207500457764
1663862592629669000,5.406669189453125,4.864710807800293,1.369685173034668,-1.6452548503875732
1663862592639556900,5.416556884765625,3.7837395668029785,0.8868579864501953,-1.7826759815216064
1663862592649444600,5.426444580078125,3.032747745513916,0.9000368118286133,-1.748291254043579
1663862592659332400,5.436332275390625,3.0193185806274414,1.4237017631530762,-1.6977689266204834
1663862592669219800,5.4462197265625,3.519968032836914,2.262828826904297,-1.490060806274414
1663862592679107600,5.456107666015625,4.354738712310791,3.243948459625244,-0.9067707061767578
1663862592688995300,5.465995361328125,4.689233779907227,4.186182022094727,-0.543900728225708
1663862592698883000,5.475883056640625,4.528815746307373,4.983733177185059,0.15850019454956055
1663862592708770800,5.485770751953125,4.947315216064453,5.51115608215332,1.4892628192901611
1663862592718658300,5.495658203125,4.913516521453857,5.353978157043457,2.786506175994873
1663862592728515600,5.505515625,4.837636947631836,4.72329568862915,3.5840044021606445
1663862592738372900,5.515372802734375,4.996789932250977,4.113685131072998,3.619814157485962
1663862592748260400,5.52526025390625,5.032637119293213,3.53350830078125,3.2381644248962402
1663862592758117600,5.53511767578125,4.979996204376221,2.959080219268799,2.7328906059265137
1663862592768035800,5.545035888671875,5.314059734344482,2.7027969360351562,2.8315393924713135
1663862592777893000,5.55489306640625,5.861624240875244,2.9265365600585938,3.2886557579040527
1663862592787780600,5.564780517578125,5.804221153259277,3.4703621864318848,3.5380287170410156
1663862592797668400,5.57466845703125,5.1161789894104,3.7687582969665527,3.2855777740478516
1663862592807556000,5.58455615234375,3.973741054534912,3.8312878608703613,2.7982096672058105
1663862592817413400,5.594413330078125,2.74369478225708,4.11183500289917,2.1685566902160645
1663862592827331600,5.60433154296875,2.034191608428955,4.4325127601623535,1.2723751068115234
1663862592837188600,5.614188720703125,1.6849446296691895,4.476551055908203,0.2781682014465332
1663862592847046000,5.6240458984375,1.307222843170166,4.41541862487793,-0.3787393569946289
1663862592856933600,5.63393359375,1.250114917755127,4.140773296356201,-0.29431748390197754
1663862592866851800,5.643851806640625,1.425642490386963,3.448448657989502,0.6294393539428711
1663862592876739600,5.653739501953125,0.9916448593139648,1.8731069564819336,0.8756740093231201
1663862592886627000,5.663626953125,0.7489089965820312,-0.7435779571533203,0.80474853515625
1663862592896514800,5.673514892578125,-6.180726051330566,-3.980839252471924,0.6678006649017334
1663862592906402600,5.683402587890625,-17.391889572143555,-8.258310317993164,-0.7488272190093994
1663862592916290300,5.693290283203125,-4.169240951538086,-12.690749168395996,-0.399688720703125
1663862592926147300,5.703147216796875,10.90388298034668,-13.415828704833984,1.179793357849121
1663862592936004600,5.713004638671875,0.5899448394775391,-10.017594337463379,0.7451789379119873
1663862592945922800,5.7229228515625,-5.605230808258057,-6.187686443328857,-1.7545998096466064
1663862592955810600,5.732810546875,-0.4521293640136719,-2.5695042610168457,-1.4110110998153687
1663862592965698300,5.7426982421875,3.020538806915283,0.6460151672363281,0.2500802278518677
1663862592975585800,5.752585693359375,3.333639621734619,2.669468879699707,0.31412744522094727
1663862592985473500,5.7624736328125,2.060494899749756,3.313237190246582,-1.2250524759292603
1663862592995361300,5.772361328125,0.3369455337524414,3.0417709350585938,-2.9075093269348145
1663862593005218600,5.782218505859375,0.47574949264526367,1.9943532943725586,-4.2960052490234375
1663862593015106000,5.79210595703125,1.085705280303955,0.8727951049804688,-4.700350284576416
1663862593024993800,5.801993896484375,1.3101654052734375,-0.3867168426513672,-4.266129493713379
1663862593034881500,5.811881591796875,1.7387785911560059,-1.966456413269043,-3.458772659301758
1663862593044769300,5.821769287109375,1.991105556488037,-3.874950408935547,-2.5117528438568115
1663862593054657000,5.831656982421875,1.5436592102050781,-5.731815338134766,-1.568206548690796
1663862593064514000,5.84151416015625,0.9599575996398926,-6.665431022644043,0.13241177797317505
1663862593074401800,5.85140185546875,0.6553239822387695,-6.389591217041016,2.1399943828582764
1663862593084289500,5.86128955078125,0.14778780937194824,-5.273003578186035,3.1592555046081543
1663862593094146800,5.871146728515625,0.00139617919921875,-3.755446434020996,2.6991231441497803
1663862593104034300,5.881034423828125,-0.006475687026977539,-1.9969758987426758,1.9840764999389648
1663862593113891600,5.8908916015625,-0.10026407241821289,-0.5106592178344727,1.1093063354492188
1663862593123748900,5.900748779296875,0.13907504081726074,0.6577959060668945,0.1746845543384552
1663862593133636400,5.91063623046875,0.37248826026916504,1.4409303665161133,-0.7607675790786743
1663862593143554600,5.920554443359375,0.4093055725097656,1.9375247955322266,-1.137502670288086
1663862593153411800,5.930411865234375,0.3709127902984619,2.165196418762207,-1.2832392454147339
1663862593163330000,5.940330078125,0.06700587272644043,2.145803451538086,-1.4377466440200806
1663862593173217800,5.9502177734375,-0.06901669502258301,1.9203405380249023,-1.5337005853652954
1663862593183105500,5.96010546875,-0.1967484951019287,1.5598154067993164,-1.4124302864074707
1663862593192993000,5.969992919921875,-0.3472299575805664,1.0369291305541992,-0.9817728996276855
1663862593202880800,5.979880859375,-0.8726898431777954,0.6838226318359375,-0.2228257954120636
1663862593212768500,5.9897685546875,-1.1243036985397339,0.4843730926513672,0.21082523465156555
1663862593222656300,5.99965625,-1.0748212337493896,0.47161197662353516,0.4485672414302826
1663862593232544000,6.0095439453125,-0.7978100776672363,0.679046630859375,0.8885848522186279
1663862593242401000,6.019401123046875,-0.879153847694397,1.1882867813110352,1.3281543254852295
1663862593252288800,6.029288818359375,-1.0413355827331543,1.6915502548217773,1.3700385093688965
1663862593262176500,6.039176513671875,-1.3228423595428467,1.9028921127319336,1.0435885190963745
1663862593272033500,6.049033447265625,-1.620035171508789,2.045520782470703,0.7463918924331665
1663862593281890800,6.058890869140625,-1.6929943561553955,2.0197811126708984,0.2613123059272766
1663862593291778600,6.068778564453125,-2.045370101928711,1.9073295593261719,-0.2977628707885742
1663862593301666300,6.078666259765625,-2.586146831512451,1.875356674194336,-0.5159898996353149
1663862593311553800,6.0885537109375,-3.034785270690918,1.8138370513916016,-0.4093148112297058
1663862593321441500,6.098441650390625,-3.4410619735717773,1.6393070220947266,-0.10204017162322998
1663862593331298800,6.108298828125,-3.7271170616149902,1.399932861328125,0.2847508192062378
1663862593341217000,6.118217041015625,-3.595470905303955,1.2105093002319336,0.7501126527786255
1663862593351104800,6.128104736328125,-3.2338297367095947,1.15460205078125,1.40030837059021
1663862593360992500,6.137992431640625,-2.832827091217041,1.0625123977661133,1.9815819263458252
1663862593370849500,6.147849609375,-2.144026279449463,0.6263647079467773,1.8677728176116943
1663862593380706800,6.157706787109375,-1.6710931062698364,-0.2893486022949219,0.886696457862854
1663862593390625000,6.167625,-1.9141814708709717,-1.296818733215332,-0.47236669063568115
1663862593400482000,6.17748193359375,-2.4350860118865967,-2.0208091735839844,-1.7271811962127686
1663862593410339300,6.18733935546875,-2.7997453212738037,-2.5501108169555664,-2.472444534301758
1663862593420257500,6.197257568359375,-2.6654813289642334,-2.8658180236816406,-3.1600420475006104
1663862593430145300,6.207145263671875,-2.1653895378112793,-3.16658878326416,-3.806953191757202
1663862593440033000,6.217032958984375,-1.6296396255493164,-3.8538694381713867,-4.436147689819336
1663862593449920500,6.22692041015625,-1.4989875555038452,-4.848079681396484,-4.440426349639893
1663862593459808300,6.236808349609375,-1.7563762664794922,-5.687280654907227,-4.033010959625244
1663862593469696000,6.246696044921875,-1.941084384918213,-6.626625061035156,-3.1634743213653564
1663862593479553300,6.25655322265625,-1.7577102184295654,-7.529236793518066,-1.7153249979019165
1663862593489410300,6.266410400390625,-1.5338034629821777,-7.569134712219238,0.010747253894805908
1663862593499328500,6.27632861328125,-1.1818370819091797,-7.1045637130737305,1.1464046239852905
1663862593509216300,6.28621630859375,-0.7432942390441895,-6.253498077392578,0.8326517343521118
1663862593519104000,6.29610400390625,-1.2839460372924805,-4.849390029907227,-0.5289506912231445
1663862593528961000,6.3059609375,-2.2715277671813965,-3.743760108947754,-2.257131576538086
1663862593538848800,6.315848876953125,-3.14339017868042,-3.108597755432129,-3.2754323482513428
1663862593548736500,6.325736572265625,-4.042381763458252,-2.564154624938965,-3.5126805305480957
1663862593558593800,6.33559375,-5.1756134033203125,-2.2693023681640625,-3.3969531059265137
1663862593568512000,6.345511962890625,-6.2096147537231445,-2.4263362884521484,-2.9882678985595703
1663862593578399700,6.355399658203125,-7.06538724899292,-3.0869226455688477,-2.2390871047973633
1663862593588287200,6.365287353515625,-7.482680797576904,-3.9398374557495117,-1.1761300563812256
1663862593598175000,6.375175048828125,-6.631696701049805,-4.717967987060547,-0.03814685344696045
1663862593608032300,6.3850322265625,-4.237561225891113,-5.2495880126953125,1.1066457033157349
1663862593617889300,6.39488916015625,-1.064002275466919,-5.370146751403809,2.7910332679748535
1663862593627777000,6.404777099609375,2.267772674560547,-4.980042457580566,4.702849388122559
1663862593637664800,6.414664794921875,4.65444278717041,-4.274060249328613,6.187365531921387
1663862593647552500,6.424552490234375,4.48820161819458,-3.8062257766723633,5.633943557739258
1663862593657440300,6.434440185546875,2.242781400680542,-3.4104557037353516,2.6963181495666504
1663862593667327700,6.44432763671875,0.28657054901123047,-2.5385942459106445,0.3278319835662842
1663862593677185000,6.45418505859375,-0.8732845783233643,-1.927311897277832,-1.4039885997772217
1663862593687072800,6.46407275390625,-1.1050012111663818,-1.9505882263183594,-3.1915416717529297
1663862593696929800,6.4739296875,-0.016728878021240234,-1.8994531631469727,-4.066542148590088
1663862593706848000,6.483847900390625,3.3592190742492676,-1.095412254333496,-3.2703349590301514
1663862593716735700,6.49373583984375,7.400977611541748,0.33786773681640625,-2.135283946990967
1663862593726593000,6.503593017578125,8.943384170532227,1.6336326599121094,-1.1068772077560425
1663862593736511200,6.51351123046875,7.960897445678711,2.1119489669799805,-0.7619209289550781
1663862593746399000,6.52339892578125,5.066295146942139,2.0500307083129883,-0.37351059913635254
1663862593756286500,6.533286376953125,2.108855724334717,1.6508588790893555,-0.022873401641845703
1663862593766143700,6.543143798828125,0.7510638236999512,0.8953666687011719,-0.6351766586303711
1663862593776001000,6.5530009765625,1.547447681427002,0.33026599884033203,-1.5327727794647217
1663862593785888500,6.562888427734375,3.7672066688537598,0.6336383819580078,-1.7723016738891602
1663862593795806700,6.572806640625,5.404952526092529,2.6169419288635254,-1.387601375579834
1663862593805694500,6.582694580078125,4.991661548614502,5.187039375305176,-0.6362011432647705
1663862593815582200,6.592582275390625,4.349719047546387,6.447401523590088,-0.43608784675598145
1663862593825470000,6.602469970703125,4.154273986816406,6.0914692878723145,0.0460057258605957
1663862593835357700,6.612357666015625,4.286021709442139,5.070191383361816,1.4744210243225098
1663862593845245400,6.622245361328125,4.849290370941162,4.160346984863281,2.894742012023926
1663862593855102500,6.6321025390625,5.02511739730835,3.4563775062561035,3.606393337249756
1663862593864990200,6.641990234375,4.824429512023926,2.9559106826782227,3.251298427581787
1663862593874847500,6.651847412109375,4.571034908294678,2.6722025871276855,2.805968999862671
1663862593884735000,6.66173486328125,4.391998767852783,2.320436954498291,2.598407745361328
1663862593894622700,6.671622802734375,4.430469512939453,2.4674673080444336,2.9415178298950195
1663862593904480000,6.68147998046875,5.271490097045898,3.4864864349365234,3.7679147720336914
1663862593914367700,6.69136767578125,5.815006256103516,4.770913124084473,3.7652220726013184
1663862593924255200,6.701255126953125,4.949265003204346,5.319437026977539,2.4643783569335938
1663862593934112500,6.711112548828125,3.426894187927246,5.307037353515625,1.2639760971069336
1663862593944000300,6.721000244140625,2.2081289291381836,5.330097198486328,0.5579128265380859
1663862593953888000,6.730887939453125,0.8921117782592773,5.226278781890869,-0.3231029510498047
1663862593963806200,6.74080615234375,0.10794639587402344,4.914439678192139,-1.1212916374206543
1663862593973663200,6.750663330078125,1.4008111953735352,4.527973175048828,-1.1591076850891113
1663862593983551000,6.760551025390625,3.3087711334228516,3.725532054901123,-0.8240237236022949
1663862593993438700,6.770438720703125,2.220531463623047,2.3804574012756348,-0.6619021892547607
1663862594003326500,6.780326416015625,-1.5376462936401367,0.5324287414550781,-0.04761672019958496
1663862594013214000,6.7902138671875,-9.892740249633789,-3.1633124351501465,0.21654009819030762
1663862594023071200,6.8000712890625,-13.470218658447266,-7.852373123168945,0.8977072238922119
1663862594032959000,6.809958984375,-0.3410511016845703,-11.393505096435547,1.7693612575531006
1663862594042846700,6.8198466796875,5.958690643310547,-10.687284469604492,2.412693500518799
1663862594052734500,6.829734375,-2.2517309188842773,-7.344557762145996,1.0407521724700928
1663862594062622000,6.8396220703125,-3.557286262512207,-4.295248508453369,0.31801271438598633
1663862594072509700,6.849509765625,0.47292327880859375,-1.879617691040039,1.7995734214782715
1663862594082397400,6.8593974609375,2.437809944152832,-0.28455209732055664,2.581263542175293
1663862594092285200,6.86928515625,1.035961627960205,0.45676422119140625,1.9132051467895508
1663862594102173000,6.8791728515625,0.2657613754272461,-0.19246768951416016,0.3747798204421997
1663862594112060400,6.889060302734375,0.73883056640625,-1.3066987991333008,-0.7751424312591553
1663862594121948200,6.8989482421875,1.6263370513916016,-1.919698715209961,-1.339605689048767
1663862594131836000,6.9088359375,2.066650390625,-2.4322080612182617,-1.8465253114700317
1663862594141662500,6.918662353515625,1.982388973236084,-2.932373046875,-2.4268479347229004
1663862594151550200,6.92855029296875,1.6954660415649414,-3.397113800048828,-2.590053081512451
1663862594161438000,6.93843798828125,1.2220187187194824,-4.024749755859375,-2.2791481018066406
1663862594171295200,6.948295166015625,0.956303596496582,-4.973548889160156,-1.7776498794555664
1663862594181182700,6.9581826171875,1.2690234184265137,-5.409772872924805,-0.8278638124465942
1663862594191101000,6.968100830078125,1.3886737823486328,-5.01750373840332,0.3511255979537964
1663862594200988700,6.97798876953125,0.7057890892028809,-4.164034843444824,1.0918735265731812
1663862594210876400,6.98787646484375,-0.11823630332946777,-3.063434600830078,1.0279545783996582
1663862594220764200,6.99776416015625,-0.6126747131347656,-1.8811826705932617,0.5020879507064819
1663862594230652000,7.00765185546875,-0.6487565040588379,-0.7255449295043945,0.05651891231536865
1663862594240539400,7.017539306640625,-0.06169724464416504,0.2570009231567383,-0.30015212297439575
1663862594250427100,7.02742724609375,0.44607019424438477,1.0196123123168945,-0.518831193447113
1663862594260284400,7.037284423828125,0.739861011505127,1.4720258712768555,-0.778414249420166
1663862594270172200,7.047172119140625,0.2913844585418701,1.6925544738769531,-0.9440122246742249
1663862594280060000,7.057059814453125,-0.6198251247406006,1.6304035186767578,-1.178336501121521
1663862594289917000,7.0669169921875,-1.4077942371368408,1.494399070739746,-1.0081424713134766
1663862594299804700,7.0768046875,-1.8496599197387695,1.405808448791504,-0.4098966121673584
1663862594309692400,7.0866923828125,-1.78611421585083,1.262068748474121,0.2781674265861511
1663862594319580200,7.096580078125,-1.403420329093933,1.1915903091430664,1.017058253288269
1663862594329467600,7.106467529296875,-1.0595898628234863,1.225174903869629,1.6134012937545776
1663862594339325000,7.116324951171875,-1.043106198310852,1.5528221130371094,2.2254176139831543
1663862594349212700,7.126212646484375,-0.9298590421676636,2.114988327026367,2.554863214492798
1663862594359100400,7.136100341796875,-1.074224829673767,2.643888473510742,2.3239073753356934
1663862594368988000,7.14598779296875,-1.072340488433838,3.160940170288086,1.9211701154708862
1663862594378875600,7.155875732421875,-0.73325514793396,3.4965810775756836,1.5201764106750488
1663862594388733000,7.16573291015625,-0.5583518147468567,3.5894107818603516,1.1204321384429932
1663862594398590000,7.17558984375,-0.6824333667755127,3.4879722595214844,0.6402418613433838
1663862594408508200,7.185508056640625,-1.2317821979522705,3.2093114852905273,0.2600613832473755
1663862594418396000,7.19539599609375,-1.8296257257461548,2.7105398178100586,-0.08308863639831543
1663862594428253200,7.205253173828125,-2.0988576412200928,2.1352758407592773,-0.36785757541656494
1663862594438141000,7.215140869140625,-2.3614907264709473,1.6219844818115234,-0.35880231857299805
1663862594448028400,7.2250283203125,-2.62271785736084,1.1584148406982422,-0.2206750512123108
1663862594457916200,7.234916259765625,-2.918644428253174,0.8470258712768555,-0.07759672403335571
1663862594467804000,7.244803955078125,-3.2934060096740723,0.7708702087402344,0.21286898851394653
1663862594477691600,7.254691650390625,-3.51930570602417,0.6405630111694336,0.7280589938163757
1663862594487579400,7.264579345703125,-3.4432029724121094,0.32314205169677734,1.1381690502166748
1663862594497436400,7.2744365234375,-3.0675835609436035,-0.29491424560546875,0.9548656344413757
1663862594507324200,7.28432421875,-2.558511257171631,-1.0837392807006836,0.12501293420791626
1663862594517181400,7.294181396484375,-2.389993906021118,-1.6130027770996094,-0.8748800754547119
1663862594527099600,7.304099609375,-2.533705234527588,-1.828399658203125,-1.8111956119537354
1663862594536987400,7.3139873046875,-2.6443352699279785,-2.105316162109375,-2.3984994888305664
1663862594546875000,7.323875,-2.261380195617676,-2.67745304107666,-2.7292213439941406
1663862594556732200,7.333732177734375,-1.6654179096221924,-3.326788902282715,-3.1896767616271973
1663862594566620000,7.343619873046875,-1.5393657684326172,-4.0583906173706055,-3.5830814838409424
1663862594576477000,7.353476806640625,-1.6270699501037598,-4.9844865798950195,-3.4608869552612305
1663862594586395100,7.36339501953125,-1.656233310699463,-5.889501571655273,-2.737964630126953
1663862594596283000,7.373282958984375,-1.5944081544876099,-6.37187385559082,-1.4517395496368408
1663862594606170600,7.383170654296875,-1.3091472387313843,-6.537411689758301,0.24001753330230713
1663862594616058400,7.393058349609375,-1.0170130729675293,-6.6037397384643555,1.3344786167144775
1663862594625946000,7.402946044921875,-1.0918384790420532,-6.739989280700684,1.5169587135314941
1663862594635833600,7.41283349609375,-1.296107530593872,-6.530034065246582,1.0590649843215942
1663862594645691000,7.42269091796875,-1.4755886793136597,-5.59735107421875,0.11650288105010986
1663862594655548200,7.432548095703125,-2.040128469467163,-4.364291191101074,-1.2468854188919067
1663862594665435600,7.442435546875,-3.128889560699463,-3.677579879760742,-2.479058265686035
1663862594675293000,7.45229296875,-4.215887069702148,-3.3363733291625977,-3.039336681365967
1663862594685180700,7.4621806640625,-5.3397908210754395,-3.1480913162231445,-3.2777695655822754
1663862594695099000,7.472098876953125,-6.634847640991211,-3.2776546478271484,-3.1074681282043457
1663862594704986600,7.481986572265625,-7.791220664978027,-3.455791473388672,-2.3638203144073486
1663862594714874000,7.4918740234375,-8.308237075805664,-3.6606626510620117,-1.4120389223098755
1663862594724761900,7.501761962890625,-7.903006553649902,-3.898745536804199,-0.6699192523956299
1663862594734619100,7.511619140625,-6.006295204162598,-4.107587814331055,0.004620075225830078
1663862594744507000,7.5215068359375,-2.238288640975952,-4.224255561828613,1.176748275756836
1663862594754364000,7.531364013671875,1.578183889389038,-4.275763511657715,3.348904848098755
1663862594764251600,7.541251708984375,4.2577619552612305,-4.028043746948242,6.317224502563477
1663862594774139400,7.551139404296875,4.97254753112793,-3.7448997497558594,8.529592514038086
1663862594784027100,7.561027099609375,3.3759706020355225,-4.215982437133789,7.815896034240723
1663862594793915000,7.570914794921875,1.3000364303588867,-4.531635284423828,5.113366603851318
1663862594803802400,7.58080224609375,0.19003987312316895,-3.8986587524414062,2.7387547492980957
1663862594813659600,7.59065966796875,-0.4751014709472656,-3.2601537704467773,0.33983516693115234
1663862594823547400,7.60054736328125,-0.3644084930419922,-2.8384132385253906,-2.1976981163024902
1663862594833435100,7.61043505859375,0.5316739082336426,-1.9644527435302734,-3.6511316299438477
1663862594843322600,7.620322509765625,2.1391782760620117,-0.4393148422241211,-2.9927666187286377
1663862594853210400,7.63021044921875,4.4568867683410645,0.7644748687744141,-1.7530323266983032
1663862594863098000,7.64009814453125,6.191749572753906,1.4042396545410156,-1.566838026046753
1663862594872985900,7.64998583984375,7.193981170654297,1.5407495498657227,-1.8575010299682617
1663862594882873600,7.65987353515625,6.396304607391357,1.6708440780639648,-1.4861853122711182
1663862594892761000,7.669760986328125,4.207519054412842,1.5597200393676758,-0.8447062969207764
1663862594902648800,7.67964892578125,2.659165859222412,1.0885658264160156,-0.9594132900238037
1663862594912536600,7.68953662109375,2.546647071838379,0.5119061470031738,-1.574955701828003
1663862594922393900,7.699393798828125,3.718212604522705,0.5865602493286133,-1.8218271732330322
1663862594932281300,7.70928125,4.419558048248291,1.9023566246032715,-1.4849834442138672
1663862594942169000,7.719169189453125,4.586666584014893,3.3441147804260254,-1.332197904586792
1663862594952026400,7.7290263671875,4.387973308563232,4.517330169677734,-0.5083146095275879
1663862594961914000,7.7389140625,3.7816905975341797,5.25162410736084,0.5228550434112549
1663862594971771100,7.748771240234375,4.276363372802734,5.050295352935791,1.661212682723999
1663862594981689300,7.758689453125,5.098670959472656,4.529534339904785,2.732905864715576
1663862594991577000,7.7685771484375,5.062971591949463,4.206042289733887,3.424145460128784
1663862595001464800,7.77846484375,4.97373628616333,3.8444204330444336,3.4936180114746094
1663862595011352600,7.7883525390625,5.032034873962402,3.35726261138916,3.0763678550720215
1663862595021240300,7.798240234375,5.191927909851074,2.9824438095092773,3.3503880500793457
1663862595031097300,7.808097412109375,5.218058109283447,2.8013877868652344,3.7263283729553223
1663862595040954600,7.81795458984375,5.264003276824951,3.1757736206054688,4.436223983764648
1663862595050842400,7.82784228515625,5.524116039276123,3.998904228210449,4.787479400634766
1663862595060729900,7.837729736328125,5.165782451629639,4.603590488433838,3.8273372650146484
1663862595070617600,7.84761767578125,3.9180564880371094,4.925140857696533,2.6546449661254883
1663862595080505300,7.85750537109375,2.8134236335754395,5.020665168762207,1.4338021278381348
1663862595090393000,7.86739306640625,1.0232453346252441,5.08242130279541,-0.03378105163574219
1663862595100280800,7.87728076171875,-0.36014699935913086,4.890218734741211,-1.6310405731201172
1663862595110137900,7.887137939453125,-0.33475542068481445,4.369674205780029,-2.6177048683166504
1663862595120025600,7.897025634765625,0.6192440986633301,3.2209067344665527,-3.0682215690612793
1663862595129883000,7.9068828125,4.341885566711426,1.7797207832336426,-2.223717212677002
1663862595139801000,7.916801025390625,3.861690044403076,0.33286476135253906,0.2250075340270996
1663862595149688600,7.9266884765625,-8.627878189086914,-3.613865852355957,0.8382863998413086
1663862595159576300,7.936576416015625,-11.856437683105469,-8.535104751586914,2.603903293609619
1663862595169464000,7.946464111328125,2.3058228492736816,-10.818779945373535,4.2391767501831055
1663862595179351800,7.956351806640625,5.312819957733154,-10.087292671203613,2.90421199798584
1663862595189239600,7.966239501953125,-3.1393017768859863,-7.828959941864014,-0.4831984043121338
1663862595199127000,7.976126953125,-4.024143695831299,-5.515135765075684,-0.5063560009002686
1663862595209014800,7.986014892578125,0.7909002304077148,-3.9637651443481445,1.4392457008361816
1663862595218872000,7.9958720703125,1.9062590599060059,-2.1240830421447754,2.2817201614379883
1663862595228759800,8.005759765625,1.472297191619873,-1.1013317108154297,1.354212760925293
1663862595238647300,8.015647216796875,1.0893731117248535,-1.2868080139160156,-0.5913236141204834
1663862595248535000,8.02553515625,0.8237886428833008,-1.5131378173828125,-2.01957368850708
1663862595258422800,8.0354228515625,1.3812432289123535,-1.5941600799560547,-2.571077823638916
1663862595268280000,8.045280029296874,1.8825325965881348,-1.5833311080932617,-2.404611587524414
1663862595278167800,8.055167724609374,1.8291106224060059,-1.8029193878173828,-2.1336398124694824
1663862595288055300,8.06505517578125,1.6642241477966309,-2.378763198852539,-1.7475072145462036
1663862595297943000,8.074943115234374,1.5484724044799805,-3.2981739044189453,-1.243369221687317
1663862595307830800,8.084830810546874,1.4285411834716797,-4.447587013244629,-0.8775262832641602
1663862595317718500,8.094718505859374,0.8204946517944336,-5.342693328857422,-0.48210978507995605
1663862595327575600,8.104575439453125,-0.24840068817138672,-5.589420318603516,0.27295422554016113
1663862595337463300,8.11446337890625,-0.9690818786621094,-5.096978187561035,1.1746255159378052
1663862595347351000,8.12435107421875,-1.1176972389221191,-4.010045051574707,1.5034421682357788
1663862595357238800,8.13423876953125,-0.8413753509521484,-2.5809860229492188,1.1791938543319702
1663862595367126500,8.14412646484375,-0.36920857429504395,-0.9793338775634766,0.9506627321243286
1663862595376983600,8.153983642578124,0.12268972396850586,0.37549400329589844,0.5935153961181641
1663862595386871300,8.163871337890624,0.27209019660949707,1.4242286682128906,0.1702955961227417
1663862595396728600,8.173728515625,0.10210180282592773,2.137557029724121,-0.27626609802246094
1663862595406616000,8.183615966796875,-0.33389830589294434,2.4788312911987305,-0.8117871284484863
1663862595416503800,8.19350390625,-0.7744026184082031,2.5989179611206055,-1.0369263887405396
1663862595426391600,8.2033916015625,-1.0728404521942139,2.5481462478637695,-0.7701985836029053
1663862595436248800,8.213248779296874,-1.2177940607070923,2.295825958251953,-0.19516706466674805
1663862595446136300,8.22313623046875,-1.3729186058044434,1.9480314254760742,0.3397725820541382
1663862595456024000,8.233024169921874,-1.5470346212387085,1.7274255752563477,0.9957678318023682
1663862595465911800,8.242911865234374,-1.5424519777297974,1.689579963684082,1.7339222431182861
1663862595475799600,8.252799560546874,-1.2934602499008179,1.868727684020996,2.304182529449463
1663862595485656600,8.262656494140625,-1.003174066543579,2.2296085357666016,2.5399622917175293
1663862595495575000,8.272574951171874,-0.8920198678970337,2.5766000747680664,2.3999509811401367
1663862595505462500,8.282462646484374,-0.9890879988670349,2.842860221862793,1.964977502822876
1663862595515350300,8.292350341796874,-1.1307952404022217,2.9831485748291016,1.101420283317566
1663862595525207600,8.30220751953125,-1.2558989524841309,2.9067440032958984,0.10153627395629883
1663862595535064600,8.312064697265624,-1.2184977531433105,2.778714179992676,-0.6832132339477539
1663862595544982800,8.321982666015625,-1.2674477100372314,2.5728683471679688,-1.1505337953567505
1663862595554870500,8.33187060546875,-1.5883606672286987,2.2679920196533203,-1.4827648401260376
1663862595564758300,8.34175830078125,-1.9758214950561523,1.9384422302246094,-1.756361484527588
1663862595574646000,8.35164599609375,-2.214372158050537,1.600874900817871,-1.8354363441467285
1663862595584533800,8.36153369140625,-2.5379798412323,1.3005485534667969,-1.7109242677688599
1663862595594421200,8.371421142578125,-3.0003292560577393,1.0612430572509766,-1.4621224403381348
1663862595604309000,8.38130908203125,-3.342379093170166,0.9474315643310547,-1.062049150466919
1663862595614166300,8.391166259765624,-3.4454410076141357,0.8684892654418945,-0.4776036739349365
1663862595624023300,8.401023193359375,-3.835749387741089,0.5907087326049805,0.2555087208747864
1663862595633911000,8.4109111328125,-4.240187644958496,0.2916450500488281,1.0021584033966064
1663862595643798800,8.420798828125,-4.1037983894348145,-0.0022220611572265625,1.5250437259674072
1663862595653686500,8.4306865234375,-3.66811466217041,-0.44359874725341797,1.583867073059082
1663862595663574300,8.44057421875,-3.2525582313537598,-0.9532566070556641,1.3165943622589111
1663862595673461800,8.450461669921875,-2.8130455017089844,-1.6452760696411133,0.9833826422691345
1663862595683349500,8.460349609375,-2.0120294094085693,-2.3920059204101562,0.2661624550819397
1663862595693237200,8.4702373046875,-1.3163063526153564,-3.265080451965332,-0.6408243775367737
1663862595703125000,8.480125,-1.0828750133514404,-4.395872116088867,-1.680798888206482
1663862595713012700,8.4900126953125,-1.563528060913086,-5.874730110168457,-2.2786295413970947
1663862595722900500,8.499900390625,-1.9560489654541016,-7.299505233764648,-2.344710350036621
1663862595732757500,8.509757568359374,-2.314699172973633,-8.063579559326172,-1.894479513168335
1663862595742645200,8.519645263671874,-2.4431259632110596,-7.659923553466797,-0.8683258891105652
1663862595752533000,8.529532958984374,-2.0835013389587402,-6.970365524291992,0.38154804706573486
1663862595762420700,8.539420654296874,-1.465790033340454,-6.721551895141602,0.78006911277771
1663862595772308200,8.54930810546875,-0.9518468379974365,-6.174320220947266,0.20815342664718628
1663862595782165500,8.55916552734375,-0.940443217754364,-5.255305290222168,-0.9447921514511108
1663862595792053200,8.56905322265625,-1.8526301383972168,-4.3932600021362305,-2.258399486541748
1663862595801941000,8.57894091796875,-3.1443512439727783,-3.9231739044189453,-3.2538909912109375
1663862595811828500,8.588828369140625,-4.487189292907715,-3.580368995666504,-3.668534278869629
1663862595821716200,8.59871630859375,-5.6439361572265625,-3.2018442153930664,-3.504075050354004
1663862595831604000,8.60860400390625,-6.214977741241455,-2.9960498809814453,-2.7533230781555176
1663862595841461200,8.618461181640624,-6.4560651779174805,-3.0421600341796875,-1.5959686040878296
1663862595851348700,8.6283486328125,-6.697181224822998,-3.1942806243896484,-0.7789889574050903
1663862595861236500,8.638236572265624,-6.17573356628418,-3.6308517456054688,-0.029824376106262207
1663862595871124200,8.648124267578124,-3.992655038833618,-4.024103164672852,1.761627197265625
1663862595881012000,8.658011962890624,-0.39834821224212646,-4.271780014038086,4.718630790710449
1663862595890899700,8.667899658203124,3.267369508743286,-4.187514305114746,8.232940673828125
1663862595900756700,8.6777568359375,4.856225490570068,-4.088005065917969,10.831130027770996
1663862595910644500,8.68764453125,4.315169334411621,-4.624235153198242,10.939667701721191
1663862595920532200,8.6975322265625,2.893559217453003,-5.142202377319336,8.222004890441895
1663862595930420000,8.707419921875,1.018207311630249,-4.577142715454102,5.115966320037842
1663862595940307500,8.717307373046875,-0.09607315063476562,-3.693661689758301,2.7418389320373535
1663862595950164700,8.727164794921874,-0.3717958927154541,-3.3483762741088867,0.33861589431762695
1663862595960052500,8.737052490234374,-0.3168327808380127,-2.620250701904297,-1.4822396039962769
1663862595969940200,8.746940185546874,0.40161895751953125,-1.341893196105957,-2.08390474319458
1663862595979828000,8.756827880859374,1.8727936744689941,-0.010755538940429688,-2.1412081718444824
1663862595989715500,8.766715576171874,3.778430461883545,1.070505142211914,-1.906557321548462
1663862595999603200,8.776603271484374,6.052423000335693,1.6574583053588867,-2.3896660804748535
1663862596009460500,8.78646044921875,7.078009605407715,2.0414628982543945,-2.6783101558685303
1663862596019348200,8.79634814453125,6.906525135040283,1.9382448196411133,-1.9839460849761963
1663862596029235700,8.806235595703125,5.955962181091309,1.55755615234375,-0.8993747234344482
1663862596039123500,8.81612353515625,4.083704471588135,1.256211280822754,-0.09805035591125488
1663862596049011200,8.82601123046875,2.4416451454162598,0.8145627975463867,-0.08663129806518555
1663862596058899000,8.83589892578125,2.157439708709717,0.6683168411254883,-0.45520544052124023
1663862596068756000,8.845755859375,3.291562557220459,1.051551342010498,-0.5843687057495117
1663862596078643700,8.855643798828124,4.71182107925415,1.9423813819885254,-0.3868565559387207
1663862596088531500,8.865531494140624,5.27810525894165,2.727044105529785,-0.274310827255249
1663862596098419200,8.875419189453124,4.89162015914917,3.3725438117980957,0.018682479858398438
1663862596108307000,8.885306884765624,4.4088616371154785,4.0537238121032715,0.6436669826507568
1663862596118164000,8.8951640625,4.541802883148193,4.6120219230651855,1.2921686172485352
1663862596128021200,8.905021240234374,5.092066287994385,4.865079879760742,2.021146059036255
1663862596137878300,8.914878173828125,5.260326862335205,4.616514205932617,2.621981620788574
1663862596147766000,8.92476611328125,5.201228618621826,4.070994853973389,3.4050705432891846
1663862596157684200,8.934684326171874,5.270687580108643,3.4293394088745117,3.631024122238159
1663862596167572000,8.944572021484374,5.201400279998779,3.1419677734375,3.4934322834014893
1663862596177459700,8.954459716796874,5.185633659362793,3.176809787750244,3.5689074993133545
1663862596187316700,8.964316650390625,5.271220684051514,3.447852611541748,3.4690728187561035
1663862596197174000,8.974174072265624,4.594862937927246,3.508890151977539,2.9573144912719727
1663862596207061800,8.984061767578124,3.581486701965332,3.2538342475891113,2.121436595916748
1663862596216949500,8.993949462890624,2.7766165733337402,3.1008033752441406,1.2788057327270508
1663862596226867700,9.00386767578125,2.4822378158569336,3.3086776733398438,0.5692152976989746
1663862596236724700,9.013724853515624,2.462718963623047,3.653045654296875,0.04873371124267578
1663862596246612500,9.023612548828124,2.374913215637207,3.7673373222351074,-0.3022027015686035
1663862596256469800,9.0334697265625,2.1741385459899902,3.630014419555664,-0.6488938331604004
1663862596266388000,9.043387939453124,1.4819698333740234,3.3393406867980957,-0.9253246784210205
1663862596276245000,9.053244873046875,0.14741039276123047,2.8589329719543457,-0.9318418502807617
1663862596286163200,9.0631630859375,-1.276418685913086,1.2660675048828125,-1.5790269374847412
1663862596296020500,9.0730205078125,-0.8326277732849121,-0.7587580680847168,-2.0740630626678467
1663862596305877800,9.082877685546874,-0.2167501449584961,-2.3784070014953613,-1.645117998123169
1663862596315765200,9.09276513671875,-6.5219011306762695,-5.053475856781006,-1.6032326221466064
1663862596325683500,9.102683349609375,-10.613986015319824,-9.334063529968262,-1.0080273151397705
1663862596335540700,9.112540771484374,-1.235663890838623,-12.927108764648438,-0.19455933570861816
1663862596345428500,9.122428466796874,1.833693504333496,-11.356918334960938,1.0057992935180664
1663862596355316200,9.132316162109374,-3.4743504524230957,-7.053214073181152,1.1356549263000488
1663862596365203700,9.14220361328125,-1.570620059967041,-4.3905839920043945,0.8337523937225342
1663862596375091500,9.152091552734374,0.9564046859741211,-2.0928664207458496,1.8242995738983154
1663862596384979200,9.161979248046874,2.065828323364258,-0.21905136108398438,2.514580011367798
1663862596394836500,9.17183642578125,1.358567714691162,0.6016368865966797,1.8674038648605347
1663862596404724000,9.181723876953125,1.3856816291809082,0.6098842620849609,1.0321310758590698
1663862596414611700,9.19161181640625,2.1874585151672363,0.46889305114746094,0.6323076486587524
1663862596424469000,9.201468994140624,2.6285672187805176,0.19812774658203125,-0.013656854629516602
1663862596434387200,9.21138720703125,2.3761091232299805,-0.14039993286132812,-0.8952193260192871
1663862596444275000,9.22127490234375,2.3947300910949707,-0.38422489166259766,-1.7110249996185303
1663862596454162400,9.231162353515625,2.0147690773010254,-0.6571979522705078,-2.1730237007141113
1663862596464050200,9.24105029296875,1.3764004707336426,-1.1521282196044922,-2.491520404815674
1663862596473938000,9.25093798828125,1.5788564682006836,-1.9687252044677734,-2.591334819793701
1663862596483795200,9.260795166015624,1.7815947532653809,-2.9086923599243164,-2.3961868286132812
1663862596493683000,9.270682861328124,1.2334749698638916,-3.7307615280151367,-1.5736311674118042
1663862596503570400,9.2805703125,0.3784139156341553,-4.210412979125977,-0.366260290145874
1663862596513458200,9.290458251953124,-0.20647907257080078,-4.22652530670166,0.4555177092552185
1663862596523346000,9.300345947265624,-0.42043566703796387,-3.4908084869384766,1.0809178352355957
1663862596533233700,9.310233642578124,-0.4755432605743408,-2.4763240814208984,0.9710443615913391
1663862596543121400,9.320121337890624,-0.3506581783294678,-1.2630729675292969,0.5255975127220154
1663862596553009000,9.3300087890625,-0.44560742378234863,-0.13558006286621094,0.13710862398147583
1663862596562896600,9.339896728515624,-0.3934764862060547,0.7670059204101562,-0.5158373117446899
1663862596572754000,9.34975390625,-0.35412025451660156,1.586216926574707,-1.0698603391647339
1663862596582641700,9.3596416015625,-0.48564696311950684,2.2086715698242188,-1.4878305196762085
1663862596592498700,9.369498779296874,-0.6875646114349365,2.4397335052490234,-1.893359899520874
1663862596602386400,9.379386474609374,-0.893413782119751,2.4891176223754883,-2.1019020080566406
1663862596612274200,9.389274169921874,-1.3843762874603271,2.5102949142456055,-1.9469186067581177
1663862596622162000,9.399161865234374,-1.692797064781189,2.4151058197021484,-1.623585820198059
1663862596632049400,9.40904931640625,-1.382633090019226,2.36417293548584,-0.7842338681221008
1663862596641937200,9.418937255859374,-0.8637063503265381,2.298586845397949,0.4700615406036377
1663862596651825000,9.428824951171874,-0.5428332090377808,2.1143569946289062,1.3384668827056885
1663862596661712600,9.438712646484374,-0.49567824602127075,1.8121709823608398,1.8855628967285156
1663862596671600400,9.448600341796874,-0.6926508545875549,1.5114078521728516,2.4384872913360596
1663862596681488000,9.45848779296875,-0.7967405915260315,1.4008617401123047,2.910083770751953
1663862596691345200,9.46834521484375,-1.1812388896942139,1.4157781600952148,2.8847570419311523
1663862596701233000,9.47823291015625,-1.354160189628601,1.197662353515625,2.379794120788574
1663862596711120600,9.48812060546875,-1.2611780166625977,0.8427038192749023,1.5968701839447021
1663862596721008400,9.49800830078125,-1.2011709213256836,0.6403608322143555,0.913844883441925
1663862596730896000,9.507895751953125,-1.3221595287322998,0.7339248657226562,0.40338999032974243
1663862596740783600,9.51778369140625,-1.2636065483093262,1.0395822525024414,-0.24415665864944458
1663862596750641000,9.527640869140624,-1.4885179996490479,1.136540412902832,-1.1153117418289185
1663862596760498000,9.537497802734375,-2.0505502223968506,1.2181758880615234,-1.926466941833496
1663862596770385700,9.5473857421875,-2.4199578762054443,1.3603553771972656,-2.272343158721924
1663862596780273400,9.5572734375,-2.5414206981658936,1.3143243789672852,-2.1441755294799805
1663862596790161200,9.5671611328125,-2.46295428276062,1.0067977905273438,-1.7991795539855957
1663862596800049000,9.577048828125,-2.447059154510498,0.6654863357543945,-1.183485507965088
1663862596809936400,9.586936279296875,-2.5265746116638184,0.5411148071289062,-0.2981405258178711
1663862596819824000,9.59682421875,-2.3875322341918945,0.3418159484863281,0.724277138710022
1663862596829681400,9.606681396484374,-2.1789920330047607,-0.04125022888183594,1.4199438095092773
1663862596839569200,9.616569091796874,-1.8875868320465088,-0.5018482208251953,1.4732095003128052
1663862596849456600,9.62645654296875,-1.4003653526306152,-1.1425762176513672,0.7651994824409485
1663862596859344400,9.636344482421874,-1.517915964126587,-1.767934799194336,-0.2770082354545593
1663862596869232000,9.646232177734374,-1.8590319156646729,-2.3091001510620117,-1.144594669342041
1663862596879120000,9.656119873046874,-2.0353384017944336,-2.8094358444213867,-1.677501916885376
1663862596889007600,9.666007568359374,-2.0748119354248047,-3.0327701568603516,-1.6053740978240967
1663862596898895000,9.67589501953125,-1.9395166635513306,-3.0630836486816406,-1.3512041568756104
1663862596908782800,9.685782958984374,-1.6042481660842896,-3.2204504013061523,-1.3840274810791016
1663862596918640000,9.69564013671875,-1.3249320983886719,-3.7218122482299805,-1.4910104274749756
1663862596928497200,9.7054970703125,-1.189945101737976,-4.520971298217773,-1.3295698165893555
1663862596938385000,9.715385009765624,-0.9772913455963135,-5.306221008300781,-1.1010818481445312
1663862596948272600,9.725272705078124,-0.6141364574432373,-5.85694694519043,-0.8484469056129456
1663862596958160400,9.735160400390624,-0.5092610120773315,-6.120841979980469,-0.3623705506324768
1663862596968048000,9.745048095703124,-1.070413589477539,-6.4750213623046875,0.17259716987609863
1663862596977936000,9.754935791015624,-1.7963191270828247,-6.833970069885254,0.0031050443649291992
1663862596987793000,9.76479296875,-2.5973587036132812,-6.766530990600586,-0.8046509027481079
1663862596997680600,9.7746806640625,-3.4767823219299316,-5.707677841186523,-1.9665096998214722
1663862597007568400,9.784568359375,-4.505311965942383,-4.320072174072266,-3.142430067062378
1663862597017456000,9.7944560546875,-5.326465606689453,-3.541532516479492,-3.5615975856781006
1663862597027343600,9.804343505859375,-6.035980701446533,-3.3477210998535156,-3.407994270324707
1663862597037231400,9.8142314453125,-6.257925033569336,-3.168783187866211,-2.901242733001709
1663862597047119000,9.824119140625,-6.241611957550049,-2.990677833557129,-2.3795933723449707
1663862597057006800,9.8340068359375,-6.161428928375244,-2.668820381164551,-2.1989784240722656
1663862597066894600,9.84389453125,-5.786078453063965,-2.348292350769043,-2.5646915435791016
1663862597076782000,9.853781982421875,-5.086686611175537,-1.8744192123413086,-2.45967960357666
1663862597086639400,9.863639404296874,-3.974944591522217,-1.6756362915039062,-1.4353296756744385
1663862597096527000,9.873527099609374,-2.455601692199707,-1.8743057250976562,0.2488328218460083
1663862597106414800,9.883414794921874,-0.6258161067962646,-2.363462448120117,2.2667908668518066
1663862597116302300,9.89330224609375,1.2944557666778564,-3.051881790161133,4.441498756408691
1663862597126159600,9.90315966796875,3.3764877319335938,-3.537874221801758,6.64686393737793
1663862597136017000,9.913016845703124,4.635951042175293,-3.8874168395996094,8.145134925842285
1663862597145904400,9.922904296875,4.662428855895996,-4.440145492553711,8.202508926391602
1663862597155761700,9.93276171875,3.705901622772217,-4.603724479675293,6.971159934997559
1663862597165679900,9.942679931640624,1.8015329837799072,-4.128528594970703,4.750157356262207
1663862597175537200,9.952537109375,-0.5227031707763672,-3.6618423461914062,1.7949107885360718
1663862597185424600,9.962424560546875,-2.5007376670837402,-3.366605758666992,-0.8256546258926392
1663862597195312400,9.9723125,-2.6214852333068848,-2.7695446014404297,-2.520297050476074
1663862597205200100,9.9822001953125,-0.8775405883789062,-1.7533769607543945,-3.315518617630005
1663862597215057400,9.992057373046874,1.5278029441833496,-0.3193492889404297,-3.435351610183716
1663862597224975600,10.0019755859375,3.823639392852783,1.3461599349975586,-3.2106575965881348
1663862597234832600,10.01183251953125,5.502676486968994,2.4140758514404297,-3.126286506652832
1663862597244720400,10.021720458984374,6.394676685333252,2.7030649185180664,-3.4161159992218018
1663862597254608100,10.031608154296874,7.229215621948242,2.0974912643432617,-3.6397786140441895
1663862597264495900,10.041495849609374,7.1423869132995605,1.2264881134033203,-3.15837025642395
1663862597274383600,10.051383544921874,5.829681396484375,0.7755661010742188,-2.1705071926116943
1663862597284240600,10.06124072265625,4.37431001663208,0.4225292205810547,-1.5169668197631836
1663862597294128400,10.07112841796875,2.92236328125,0.0639181137084961,-1.041670560836792
1663862597304016100,10.08101611328125,2.0145859718322754,0.00350189208984375,-0.45090436935424805
1663862597313903900,10.09090380859375,2.486797332763672,0.5814719200134277,0.1008150577545166
1663862597323791400,10.100791259765625,3.6809587478637695,1.7547178268432617,0.24239015579223633
1663862597333679000,10.11067919921875,4.440492153167725,3.0182132720947266,0.9885163307189941
1663862597343566800,10.12056689453125,4.328200817108154,3.819550037384033,1.5497970581054688
1663862597353454600,10.13045458984375,4.342058181762695,4.223238468170166,1.668661117553711
1663862597363342300,10.14034228515625,4.480501174926758,4.579256534576416,1.8055555820465088
1663862597373199400,10.150199462890624,4.714040279388428,4.5425262451171875,2.117504358291626
1663862597383056600,10.160056640625,5.013794422149658,3.9335312843322754,2.2187488079071045
1663862597392944400,10.1699443359375,5.255633354187012,3.0035595893859863,1.977217435836792
1663862597402862600,10.179862548828124,5.4061431884765625,2.3499741554260254,1.6434288024902344
1663862597412750000,10.18975,5.191241264343262,2.11928129196167,1.682755470275879
1663862597422607400,10.199607421875,4.922253131866455,2.053696632385254,1.7521262168884277
1663862597432464600,10.209464599609374,4.549488067626953,2.1712088584899902,2.007638454437256
1663862597442382800,10.2193828125,4.276891231536865,2.4711270332336426,2.533802032470703
1663862597452270600,10.2292705078125,3.8937273025512695,2.7455921173095703,2.8264269828796387
1663862597462158000,10.239157958984375,3.7033119201660156,2.981421947479248,2.6138410568237305
1663862597472015400,10.249015380859374,3.040736675262451,2.827369213104248,1.7742552757263184
1663862597481903000,10.258903076171874,2.3412489891052246,2.611316680908203,1.2455744743347168
1663862597491760000,10.268760009765625,2.0051541328430176,2.6556615829467773,1.0416150093078613
1663862597501648000,10.27864794921875,1.7929997444152832,3.0480732917785645,0.9975557327270508
1663862597511535600,10.28853564453125,0.8052396774291992,3.2724757194519043,0.8282132148742676
1663862597521453800,10.298453857421874,-0.3511495590209961,2.974215030670166,0.22004985809326172
1663862597531341600,10.308341552734374,-0.8626413345336914,2.334714412689209,-0.8482701778411865
1663862597541229300,10.318229248046874,-1.393068790435791,1.9037652015686035,-1.666672706604004
1663862597551086300,10.32808642578125,-1.6410574913024902,1.1014246940612793,-2.1801857948303223
1663862597560943600,10.337943603515624,-3.250889301300049,-0.2342848777770996,-2.682729721069336
1663862597570831400,10.347831298828124,-2.875911235809326,-2.6057543754577637,-2.2107925415039062
1663862597580718800,10.35771875,-4.676940441131592,-5.798893451690674,-1.1303684711456299
1663862597590606600,10.367606689453124,-8.934867858886719,-10.396377563476562,-1.108501672744751
1663862597600494300,10.377494384765624,-2.5211181640625,-14.509944915771484,-0.3062105178833008
1663862597610382000,10.387382080078124,2.549640655517578,-13.215173721313477,0.5753982067108154
1663862597620269800,10.397269775390624,0.4274296760559082,-6.512755870819092,1.2613811492919922
1663862597630126800,10.407126953125,-0.3524775505065918,-1.635571002960205,0.09891772270202637
1663862597640045000,10.417045166015624,1.2535648345947266,1.57008695602417,0.30533528327941895
1663862597649932800,10.426932861328124,1.9170746803283691,3.522400379180908,0.7420861721038818
1663862597659820500,10.436820556640624,0.4739193916320801,3.384446620941162,0.08548712730407715
1663862597669677600,10.446677490234375,0.09551763534545898,-0.1192312240600586,-0.40484941005706787
1663862597679534800,10.456534912109374,0.28784847259521484,-2.599918842315674,-2.906890392303467
1663862597689453000,10.466453125,1.0490317344665527,-1.9979658126831055,-3.6430277824401855
1663862597699340800,10.4763408203125,2.6903719902038574,-0.7169370651245117,-3.0703213214874268
1663862597709228500,10.486228515625,3.061279773712158,-0.4411182403564453,-3.458214282989502
1663862597719116300,10.4961162109375,2.2240638732910156,-0.29515552520751953,-3.76594877243042
1663862597728973300,10.505973388671874,1.5853557586669922,-0.5662527084350586,-3.2516865730285645
1663862597738861000,10.515861083984374,2.0212278366088867,-2.104776382446289,-2.224730968475342
1663862597748718300,10.52571826171875,3.6034131050109863,-4.624090194702148,-1.7470426559448242
1663862597758636500,10.535636474609374,1.3492493629455566,-6.5711212158203125,-0.604154109954834
1663862597768524000,10.54552392578125,-1.2385940551757812,-5.467602729797363,0.8631956577301025
1663862597778411800,10.555411865234374,-2.0984296798706055,-2.9922285079956055,1.815260648727417
1663862597788299500,10.565299560546874,-0.7973871231079102,-0.3637266159057617,2.8703274726867676
1663862597798187300,10.575187255859374,1.0421390533447266,1.6857128143310547,3.741708278656006
1663862597808075000,10.585074951171874,0.9440474510192871,2.1612796783447266,3.186673164367676
1663862597817962500,10.59496240234375,0.034925222396850586,2.1966981887817383,2.2266716957092285
1663862597827819800,10.60481982421875,-0.20262575149536133,2.903376579284668,1.5594428777694702
1663862597837707500,10.61470751953125,0.36601686477661133,3.8886337280273438,0.9075976610183716
1663862597847595300,10.62459521484375,0.9123480319976807,4.1843671798706055,-0.061617374420166016
1663862597857482800,10.634482666015625,0.6473469734191895,4.359604835510254,-0.48560941219329834
1663862597867340000,10.644340087890624,0.480694055557251,3.5216026306152344,-0.9434176683425903
1663862597877227800,10.654227783203124,-0.7342729568481445,1.6643285751342773,-1.7391648292541504
1663862597887115500,10.664115478515624,-1.233917236328125,2.3860349655151367,-0.6323251724243164
1663862597897003000,10.6740029296875,0.5916681289672852,1.5620193481445312,1.1086645126342773
1663862597906890800,10.683890869140624,0.6808879375457764,-0.7002506256103516,2.1243066787719727
1663862597916778500,10.693778564453124,-0.0654137134552002,-0.8428831100463867,2.146233558654785
1663862597926635800,10.7036357421875,0.3726116418838501,0.8552341461181641,2.1452252864837646
1663862597936523500,10.7135234375,0.49525392055511475,2.763272285461426,1.6362704038619995
1663862597946411000,10.723410888671875,0.3712172508239746,2.6736679077148438,-0.3480342626571655
1663862597956298800,10.733298828125,-0.09631645679473877,2.498051643371582,-2.0938875675201416
1663862597966186500,10.7431865234375,-1.1758439540863037,1.5311050415039062,-3.6248717308044434
1663862597976074200,10.75307421875,-2.9232585430145264,1.163203239440918,-2.33878231048584
1663862597985962000,10.7629619140625,-3.7237703800201416,2.017104148864746,0.3908931016921997
1663862597995819000,10.772819091796874,-2.679894208908081,1.1243009567260742,-0.5800937414169312
1663862598005706800,10.782706787109374,-2.07029390335083,-0.08969593048095703,-2.244469404220581
1663862598015594500,10.792594482421874,-3.0540995597839355,-0.4522571563720703,-2.0174036026000977
1663862598025482200,10.802482177734374,-4.076015472412109,-0.6539230346679688,-1.9801990985870361
1663862598035369700,10.81236962890625,-4.354710102081299,-0.9530239105224609,-2.544151782989502
1663862598045257500,10.822257568359374,-4.398216724395752,-1.8757057189941406,-3.127642869949341
1663862598055114800,10.83211474609375,-3.98545503616333,-2.4587440490722656,-2.3857431411743164
1663862598064971800,10.8419716796875,-3.4444730281829834,-2.516855239868164,-1.5020216703414917
1663862598074829000,10.8518291015625,-2.466832399368286,-2.6734848022460938,-0.8837398290634155
1663862598084747300,10.861747314453124,-1.3349149227142334,-2.9498071670532227,-0.6923498511314392
1663862598094604500,10.8716044921875,-0.2655070424079895,-3.1631460189819336,-0.5101896524429321
1663862598104522800,10.881522705078124,-0.3597354292869568,-3.477799415588379,-0.8252308368682861
1663862598114410200,10.89141015625,-1.635732889175415,-3.819037437438965,-1.652906060218811
1663862598124298000,10.901298095703124,-3.1819729804992676,-3.403799057006836,-1.8618066310882568
1663862598134185700,10.911185791015624,-3.340226888656616,-2.85512638092041,-1.736682415008545
1663862598144073500,10.921073486328124,-2.385028839111328,-3.0353527069091797,-2.2008111476898193
1663862598153961200,10.930961181640624,-0.46280062198638916,-4.741977691650391,-4.324474334716797
1663862598163818200,10.940818359375,3.0704116821289062,-6.646244049072266,-4.562845230102539
1663862598173675500,10.950675537109374,2.2847931385040283,-5.494723320007324,-1.7546138763427734
1663862598183563300,10.960563232421874,-0.14631617069244385,-5.087879180908203,0.35103440284729004
1663862598193451000,10.970450927734374,-0.21278178691864014,-6.093493461608887,0.7316503524780273
1663862598203308000,10.98030810546875,3.3505775928497314,-5.633323669433594,1.242204189300537
1663862598213226200,10.990226318359374,3.3116424083709717,-2.4887170791625977,3.069758176803589
1663862598223083500,11.00008349609375,1.4030320644378662,-3.245425224304199,1.450697422027588
1663862598232971300,11.00997119140625,-3.1844983100891113,-5.106928825378418,-2.6197168827056885
1663862598242858800,11.019858642578125,-6.374292373657227,-1.8589143753051758,-6.2707414627075195
1663862598252746500,11.02974658203125,-1.2102992534637451,1.992650032043457,-3.376756429672241
1663862598262634200,11.03963427734375,14.821266174316406,-3.685053825378418,3.821774482727051
1663862598272522000,11.04952197265625,22.69044303894043,-10.025225639343262,4.645585060119629
1663862598282409700,11.05940966796875,9.054561614990234,-2.5871505737304688,10.50662612915039
1663862598292297200,11.069297119140625,-2.543333053588867,0.9080972671508789,16.042789459228516
1663862598302185000,11.07918505859375,-10.123799324035645,-4.367762565612793,13.65577507019043
1663862598312072700,11.08907275390625,-8.900790214538574,-9.75825023651123,-2.618476152420044
1663862598321960400,11.09896044921875,-4.341116905212402,-5.087430953979492,0.21183431148529053
1663862598331848200,11.10884814453125,-10.948721885681152,-2.6194276809692383,3.219886541366577
1663862598341705200,11.118705322265624,-21.646703720092773,-1.0090065002441406,4.077709197998047
1663862598351593000,11.128593017578124,-13.285591125488281,-1.8167152404785156,1.4111745357513428
1663862598361480700,11.138480712890624,-0.15185022354125977,-2.01088809967041,1.522537112236023
1663862598371368400,11.148368408203124,2.896134853363037,-1.7737407684326172,2.7913496494293213
1663862598381225500,11.1582255859375,10.86746883392334,1.046957015991211,4.900835037231445
1663862598391113200,11.16811328125,13.295207977294922,3.960932731628418,6.195179462432861
1663862598400970500,11.177970458984374,13.679140090942383,3.735391616821289,5.865030288696289
1663862598410827500,11.18782763671875,10.002544403076172,1.4288711547851562,4.850584030151367
1663862598420715300,11.19771533203125,4.106919765472412,0.8441977500915527,5.433846473693848
1663862598430603000,11.20760302734375,0.1338343620300293,1.9151344299316406,6.724814414978027
1663862598440521200,11.217521240234374,3.0252609252929688,5.700288772583008,8.24156379699707
1663862598450409000,11.227408935546874,1.717195987701416,2.070094585418701,6.934754848480225
1663862598460266000,11.237265869140625,-4.167334079742432,-1.3861312866210938,6.4793219566345215
1663862598470153700,11.24715380859375,-7.967148780822754,-0.09543275833129883,7.4931745529174805
1663862598480011000,11.257010986328124,-7.604628086090088,1.3346538543701172,7.691499710083008
1663862598489929200,11.26692919921875,-4.024052143096924,3.1231470108032227,8.108804702758789
1663862598499817000,11.27681689453125,0.9776773452758789,6.372304916381836,9.78055191040039
1663862598509704400,11.286704345703125,7.084667205810547,7.34652042388916,10.406291007995605
1663862598519592200,11.29659228515625,12.981454849243164,5.880395889282227,9.860349655151367
1663862598529480000,11.30647998046875,18.096426010131836,4.279483795166016,9.42715835571289
1663862598539367700,11.31636767578125,20.5421142578125,1.949047327041626,9.45040512084961
1663862598549224700,11.326224609375,13.458989143371582,-1.1022024154663086,8.865583419799805
1663862598559112400,11.336112548828124,5.678454399108887,-0.1744389533996582,8.540023803710938
1663862598569000200,11.346000244140624,3.6294937133789062,0.8871840238571167,7.79793643951416
1663862598578888000,11.355887939453124,3.405829429626465,0.9199737310409546,6.512217998504639
1663862598588775700,11.365775634765624,2.2550573348999023,1.5268617868423462,5.795435428619385
1663862598598663200,11.3756630859375,0.13286113739013672,1.4750316143035889,4.725099086761475
1663862598608551000,11.385551025390624,-2.15036678314209,-0.6107991337776184,3.1544363498687744
1663862598618408200,11.395408203125,-1.7428531646728516,-3.6347601413726807,2.8471720218658447
1663862598628296000,11.4052958984375,-0.498870849609375,-10.480021476745605,2.677870988845825
1663862598638153000,11.415153076171874,-0.5066242218017578,-19.17142105102539,1.9615596532821655
1663862598648010200,11.42501025390625,-0.8336524963378906,-25.6240291595459,0.8846167922019958
1663862598657898000,11.43489794921875,-0.8396329879760742,-29.526784896850586,-0.7121126651763916
1663862598667785700,11.44478564453125,0.0788125991821289,-29.54157257080078,-2.8090860843658447
1663862598677673200,11.454673095703125,2.0704116821289062,-26.217288970947266,-3.970301389694214
1663862598687530500,11.464530517578124,0.30989551544189453,-19.053415298461914,-9.61815357208252
1663862598697418200,11.474418212890624,1.109323501586914,-18.021482467651367,-12.42566967010498
1663862598707336400,11.48433642578125,4.672708511352539,-17.287912368774414,-11.171527862548828
1663862598717224200,11.49422412109375,10.672409057617188,-12.819613456726074,-9.471592903137207
1663862598727111700,11.504111572265625,13.762286186218262,-10.11331844329834,-9.4806489944458
1663862598736999400,11.51399951171875,12.896112442016602,-9.60536003112793,-10.73952579498291
1663862598746887200,11.52388720703125,12.010973930358887,-9.230255126953125,-10.299968719482422
1663862598756775000,11.53377490234375,11.991607666015625,-8.277021408081055,-6.95759391784668
1663862598766662700,11.54366259765625,8.71101188659668,-8.552083969116211,-2.8200230598449707
1663862598776550100,11.553550048828125,-8.991597175598145,-9.995424270629883,-0.9673689603805542
1663862598786438000,11.56343798828125,-20.937042236328125,-9.195900917053223,-0.22356319427490234
1663862598796295200,11.573295166015624,-14.109052658081055,-8.517244338989258,-0.8157213926315308
1663862598806183000,11.583182861328124,-6.8110175132751465,-7.272777080535889,-2.167841911315918
1663862598816070400,11.5930703125,-4.899096965789795,-6.710988998413086,-2.267385959625244
1663862598825927700,11.602927734375,-5.424632549285889,-6.692513465881348,-3.126349925994873
1663862598835815400,11.6128154296875,-5.475955963134766,-5.585792541503906,-3.6366875171661377
1663862598845703200,11.622703125,-5.597827434539795,-4.159358978271484,-3.5264086723327637
1663862598855590700,11.632590576171875,-5.567385196685791,-2.6145858764648438,-3.1621739864349365
1663862598865478400,11.642478515625,-4.035001277923584,-1.7882146835327148,-2.66766095161438
1663862598875335700,11.652335693359374,-2.860105037689209,-2.4643707275390625,-2.054990291595459
1663862598885223400,11.662223388671874,1.372380256652832,-1.7247276306152344,1.7506368160247803
1663862598895080400,11.67208056640625,-0.03227043151855469,-2.556962013244629,1.633432388305664
1663862598904968200,11.68196826171875,-3.99997615814209,-2.6871681213378906,0.5658366680145264
1663862598914825500,11.691825439453124,-4.588218688964844,-1.1882438659667969,1.7934229373931885
1663862598924743700,11.70174365234375,-5.26229190826416,-0.5457773208618164,2.0212275981903076
1663862598934600700,11.7116005859375,-4.904370307922363,-1.0808906555175781,2.0115537643432617
1663862598944519000,11.721518798828125,-3.898855209350586,-2.172679901123047,2.3016951084136963
1663862598954376200,11.731376220703124,-2.295804500579834,-3.5328102111816406,1.3819459676742554
1663862598964233500,11.7412333984375,1.8245654106140137,-4.280264854431152,-0.1882082223892212
1663862598974121000,11.751120849609375,5.348080158233643,-3.2855730056762695,-0.15165245532989502
1663862598984008700,11.7610087890625,6.218852519989014,-1.5113601684570312,0.7574541568756104
1663862598993896400,11.770896484375,5.0310750007629395,-0.9142417907714844,1.0331707000732422
1663862599003784200,11.7807841796875,3.1433568000793457,-1.078897476196289,0.99721360206604
1663862599013672000,11.790671875,1.1889715194702148,-1.405747413635254,0.8692282438278198
1663862599023559400,11.800559326171875,0.6270751953125,-1.7318840026855469,0.6783400774002075
1663862599033468000,11.810468017578126,0.8187580108642578,-1.8906517028808594,0.6595495939254761
1663862599043325200,11.8203251953125,0.4262981414794922,-2.071639060974121,0.6508495807647705
1663862599053243400,11.830243408203126,-1.0600471496582031,-2.3757524490356445,0.9253660440444946
1663862599063131100,11.840131103515626,-2.326374053955078,-2.284152030944824,1.0162813663482666
1663862599072979000,11.84997900390625,-2.888608455657959,-2.1667022705078125,0.6400054693222046
1663862599082866700,11.85986669921875,-3.2787914276123047,-1.6516542434692383,0.458199143409729
1663862599092754200,11.869754150390625,-3.095844268798828,-0.689631462097168,0.39681756496429443
1663862599102642000,11.879641845703125,-2.335826873779297,-0.029920578002929688,0.3719581365585327
1663862599112529700,11.88952978515625,-1.6714153289794922,0.08716487884521484,0.2915916442871094
1663862599122417400,11.89941748046875,-1.4319353103637695,-0.2015542984008789,-0.0339430570602417
1663862599132305200,11.90930517578125,-1.1829280853271484,-0.7241554260253906,-0.3991854190826416
1663862599142192600,11.919192626953125,-0.7383198738098145,-1.2324647903442383,-0.7504123449325562
1663862599152080400,11.929080322265625,0.04695844650268555,-1.5006446838378906,-1.1164103746414185
1663862599161968000,11.938968017578125,0.7922496795654297,-1.5438623428344727,-1.3068227767944336
1663862599171856000,11.94885595703125,1.1674690246582031,-1.379338264465332,-1.0959179401397705
1663862599181713200,11.958713134765626,1.0764551162719727,-1.1510114669799805,-0.4113438129425049
1663862599191600600,11.9686005859375,0.7319211959838867,-1.0809640884399414,0.27155613899230957
1663862599201458000,11.9784580078125,0.32929325103759766,-1.0923919677734375,0.8075122237205505
1663862599211345700,11.988345703125,-0.09170770645141602,-1.0639076232910156,1.2325718402862549
1663862599221233400,11.9982333984375,-0.2176346778869629,-0.8741798400878906,1.3547804355621338
1663862599231121000,12.008120849609375,-0.10669517517089844,-0.7963962554931641,1.1509437561035156
1663862599241008600,12.018008544921875,-0.11667156219482422,-0.9375724792480469,1.015030026435852
1663862599250896400,12.027896484375,-0.2960166931152344,-1.1031265258789062,1.1612497568130493
1663862599260784000,12.0377841796875,-0.4874591827392578,-1.3187990188598633,1.139722466468811
1663862599270672000,12.047671875,-0.7236928939819336,-1.2117156982421875,0.9169912934303284
1663862599280559400,12.057559326171875,-0.7908225059509277,-1.0732784271240234,0.36418163776397705
1663862599290447000,12.067447021484375,-0.6417407989501953,-1.1446466445922852,-0.27244246006011963
1663862599300304400,12.077304443359376,-0.7948369979858398,-1.346816062927246,-0.5925140976905823
1663862599310192000,12.087192138671876,-1.0028157234191895,-1.4946012496948242,-0.6661484837532043
1663862599320079600,12.09707958984375,-0.9916410446166992,-1.593465805053711,-0.7040822505950928
1663862599329967400,12.10696728515625,-0.6174273490905762,-1.9131178855895996,-0.8504298329353333
1663862599339855000,12.116855224609376,-0.14940834045410156,-1.7831287384033203,-0.8195895552635193
1663862599349742800,12.126742919921876,0.11561393737792969,-1.531987190246582,-0.6489054560661316
1663862599359599900,12.136599853515625,-0.12225532531738281,-1.558150291442871,-0.5128301978111267
1663862599369487600,12.146487548828125,-0.4606761932373047,-1.7462482452392578,-0.45604509115219116
1663862599379375400,12.156375244140625,-0.4306907653808594,-2.0199332237243652,-0.4047864079475403
1663862599389232600,12.166232666015626,0.4448390007019043,-2.0404930114746094,-0.4938904643058777
1663862599399120100,12.1761201171875,2.288149356842041,-1.8188285827636719,-0.7804197669029236
1663862599409007900,12.1860078125,3.785480499267578,-1.62913179397583,-0.9681557416915894
1663862599418895600,12.1958955078125,4.00399112701416,-1.6475248336791992,-0.7104790806770325
1663862599428783400,12.205783447265626,3.2589359283447266,-1.6131701469421387,-0.1320745348930359
1663862599438640600,12.215640625,2.584578514099121,-1.4508934020996094,0.12336552143096924
1663862599448497700,12.22549755859375,1.8831086158752441,-1.3003320693969727,0.07221013307571411
1663862599458415900,12.235415771484375,1.2024126052856445,-1.1192584037780762,-0.043410658836364746
1663862599468273200,12.245273193359376,1.6237263679504395,-0.9872498512268066,-0.24126195907592773
1663862599478130200,12.255130126953125,2.0163984298706055,-1.063023567199707,-0.16933727264404297
1663862599488018000,12.265017822265625,1.665391445159912,-1.093111515045166,0.3987605571746826
1663862599497936100,12.27493603515625,1.126129150390625,-1.145860195159912,0.7289744019508362
1663862599507823900,12.284823974609376,0.05514812469482422,-0.7885379791259766,1.0166192054748535
1663862599517711600,12.294711669921876,-0.5517067909240723,-0.3860960006713867,1.0143437385559082
1663862599527599400,12.304599365234376,-0.9715256690979004,-0.3269357681274414,0.7400355935096741
1663862599537486800,12.31448681640625,-1.5682287216186523,-0.3644990921020508,0.6982519030570984
1663862599547374600,12.32437451171875,-1.70536470413208,-0.5071530342102051,0.691947340965271
1663862599557262300,12.334262451171876,-1.7041101455688477,-0.6212759017944336,0.6588215231895447
1663862599567119600,12.34411962890625,-1.506148338317871,-0.691871166229248,0.5541869401931763
1663862599577007000,12.354007080078125,-1.397921085357666,-0.7862749099731445,0.5066370964050293
1663862599586864400,12.363864501953126,-1.0282087326049805,-0.6126227378845215,0.5077927112579346
1663862599596752100,12.373752197265626,-0.6090202331542969,-0.5111918449401855,0.403353214263916
1663862599606639900,12.383639892578126,-0.527656078338623,-0.5051355361938477,0.45767825841903687
1663862599616527400,12.39352734375,-0.3667731285095215,-0.6239833831787109,0.4607461094856262
1663862599626415000,12.4034150390625,0.11229228973388672,-0.7674994468688965,0.22656738758087158
1663862599636302800,12.413302734375,0.5375795364379883,-0.8222446441650391,-0.03948730230331421
1663862599646190600,12.423190673828126,0.8162069320678711,-0.8483967781066895,-0.1618335247039795
1663862599656078300,12.433078369140626,1.2637405395507812,-0.8678836822509766,-0.1040182113647461
1663862599665966000,12.442966064453126,1.3780512809753418,-0.7986831665039062,0.11770409345626831
1663862599675853600,12.452853515625,0.8888611793518066,-0.7201933860778809,0.34857749938964844
1663862599685710800,12.4627109375,0.3070225715637207,-0.668698787689209,0.2941659092903137
1663862599695568100,12.472568115234376,-0.07224416732788086,-0.6239714622497559,0.0778922438621521
1663862599705455600,12.48245556640625,-0.4399533271789551,-0.533968448638916,-0.1733468770980835
1663862599715343400,12.49234326171875,-1.1083507537841797,-0.3899369239807129,-0.39057278633117676
1663862599725200600,12.50220068359375,-1.9686279296875,-0.18122386932373047,-0.5270541906356812
1663862599735088400,12.51208837890625,-2.46846342086792,0.021631717681884766,-0.6006361246109009
1663862599744976000,12.521975830078125,-2.626352310180664,0.19233369827270508,-0.5113241076469421
1663862599754863600,12.531863525390625,-2.381202220916748,0.23281145095825195,-0.3067561388015747
1663862599764721000,12.541720947265626,-1.627699375152588,0.13979387283325195,0.019434332847595215
1663862599774608600,12.551608642578126,-0.4465184211730957,-0.05405759811401367,0.25408419966697693
1663862599784526800,12.56152685546875,0.9130487442016602,-0.3642129898071289,0.1511346995830536
1663862599794384000,12.5713837890625,1.8249225616455078,-0.8442816734313965,-0.01648065447807312
1663862599804271600,12.581271728515626,2.0803580284118652,-1.2308645248413086,-0.1387622356414795
1663862599814159400,12.591159423828126,1.538428783416748,-1.381441593170166,-0.20395368337631226
1663862599824047000,12.601047119140626,0.5344223976135254,-1.2456226348876953,-0.3228326439857483
1663862599833904000,12.610904052734375,-0.5316348075866699,-0.944150447845459,-0.5112599730491638
1663862599843822300,12.620822265625,-1.420015811920166,-0.6485295295715332,-0.6363493204116821
1663862599853679600,12.6306796875,-1.9340133666992188,-0.39913272857666016,-0.7403813600540161
1663862599863567400,12.6405673828125,-1.9754900932312012,-0.29294872283935547,-0.7991859912872314
1663862599873424400,12.65042431640625,-1.7055692672729492,-0.3798866271972656,-0.8595889806747437
1663862599883342600,12.660342529296875,-1.4552736282348633,-0.5701513290405273,-0.7731418609619141
1663862599893230300,12.670230224609375,-1.3880376815795898,-0.6903948783874512,-0.529584527015686
1663862599903118000,12.6801181640625,-1.4331259727478027,-0.6942110061645508,-0.30637186765670776
1663862599913005800,12.690005859375,-1.457930088043213,-0.5855259895324707,-0.17537039518356323
1663862599922862800,12.69986279296875,-1.4838175773620605,-0.40316343307495117,0.03879040479660034
1663862599932750600,12.70975048828125,-1.5477666854858398,-0.16268396377563477,0.43589818477630615
1663862599942638300,12.719638427734376,-1.5682663917541504,0.13567113876342773,0.868394136428833
1663862599952495600,12.72949560546875,-1.0490283966064453,0.36820030212402344,0.8287526965141296
1663862599962413800,12.739413818359376,-0.49744749069213867,0.327817440032959,0.525403618812561
1663862599972270800,12.749270751953125,-0.24233436584472656,-0.07076549530029297,0.15777474641799927
