time,seconds_elapsed,z,y,x
1663862587471078400,0.248078369140625,9.545910835266113,2.2005808353424072,0.45102664828300476
1663862587480996600,0.25799658203125,9.53974723815918,2.2535905838012695,0.29144003987312317
1663862587490914800,0.267914794921875,9.52578353881836,2.3225605487823486,0.18854090571403503
1663862587500772000,0.277772216796875,9.51927661895752,2.355400323867798,0.07653581351041794
1663862587510629400,0.28762939453125,9.535117149353027,2.288907527923584,-0.11319060623645782
1663862587520486400,0.297486328125,9.560062408447266,2.1661951541900635,-0.2884245812892914
1663862587530404600,0.307404541015625,9.583531379699707,2.0381813049316406,-0.4148821234703064
1663862587540262000,0.317261962890625,9.596782684326172,1.93407142162323,-0.5757816433906555
1663862587550149600,0.327149658203125,9.595246315002441,1.8780585527420044,-0.7579788565635681
1663862587560037000,0.337037109375,9.587300300598145,1.8913962841033936,-0.8226026296615601
1663862587569924900,0.3469248046875,9.569062232971191,2.0127224922180176,-0.7432230710983276
1663862587579812600,0.3568125,9.5333890914917,2.222552537918091,-0.5874916911125183
1663862587589670000,0.366669921875,9.498340606689453,2.3951587677001953,-0.4638267755508423
1663862587599588000,0.376588134765625,9.489283561706543,2.4338464736938477,-0.4475177228450775
1663862587609475600,0.3864755859375,9.50447940826416,2.3544259071350098,-0.5403248071670532
1663862587619363300,0.39636328125,9.513067245483398,2.289179563522339,-0.6569632887840271
1663862587629251000,0.4062509765625,9.505925178527832,2.324949264526367,-0.6343446969985962
1663862587639138800,0.416138916015625,9.481819152832031,2.4561033248901367,-0.48273617029190063
1663862587649026600,0.426026611328125,9.449156761169434,2.6048054695129395,-0.3143337070941925
1663862587658883600,0.435883544921875,9.430229187011719,2.681644916534424,-0.2234719693660736
1663862587668771300,0.445771240234375,9.430899620056152,2.6791903972625732,-0.22466911375522614
1663862587678659000,0.4556591796875,9.435227394104004,2.6588759422302246,-0.27797091007232666
1663862587688546800,0.465546875,9.426316261291504,2.6868090629577637,-0.3098568320274353
1663862587698434600,0.4754345703125,9.412335395812988,2.739548444747925,-0.27058714628219604
1663862587708322000,0.485322021484375,9.405948638916016,2.7692601680755615,-0.1724262833595276
1663862587718179300,0.495179443359375,9.40229606628418,2.7869648933410645,0.006639566272497177
1663862587728067000,0.505067138671875,9.383917808532715,2.8358395099639893,0.2655142843723297
1663862587737954800,0.514954833984375,9.353433609008789,2.8963377475738525,0.5430311560630798
1663862587747842300,0.52484228515625,9.322635650634766,2.9346187114715576,0.8042905926704407
1663862587757730000,0.53472998046875,9.298626899719238,2.939652919769287,1.0316824913024902
1663862587767617800,0.54461767578125,9.278274536132812,2.928384780883789,1.228240966796875
1663862587777475000,0.55447509765625,9.25354290008545,2.910982131958008,1.4382343292236328
1663862587787368000,0.564367919921875,9.224801063537598,2.8613429069519043,1.6988614797592163
1663862587797225200,0.57422509765625,9.17713451385498,2.765470027923584,2.074307918548584
1663862587807113000,0.584113037109375,9.087324142456055,2.6315321922302246,2.5818514823913574
1663862587817000700,0.594000732421875,8.91910171508789,2.470879077911377,3.2426490783691406
1663862587826888200,0.60388818359375,8.62537670135498,2.3109099864959717,4.0537590980529785
1663862587836745500,0.613745361328125,8.17772102355957,2.183605670928955,4.952487468719482
1663862587846633200,0.62363330078125,7.639398097991943,2.077012300491333,5.787572860717773
1663862587856521000,0.63352099609375,7.155334949493408,1.9968856573104858,6.401875972747803
1663862587866408400,0.643408447265625,6.87412691116333,1.9404542446136475,6.719479560852051
1663862587876296200,0.653296142578125,6.817434787750244,1.872662901878357,6.7960357666015625
1663862587886184000,0.663183837890625,6.841037273406982,1.714704155921936,6.8139848709106445
1663862587896071700,0.67307177734375,6.854540824890137,1.4566760063171387,6.860301971435547
1663862587905959400,0.68295947265625,6.81738805770874,1.1238173246383667,6.959213733673096
1663862587915847200,0.69284716796875,6.513935565948486,0.7674492001533508,7.290408611297607
1663862587925734700,0.702734619140625,5.788668155670166,0.37628525495529175,7.906965732574463
1663862587935622400,0.712622314453125,5.112600803375244,-0.11591619998216629,8.367691040039062
1663862587945479700,0.722479736328125,4.751677989959717,-0.6459949016571045,8.554217338562012
1663862587955367400,0.732367431640625,4.524608612060547,-1.264855980873108,8.60804557800293
1663862587965255000,0.7422548828125,4.284383773803711,-1.9874615669250488,8.594442367553711
1663862587975142700,0.752142578125,4.07637882232666,-2.713374376296997,8.496537208557129
1663862587985030400,0.762030517578125,3.9756290912628174,-3.329573392868042,8.323383331298828
1663862587994887700,0.7718876953125,3.9283969402313232,-3.8175055980682373,8.134170532226562
1663862588004775200,0.781775146484375,3.878166675567627,-4.208878040313721,7.963388919830322
1663862588014663000,0.791662841796875,3.820202112197876,-4.541314125061035,7.807233810424805
1663862588024550700,0.801550537109375,3.790198802947998,-4.825052261352539,7.6500749588012695
1663862588034438400,0.8114384765625,3.7821414470672607,-5.061546802520752,7.499769687652588
1663862588044326100,0.821326171875,3.771873950958252,-5.216532230377197,7.398049831390381
1663862588054183200,0.83118310546875,3.7438457012176514,-5.258655071258545,7.382449150085449
1663862588064071000,0.84107080078125,3.699397087097168,-5.20424747467041,7.443161964416504
1663862588073958700,0.850958740234375,3.6672866344451904,-5.074255466461182,7.548069000244141
1663862588083846400,0.860846435546875,3.6728320121765137,-4.882441520690918,7.670884132385254
1663862588093734000,0.87073388671875,3.7112276554107666,-4.655263423919678,7.792669296264648
1663862588103591200,0.880591064453125,3.754847288131714,-4.404896259307861,7.916337013244629
1663862588113479000,0.89047900390625,3.7715036869049072,-4.126463890075684,8.057198524475098
1663862588123366700,0.90036669921875,3.725249767303467,-3.8268065452575684,8.224867820739746
1663862588133254100,0.910254150390625,3.6212728023529053,-3.530264139175415,8.402024269104004
1663862588143142000,0.920141845703125,3.496965169906616,-3.26444673538208,8.560667037963867
1663862588153029600,0.930029541015625,3.393463373184204,-3.0348594188690186,8.685873985290527
1663862588162887000,0.939886962890625,3.31321120262146,-2.8463737964630127,8.780158996582031
1663862588172774700,0.949774658203125,3.195701837539673,-2.741448402404785,8.856767654418945
1663862588182662100,0.959662109375,2.980142831802368,-2.770254135131836,8.922715187072754
1663862588192519400,0.96951953125,2.69817852973938,-2.8672993183135986,8.981581687927246
1663862588202407200,0.9794072265625,2.3986737728118896,-2.9592974185943604,9.036554336547852
1663862588212295000,0.989294921875,2.109995126724243,-3.0127594470977783,9.090741157531738
1663862588222182400,0.999182373046875,1.884181261062622,-3.027275562286377,9.135417938232422
1663862588232070100,1.009070068359375,1.6630600690841675,-3.016099214553833,9.181924819946289
1663862588241958000,1.0189580078125,1.4280322790145874,-2.976607322692871,9.234225273132324
1663862588251845600,1.028845703125,1.285065770149231,-3.018207311630249,9.241722106933594
1663862588261733400,1.0387333984375,1.3574607372283936,-3.0658984184265137,9.215636253356934
1663862588271620900,1.048620849609375,1.6283224821090698,-2.9977338314056396,9.194157600402832
1663862588281478100,1.05847802734375,1.7785276174545288,-2.8574161529541016,9.210994720458984
1663862588291366000,1.068365966796875,1.7195541858673096,-2.6661882400512695,9.279275894165039
1663862588301253600,1.078253662109375,1.5500767230987549,-2.491664171218872,9.35731029510498
1663862588311141000,1.08814111328125,1.395548939704895,-2.352097749710083,9.417562484741211
1663862588321028900,1.09802880859375,1.302280306816101,-2.240037202835083,9.458154678344727
1663862588330886100,1.10788623046875,1.2252129316329956,-2.1670310497283936,9.485421180725098
1663862588340743200,1.1177431640625,1.1164557933807373,-2.170680522918701,9.498002052307129
1663862588350631000,1.127630859375,1.0627273321151733,-2.3503408432006836,9.461337089538574
1663862588360518700,1.1375185546875,0.9888426661491394,-2.6592581272125244,9.387274742126465
1663862588370376000,1.1473759765625,0.7493197321891785,-3.029301404953003,9.296895027160645
1663862588380263400,1.157263427734375,0.4097142517566681,-3.499692440032959,9.151758193969727
1663862588390151200,1.167151123046875,0.09601499885320663,-4.026445388793945,8.941415786743164
1663862588400039000,1.177038818359375,-0.11811371892690659,-4.5400800704956055,8.691611289978027
1663862588409926700,1.1869267578125,-0.22654859721660614,-5.005133628845215,8.430167198181152
1663862588419783700,1.19678369140625,-0.28465789556503296,-5.398495674133301,8.18203067779541
1663862588429671400,1.20667138671875,-0.43087390065193176,-5.694860458374023,7.9720330238342285
1663862588439589600,1.216589599609375,-0.6902880668640137,-5.9554033279418945,7.760609149932861
1663862588449477400,1.226477294921875,-0.930388867855072,-6.2732834815979,7.480018615722656
1663862588459365000,1.236365234375,-0.981194794178009,-6.630346775054932,7.158641815185547
1663862588469222400,1.246222412109375,-0.8628954887390137,-6.958201885223389,6.856327056884766
1663862588479079400,1.256079345703125,-0.7601578831672668,-7.212701797485352,6.600718021392822
1663862588488967200,1.26596728515625,-0.8172050714492798,-7.36378288269043,6.424739360809326
1663862588498855000,1.27585498046875,-0.907008707523346,-7.468116283416748,6.290863513946533
1663862588508742700,1.28574267578125,-0.9360721707344055,-7.57213020324707,6.160926342010498
1663862588518630100,1.295630126953125,-0.9097402095794678,-7.70261812210083,6.001036167144775
1663862588528518000,1.305517822265625,-0.8993573784828186,-7.818466663360596,5.850907802581787
1663862588538405600,1.315405517578125,-0.921525776386261,-7.868927478790283,5.779373645782471
1663862588548293400,1.32529345703125,-0.9603274464607239,-7.878897190093994,5.759438991546631
1663862588558181000,1.33518115234375,-1.0228164196014404,-7.889684200286865,5.73385763168335
1663862588568068600,1.345068603515625,-1.0962653160095215,-7.910717964172363,5.691145420074463
1663862588577956400,1.354956298828125,-1.1539154052734375,-7.935296058654785,5.6453471183776855
1663862588587844000,1.364843994140625,-1.1752885580062866,-7.952448844909668,5.61672830581665
1663862588597701400,1.374701416015625,-1.1859761476516724,-7.94570779800415,5.62401819229126
1663862588607558400,1.384558349609375,-1.1952502727508545,-7.8987884521484375,5.6877851486206055
1663862588617446100,1.394446044921875,-1.223354697227478,-7.821308612823486,5.787998199462891
1663862588627334000,1.404333984375,-1.2548340559005737,-7.767667293548584,5.853128910064697
1663862588637221600,1.4142216796875,-1.2623215913772583,-7.749565124511719,5.875472068786621
1663862588647109000,1.424109130859375,-1.2635842561721802,-7.749029636383057,5.875906944274902
1663862588656996900,1.433996826171875,-1.2842262983322144,-7.7697367668151855,5.844000816345215
1663862588666884600,1.443884521484375,-1.2984074354171753,-7.837319374084473,5.749866008758545
1663862588676742000,1.453741943359375,-1.3096221685409546,-7.939582347869873,5.605203151702881
1663862588686629600,1.463629638671875,-1.324476718902588,-8.055331230163574,5.4339470863342285
1663862588696517000,1.47351708984375,-1.3549813032150269,-8.185154914855957,5.228540897369385
1663862588706404900,1.48340478515625,-1.4242901802062988,-8.31866455078125,4.994156360626221
1663862588716292600,1.493292724609375,-1.540879487991333,-8.45246696472168,4.72777795791626
1663862588726180400,1.503180419921875,-1.7619576454162598,-8.568204879760742,4.433030128479004
1663862588736068000,1.513068115234375,-2.017486095428467,-8.65972900390625,4.136332035064697
1663862588745955600,1.52295556640625,-2.164541006088257,-8.748048782348633,3.8674001693725586
1663862588755843300,1.53284326171875,-2.2191317081451416,-8.832110404968262,3.6386351585388184
1663862588765731000,1.54273095703125,-2.2386789321899414,-8.91610336303711,3.4149386882781982
1663862588775618800,1.552618896484375,-2.2255756855010986,-9.016274452209473,3.150238513946533
1663862588785475800,1.562475830078125,-2.1769094467163086,-9.141982078552246,2.8027889728546143
1663862588795363600,1.572363525390625,-2.097231864929199,-9.27777099609375,2.38641357421875
1663862588805251300,1.582251220703125,-2.0075278282165527,-9.396129608154297,1.9628971815109253
1663862588815139000,1.59213916015625,-1.9154539108276367,-9.491898536682129,1.550896167755127
1663862588825026800,1.60202685546875,-1.8002331256866455,-9.572837829589844,1.1359256505966187
1663862588834914300,1.611914306640625,-1.6813654899597168,-9.633869171142578,0.7293439507484436
1663862588844771600,1.621771484375,-1.5487291812896729,-9.676846504211426,0.3611890971660614
1663862588854659300,1.631659423828125,-1.3844863176345825,-9.708366394042969,0.03464319556951523
1663862588864547000,1.641547119140625,-1.2003977298736572,-9.729736328125,-0.24831269681453705
1663862588874434600,1.6514345703125,-1.0046573877334595,-9.742378234863281,-0.4970925748348236
1663862588884322300,1.661322265625,-0.7781201601028442,-9.748856544494629,-0.7243659496307373
1663862588894179600,1.6711796875,-0.5461882948875427,-9.74654483795166,-0.9364499449729919
1663862588904067300,1.6810673828125,-0.3340815305709839,-9.738471031188965,-1.1049734354019165
1663862588913955000,1.690955078125,-0.15183882415294647,-9.729598999023438,-1.2174770832061768
1663862588923842600,1.700842529296875,-0.016494639217853546,-9.720990180969238,-1.293235421180725
1663862588933730300,1.710730224609375,0.06592825800180435,-9.713125228881836,-1.3495352268218994
1663862588943618000,1.7206181640625,0.10372570157051086,-9.706562995910645,-1.393649935722351
1663862588953475300,1.730475341796875,0.0941840186715126,-9.701689720153809,-1.4278510808944702
1663862588963362800,1.74036279296875,0.043347373604774475,-9.6983642578125,-1.4526646137237549
1663862588973220000,1.75022021484375,-0.040941834449768066,-9.695985794067383,-1.4685231447219849
1663862588983077400,1.760077392578125,-0.15889093279838562,-9.693604469299316,-1.476207971572876
1663862588992995600,1.76999560546875,-0.30713528394699097,-9.689811706542969,-1.477698564529419
1663862589002883000,1.779883056640625,-0.47599825263023376,-9.683398246765137,-1.475000023841858
1663862589012770800,1.789770751953125,-0.6625946760177612,-9.673225402832031,-1.4697214365005493
1663862589022658600,1.799658447265625,-0.8674627542495728,-9.657270431518555,-1.4680023193359375
1663862589032546300,1.80954638671875,-1.0870333909988403,-9.634093284606934,-1.4741047620773315
1663862589042434000,1.81943408203125,-1.3236305713653564,-9.604411125183105,-1.4743459224700928
1663862589052321500,1.829321533203125,-1.5602014064788818,-9.570716857910156,-1.4620360136032104
1663862589062178800,1.8391787109375,-1.7796334028244019,-9.532262802124023,-1.4626175165176392
1663862589072066600,1.849066650390625,-1.9941445589065552,-9.485657691955566,-1.4886499643325806
1663862589081954300,1.858954345703125,-2.2171778678894043,-9.428853034973145,-1.5333802700042725
1663862589091841800,1.868841796875,-2.449432373046875,-9.361432075500488,-1.5919307470321655
1663862589101729500,1.8787294921875,-2.688765287399292,-9.283584594726562,-1.6601173877716064
1663862589111586800,1.8885869140625,-2.9437415599823,-9.192537307739258,-1.7326369285583496
1663862589121474600,1.898474609375,-3.1984076499938965,-9.090246200561523,-1.8187912702560425
1663862589131331600,1.90833154296875,-3.439441442489624,-8.980695724487305,-1.9203492403030396
1663862589141219300,1.91821923828125,-3.676394462585449,-8.863381385803223,-2.0236027240753174
1663862589151107000,1.928107177734375,-3.913069009780884,-8.740074157714844,-2.1140923500061035
1663862589160994800,1.937994873046875,-4.148681640625,-8.610896110534668,-2.193469762802124
1663862589170882600,1.947882568359375,-4.375553131103516,-8.476364135742188,-2.2751197814941406
1663862589180770000,1.95777001953125,-4.591664791107178,-8.336833000183105,-2.363095998764038
1663862589190657800,1.96765771484375,-4.7914323806762695,-8.190709114074707,-2.4748432636260986
1663862589200515000,1.97751513671875,-4.968864440917969,-8.036877632141113,-2.6247634887695312
1663862589210402800,1.98740283203125,-5.123615264892578,-7.8757123947143555,-2.8092916011810303
1663862589220290300,1.997290283203125,-5.267753601074219,-7.707242488861084,-3.0032591819763184
1663862589230178000,2.007177978515625,-5.416728973388672,-7.531165599822998,-3.179776906967163
1663862589240035300,2.017035400390625,-5.578816890716553,-7.347916126251221,-3.3249528408050537
1663862589249923000,2.026923095703125,-5.742656230926514,-7.162192344665527,-3.4489543437957764
1663862589259810600,2.036810546875,-5.87847900390625,-6.991067409515381,-3.5691514015197754
1663862589269698300,2.0466982421875,-5.981503009796143,-6.834216594696045,-3.699390172958374
1663862589279555600,2.0565556640625,-6.0697855949401855,-6.676938533782959,-3.8401269912719727
1663862589289443300,2.066443359375,-6.155608177185059,-6.516787052154541,-3.9762229919433594
1663862589299300400,2.07630029296875,-6.241340160369873,-6.360093116760254,-4.094542026519775
1663862589309218600,2.086218505859375,-6.323692321777344,-6.208527565002441,-4.199463367462158
1663862589319075800,2.096075927734375,-6.396759986877441,-6.065681457519531,-4.296435832977295
1663862589328994000,2.105994140625,-6.460835933685303,-5.9315409660339355,-4.3868913650512695
1663862589338881800,2.1158818359375,-6.511724472045898,-5.810028553009033,-4.473410129547119
1663862589348769300,2.125769287109375,-6.546797752380371,-5.7049736976623535,-4.556654930114746
1663862589358626600,2.13562646484375,-6.566349029541016,-5.615581035614014,-4.638826370239258
1663862589368514300,2.145514404296875,-6.571798801422119,-5.538920879364014,-4.722520351409912
1663862589378402000,2.155402099609375,-6.563207149505615,-5.477385997772217,-4.805510520935059
1663862589388259000,2.165259033203125,-6.545795440673828,-5.4320173263549805,-4.880179405212402
1663862589398177300,2.17517724609375,-6.524575710296631,-5.403449058532715,-4.939944267272949
1663862589408065000,2.18506494140625,-6.50628662109375,-5.391098976135254,-4.977416515350342
1663862589417922300,2.19492236328125,-6.493174076080322,-5.394464015960693,-4.990875720977783
1663862589427779300,2.204779296875,-6.486631870269775,-5.4124250411987305,-4.979923725128174
1663862589437667000,2.2146669921875,-6.490377426147461,-5.443206787109375,-4.94134521484375
1663862589447554800,2.224554931640625,-6.501256465911865,-5.486791610717773,-4.878438949584961
1663862589457442600,2.234442626953125,-6.515812873840332,-5.545785903930664,-4.791536808013916
1663862589467330300,2.244330322265625,-6.5292439460754395,-5.621617317199707,-4.683671951293945
1663862589477217800,2.2542177734375,-6.532660007476807,-5.713958740234375,-4.565678596496582
1663862589487105500,2.26410546875,-6.515387535095215,-5.824680805206299,-4.448955535888672
1663862589496993300,2.2739931640625,-6.4707489013671875,-5.956951141357422,-4.337571620941162
1663862589506850600,2.2838505859375,-6.40920877456665,-6.106630802154541,-4.219180583953857
1663862589516738000,2.293738037109375,-6.354963302612305,-6.259005546569824,-4.075497627258301
1663862589526595300,2.30359521484375,-6.319376468658447,-6.396706581115723,-3.913823366165161
1663862589536513500,2.313513427734375,-6.288227081298828,-6.5208210945129395,-3.755991220474243
1663862589546401300,2.3234013671875,-6.252184867858887,-6.623249053955078,-3.6349878311157227
1663862589556289000,2.3332890625,-6.192316055297852,-6.731320381164551,-3.5376460552215576
1663862589566176500,2.343176513671875,-6.112979412078857,-6.888238430023193,-3.3695764541625977
1663862589576064300,2.353064208984375,-6.047273635864258,-7.0587687492370605,-3.1264429092407227
1663862589585952000,2.362951904296875,-5.98321008682251,-7.207332134246826,-2.9027488231658936
1663862589595839700,2.37283984375,-5.907925605773926,-7.345041275024414,-2.705026865005493
1663862589605727500,2.3827275390625,-5.80888032913208,-7.489944934844971,-2.515556812286377
1663862589615615200,2.392615234375,-5.688045978546143,-7.641463279724121,-2.3290698528289795
1663862589625472300,2.40247216796875,-5.547545909881592,-7.794389724731445,-2.154667854309082
1663862589635360000,2.412360107421875,-5.386350631713867,-7.945878505706787,-2.0051465034484863
1663862589645247700,2.422247802734375,-5.20584774017334,-8.094470024108887,-1.8839051723480225
1663862589655135500,2.432135498046875,-5.006499290466309,-8.241412162780762,-1.7845125198364258
1663862589664992500,2.441992431640625,-4.7963762283325195,-8.383015632629395,-1.7000621557235718
1663862589674880300,2.45188037109375,-4.587637424468994,-8.513429641723633,-1.6264911890029907
1663862589684737500,2.461737548828125,-4.389361381530762,-8.629217147827148,-1.5622103214263916
1663862589694594600,2.471594482421875,-4.202760696411133,-8.732418060302734,-1.5006917715072632
1663862589704512800,2.4815126953125,-4.02367639541626,-8.826746940612793,-1.4383925199508667
1663862589714400500,2.491400390625,-3.848156690597534,-8.914709091186523,-1.3747906684875488
1663862589724288300,2.501288330078125,-3.6729633808135986,-8.998412132263184,-1.307019829750061
1663862589734176000,2.511176025390625,-3.4980850219726562,-9.078307151794434,-1.232124924659729
1663862589744063500,2.5210634765625,-3.3235905170440674,-9.154460906982422,-1.1488978862762451
1663862589753951200,2.530951171875,-3.1501471996307373,-9.22646427154541,-1.057978868484497
1663862589763839000,2.5408388671875,-2.983436346054077,-9.29244613647461,-0.9591377973556519
1663862589773696300,2.5506962890625,-2.824895143508911,-9.35168170928955,-0.8581436276435852
1663862589783583700,2.560583740234375,-2.671135902404785,-9.404568672180176,-0.7677962779998779
1663862589793441000,2.57044091796875,-2.523066759109497,-9.450459480285645,-0.7023875117301941
1663862589803328800,2.580328857421875,-2.3814520835876465,-9.489544868469238,-0.6690366864204407
1663862589813185800,2.590185791015625,-2.2480034828186035,-9.522067070007324,-0.6686618328094482
1663862589823104000,2.60010400390625,-2.1221566200256348,-9.549283027648926,-0.6913914084434509
1663862589832991700,2.60999169921875,-2.007477283477783,-9.571761131286621,-0.722359299659729
1663862589842879500,2.61987939453125,-1.9023462533950806,-9.59093952178955,-0.7518928647041321
1663862589852767200,2.629767333984375,-1.8007490634918213,-9.608671188354492,-0.7753278613090515
1663862589862655000,2.639655029296875,-1.6978856325149536,-9.626204490661621,-0.7897774577140808
1663862589872542700,2.649542724609375,-1.591150164604187,-9.644264221191406,-0.7917096614837646
1663862589882430200,2.65943017578125,-1.4786919355392456,-9.663254737854004,-0.7780529856681824
1663862589892318000,2.66931787109375,-1.3574775457382202,-9.683404922485352,-0.747874915599823
1663862589902175200,2.67917529296875,-1.2294235229492188,-9.703787803649902,-0.7038516998291016
1663862589912063000,2.68906298828125,-1.0960830450057983,-9.723434448242188,-0.6510066986083984
1663862589921950500,2.698950439453125,-0.9636074900627136,-9.741120338439941,-0.5936619639396667
1663862589931838200,2.708838134765625,-0.8407036662101746,-9.755867958068848,-0.5354057550430298
1663862589941726000,2.718725830078125,-0.7314876317977905,-9.767562866210938,-0.4796142280101776
1663862589951613700,2.72861376953125,-0.6350990533828735,-9.776634216308594,-0.4294849634170532
1663862589961470700,2.738470703125,-0.5479929447174072,-9.783653259277344,-0.3875718116760254
1663862589971358500,2.7483583984375,-0.46593722701072693,-9.789196014404297,-0.35345301032066345
1663862589981246200,2.75824609375,-0.38439998030662537,-9.79360580444336,-0.3285195231437683
1663862589991134000,2.768134033203125,-0.3026221692562103,-9.796916007995605,-0.31501898169517517
1663862590001021700,2.778021728515625,-0.22095489501953125,-9.79922103881836,-0.31118693947792053
1663862590010909200,2.7879091796875,-0.1368401199579239,-9.80069351196289,-0.31316274404525757
1663862590020766500,2.797766357421875,-0.04785630851984024,-9.801397323608398,-0.317380428314209
1663862590030654200,2.807654296875,0.047229304909706116,-9.80125617980957,-0.32176288962364197
1663862590040542000,2.8175419921875,0.14438000321388245,-9.800148963928223,-0.3265453577041626
1663862590050429400,2.827429443359375,0.2348853200674057,-9.798133850097656,-0.3343455195426941
1663862590060317200,2.837317138671875,0.31135478615760803,-9.795463562011719,-0.34977856278419495
1663862590070174500,2.847174560546875,0.3715294301509857,-9.792402267456055,-0.3758009970188141
1663862590080062200,2.857062255859375,0.4139091968536377,-9.789267539978027,-0.4114931523799896
1663862590089949700,2.86694970703125,0.433133602142334,-9.786654472351074,-0.45186325907707214
1663862590099807000,2.876806884765625,0.42470839619636536,-9.785141944885254,-0.4909403920173645
1663862590109694700,2.88669482421875,0.3903299868106842,-9.7847261428833,-0.5264652371406555
1663862590119552000,2.896552001953125,0.3323000967502594,-9.784997940063477,-0.5601354241371155
1663862590129470200,2.90647021484375,0.24683363735675812,-9.785198211669922,-0.599471390247345
1663862590139357700,2.916357666015625,0.12723128497600555,-9.784207344055176,-0.6507718563079834
1663862590149245400,2.926245361328125,-0.03577237203717232,-9.780445098876953,-0.71554034948349
1663862590159102700,2.936102783203125,-0.2510327100753784,-9.771261215209961,-0.7936171889305115
1663862590168959700,2.945959716796875,-0.5328096747398376,-9.752045631408691,-0.8854942321777344
1663862590178847500,2.955847412109375,-0.8919779658317566,-9.715476989746094,-0.9921084642410278
1663862590188735200,2.9657353515625,-1.3214112520217896,-9.652751922607422,-1.1174238920211792
1663862590198623000,2.975623046875,-1.7903228998184204,-9.558669090270996,-1.2637135982513428
1663862590208510700,2.9855107421875,-2.253873348236084,-9.437029838562012,-1.4258044958114624
1663862590218398200,2.995398193359375,-2.681225538253784,-9.299172401428223,-1.583288311958313
1663862590228286000,3.005285888671875,-3.0594770908355713,-9.162140846252441,-1.69267737865448
1663862590238173700,3.015173583984375,-3.385329484939575,-9.044092178344727,-1.7071397304534912
1663862590248061400,3.0250615234375,-3.6679437160491943,-8.949784278869629,-1.61800217628479
1663862590257949200,3.03494921875,-3.9235267639160156,-8.8661470413208,-1.472337245941162
1663862590277694000,3.05469384765625,-4.339427947998047,-8.687111854553223,-1.368882179260254
1663862590287551200,3.06455126953125,-4.522990703582764,-8.587138175964355,-1.4049901962280273
1663862590297438700,3.074438720703125,-4.706798076629639,-8.468963623046875,-1.5142935514450073
1663862590307326500,3.084326416015625,-4.903214454650879,-8.325379371643066,-1.6783746480941772
1663862590317214200,3.094214111328125,-5.115909099578857,-8.151129722595215,-1.885988712310791
1663862590327102000,3.10410205078125,-5.349029064178467,-7.941866874694824,-2.1177852153778076
1663862590336959000,3.113958984375,-5.611765384674072,-7.693844318389893,-2.341627836227417
1663862590346846700,3.1238466796875,-5.900527000427246,-7.410365104675293,-2.537843942642212
1663862590356734500,3.133734375,-6.197725772857666,-7.105559825897217,-2.696218729019165
1663862590366622200,3.143622314453125,-6.472699165344238,-6.800215244293213,-2.834014892578125
1663862590376479500,3.1534794921875,-6.694301128387451,-6.516993999481201,-2.9808566570281982
1663862590386367000,3.163366943359375,-6.857500076293945,-6.263681888580322,-3.148233413696289
1663862590396254700,3.173254638671875,-6.985195159912109,-6.027027130126953,-3.3245110511779785
1663862590406142500,3.183142578125,-7.107367515563965,-5.7871623039245605,-3.487757444381714
1663862590416030200,3.1930302734375,-7.230978965759277,-5.54475212097168,-3.6247854232788086
1663862590425887200,3.20288720703125,-7.338126182556152,-5.315239429473877,-3.7510695457458496
1663862590435775000,3.21277490234375,-7.411832809448242,-5.112117290496826,-3.88604998588562
1663862590445662700,3.222662841796875,-7.452917575836182,-4.940730571746826,-4.026609420776367
1663862590455550500,3.232550537109375,-7.469249248504639,-4.798799514770508,-4.165600299835205
1663862590465438200,3.242438232421875,-7.465382099151611,-4.683704376220703,-4.301321506500244
1663862590475295200,3.252295166015625,-7.441737174987793,-4.6011857986450195,-4.429450035095215
1663862590485183000,3.262182861328125,-7.399139881134033,-4.558002471923828,-4.5439772605896
1663862590495070700,3.27207080078125,-7.3377814292907715,-4.5613532066345215,-4.6391167640686035
1663862590504958500,3.28195849609375,-7.261556625366211,-4.609906196594238,-4.710515975952148
1663862590514846000,3.291845947265625,-7.183703422546387,-4.693434715270996,-4.747257709503174
1663862590524733700,3.301733642578125,-7.1241936683654785,-4.791226863861084,-4.7392401695251465
1663862590534621400,3.311621337890625,-7.072619915008545,-4.908832550048828,-4.695934772491455
1663862590544509200,3.32150927734375,-7.021879196166992,-5.043591022491455,-4.628799915313721
1663862590554397000,3.33139697265625,-6.964542865753174,-5.194660663604736,-4.5476393699646
1663862590564254000,3.34125390625,-6.8891119956970215,-5.369438648223877,-4.4586591720581055
1663862590574141700,3.3511416015625,-6.79106330871582,-5.57780647277832,-4.352001667022705
1663862590584029400,3.361029541015625,-6.685816287994385,-5.815006256103516,-4.201900959014893
1663862590593886500,3.370886474609375,-6.598448753356934,-6.057498455047607,-3.992187976837158
1663862590603774200,3.380774169921875,-6.552147388458252,-6.264481544494629,-3.7411255836486816
1663862590613692400,3.3906923828125,-6.559598922729492,-6.395225524902344,-3.4990193843841553
1663862590623549700,3.4005498046875,-6.530276298522949,-6.49110221862793,-3.3751254081726074
1663862590633468000,3.410468017578125,-6.401839733123779,-6.6561055183410645,-3.2989535331726074
1663862590643355600,3.420355712890625,-6.291027069091797,-6.853241443634033,-3.1026525497436523
1663862590653243400,3.430243408203125,-6.225259304046631,-6.994074821472168,-2.915383815765381
1663862590663131000,3.440130859375,-6.1583571434021,-7.10357666015625,-2.7900235652923584
1663862590672988200,3.44998828125,-6.057277202606201,-7.248892784118652,-2.633122205734253
1663862590682876000,3.4598759765625,-5.922959804534912,-7.4248948097229,-2.4412875175476074
1663862590692763600,3.469763671875,-5.776009559631348,-7.594064712524414,-2.2667784690856934
1663862590702651100,3.479651123046875,-5.630796909332275,-7.742783069610596,-2.1245744228363037
1663862590712539000,3.489538818359375,-5.479272842407227,-7.877821922302246,-2.0218491554260254
1663862590722426600,3.499426513671875,-5.310207366943359,-8.009385108947754,-1.9549503326416016
1663862590732284000,3.509283935546875,-5.1248273849487305,-8.141318321228027,-1.9040684700012207
1663862590742171400,3.51917138671875,-4.923640251159668,-8.274848937988281,-1.8587732315063477
1663862590752059100,3.52905908203125,-4.70857572555542,-8.407712936401367,-1.8193601369857788
1663862590761947000,3.53894677734375,-4.48456335067749,-8.536054611206055,-1.787414312362671
1663862590771834600,3.548834716796875,-4.2555155754089355,-8.657221794128418,-1.7645115852355957
1663862590781722400,3.558722412109375,-4.025160789489746,-8.770564079284668,-1.7451844215393066
1663862590791609900,3.56860986328125,-3.799497604370117,-8.87586784362793,-1.7184796333312988
1663862590801467100,3.578467041015625,-3.5890142917633057,-8.970714569091797,-1.6779834032058716
1663862590811355000,3.58835498046875,-3.399892568588257,-9.054224967956543,-1.6223841905593872
1663862590821242600,3.59824267578125,-3.2294986248016357,-9.127945899963379,-1.5560652017593384
1663862590831130400,3.60813037109375,-3.064626693725586,-9.195664405822754,-1.4893649816513062
1663862590841017900,3.618017822265625,-2.897801399230957,-9.25940227508545,-1.4270936250686646
1663862590850905600,3.627905517578125,-2.7281086444854736,-9.319150924682617,-1.3715842962265015
1663862590860793300,3.63779345703125,-2.5559699535369873,-9.374102592468262,-1.3280086517333984
1663862590870650600,3.647650634765625,-2.3832898139953613,-9.42273235321045,-1.304774284362793
1663862590880538000,3.6575380859375,-2.21240234375,-9.46431827545166,-1.3047375679016113
1663862590890425900,3.66742578125,-2.046252965927124,-9.499239921569824,-1.3219932317733765
1663862590900313600,3.677313720703125,-1.8827048540115356,-9.529744148254395,-1.3452776670455933
1663862590910201300,3.687201416015625,-1.7188204526901245,-9.55809211730957,-1.363423466682434
1663862590920058400,3.697058349609375,-1.554397463798523,-9.585137367248535,-1.3709068298339844
1663862590929946000,3.706946044921875,-1.390088438987732,-9.610750198364258,-1.3680392503738403
1663862590939833900,3.716833740234375,-1.230067491531372,-9.633879661560059,-1.3585578203201294
1663862590949721600,3.7267216796875,-1.0758358240127563,-9.654183387756348,-1.3452528715133667
1663862590959609300,3.736609375,-0.9251949191093445,-9.672215461730957,-1.3276500701904297
1663862590969496800,3.746496826171875,-0.7765161395072937,-9.688436508178711,-1.3044581413269043
1663862590979354000,3.75635400390625,-0.6308610439300537,-9.702974319458008,-1.2746309041976929
1663862590989241900,3.766241943359375,-0.4886721074581146,-9.7158784866333,-1.2382616996765137
1663862590999099000,3.776098876953125,-0.3539014160633087,-9.726981163024902,-1.1962344646453857
1663862591008986600,3.785986572265625,-0.22860324382781982,-9.736429214477539,-1.148949384689331
1663862591018874400,3.795874267578125,-0.11172119528055191,-9.744174003601074,-1.099524736404419
1663862591028762000,3.80576220703125,0.00043279584497213364,-9.750028610229492,-1.052303433418274
1663862591038619100,3.815619140625,0.10836660861968994,-9.753694534301758,-1.0119757652282715
1663862591048507000,3.8255068359375,0.21240900456905365,-9.755309104919434,-0.9794003367424011
1663862591058364200,3.8353642578125,0.3122578561306,-9.755093574523926,-0.954482913017273
1663862591068282400,3.845282470703125,0.41279542446136475,-9.75312328338623,-0.9362481832504272
1663862591078170000,3.855170166015625,0.5149667263031006,-9.749588012695312,-0.922346830368042
1663862591088057900,3.865057861328125,0.61839359998703,-9.744619369506836,-0.9112424850463867
1663862591097915000,3.874914794921875,0.7190900444984436,-9.738680839538574,-0.9007740020751953
1663862591107802600,3.884802734375,0.8132548928260803,-9.732396125793457,-0.8885132074356079
1663862591117660000,3.894659912109375,0.8972128033638,-9.726181030273438,-0.8756669163703918
1663862591127578000,3.904578125,0.9689139723777771,-9.720333099365234,-0.8641390204429626
1663862591137465600,3.914465576171875,1.0267928838729858,-9.71509838104248,-0.8561143279075623
1663862591147353300,3.924353271484375,1.0713762044906616,-9.71031665802002,-0.8557421565055847
1663862591157241000,3.934240966796875,1.1005195379257202,-9.70595645904541,-0.8681363463401794
1663862591167128800,3.94412890625,1.109039306640625,-9.702923774719238,-0.8908933401107788
1663862591177016600,3.9540166015625,1.092129111289978,-9.702475547790527,-0.9163021445274353
1663862591186873600,3.96387353515625,1.0489500761032104,-9.70479965209961,-0.9417847990989685
1663862591196761300,3.97376123046875,0.980373740196228,-9.70942211151123,-0.9676583409309387
1663862591206649000,3.983649169921875,0.8893406987190247,-9.715513229370117,-0.9941155314445496
1663862591216536800,3.993536865234375,0.7755268216133118,-9.721966743469238,-1.0258266925811768
1663862591226424300,4.00342431640625,0.6292353868484497,-9.72772216796875,-1.0704519748687744
1663862591236312000,4.01331201171875,0.4405180513858795,-9.731295585632324,-1.1305869817733765
1663862591246199800,4.02319970703125,0.20793209969997406,-9.729779243469238,-1.2077094316482544
1663862591256087600,4.033087646484375,-0.06976357102394104,-9.719502449035645,-1.302610158920288
1663862591265944600,4.042944580078125,-0.3958473801612854,-9.696416854858398,-1.411803126335144
1663862591275801900,4.0528017578125,-0.7652847766876221,-9.655895233154297,-1.532454013824463
1663862591285689600,4.062689697265625,-1.16143000125885,-9.594806671142578,-1.6616709232330322
1663862591295577300,4.072577392578125,-1.561269998550415,-9.514375686645508,-1.7915019989013672
1663862591305464800,4.08246484375,-1.9448635578155518,-9.420539855957031,-1.9082212448120117
1663862591315352600,4.0923525390625,-2.2936465740203857,-9.325541496276855,-1.9859097003936768
1663862591325240300,4.102240234375,-2.5946500301361084,-9.245115280151367,-1.9914867877960205
1663862591335128000,4.112128173828125,-2.8432958126068115,-9.188279151916504,-1.9135292768478394
1663862591345015800,4.122015869140625,-3.046757698059082,-9.150466918945312,-1.7766883373260498
1663862591354903600,4.131903564453125,-3.230109453201294,-9.11600399017334,-1.6233481168746948
1663862591364791000,4.141791015625,-3.4233195781707764,-9.068292617797852,-1.4890719652175903
1663862591374617900,4.151617919921875,-3.638327121734619,-8.999147415161133,-1.395817518234253
1663862591384505600,4.161505615234375,-3.8790030479431152,-8.903802871704102,-1.3586816787719727
1663862591394362600,4.171362548828125,-4.143784523010254,-8.77872371673584,-1.3904929161071777
1663862591404280800,4.18128076171875,-4.427619934082031,-8.621691703796387,-1.4943265914916992
1663862591414168600,4.19116845703125,-4.700590133666992,-8.446775436401367,-1.6513121128082275
1663862591424056300,4.201056396484375,-4.940735340118408,-8.270622253417969,-1.8320235013961792
1663862591433944000,4.210944091796875,-5.149374008178711,-8.10047435760498,-2.0091423988342285
1663862591443831600,4.22083154296875,-5.341495037078857,-7.933829307556152,-2.1663739681243896
1663862591453719300,4.23071923828125,-5.539159774780273,-7.759433746337891,-2.297668933868408
1663862591463576600,4.24057666015625,-5.756479263305664,-7.567580223083496,-2.4010560512542725
1663862591473464300,4.25046435546875,-5.986783027648926,-7.360511779785156,-2.480259895324707
1663862591483321300,4.2603212890625,-6.204065322875977,-7.155182361602783,-2.5462355613708496
1663862591493209000,4.270208984375,-6.386769771575928,-6.966292858123779,-2.617311477661133
1663862591503096800,4.280096923828125,-6.533376693725586,-6.79622745513916,-2.7012336254119873
1663862591512984600,4.289984619140625,-6.656634330749512,-6.636401176452637,-2.7960309982299805
1663862591522872000,4.2998720703125,-6.763125896453857,-6.483575820922852,-2.8971967697143555
1663862591532759800,4.309759765625,-6.852680683135986,-6.340267181396484,-3.002025604248047
1663862591542647600,4.3196474609375,-6.921361923217773,-6.2116193771362305,-3.111417293548584
1663862591552535300,4.329535400390625,-6.966742038726807,-6.1021294593811035,-3.2247345447540283
1663862591562423000,4.339423095703125,-6.9888505935668945,-6.012500286102295,-3.343083143234253
1663862591572310800,4.349310791015625,-6.988593101501465,-5.943615913391113,-3.464590549468994
1663862591582198300,4.3591982421875,-6.964931964874268,-5.89909029006958,-3.5862011909484863
1663862591592086000,4.3690859375,-6.921992301940918,-5.8789849281311035,-3.7005348205566406
1663862591601943300,4.378943359375,-6.872175693511963,-5.879804611206055,-3.7909743785858154
1663862591611831000,4.3888310546875,-6.825017929077148,-5.899874687194824,-3.8446054458618164
1663862591621718500,4.398718505859375,-6.784972190856934,-5.935775279998779,-3.860194444656372
1663862591631606300,4.408606201171875,-6.748793125152588,-5.984920501708984,-3.84771466255188
1663862591641494000,4.418493896484375,-6.711494445800781,-6.045926570892334,-3.817457675933838
1663862591651351300,4.428351318359375,-6.672154426574707,-6.116998672485352,-3.7729384899139404
1663862591661238800,4.43823876953125,-6.629505634307861,-6.2002105712890625,-3.7117953300476074
1663862591671126500,4.44812646484375,-6.5817999839782715,-6.2973551750183105,-3.63230037689209
1663862591681014300,4.45801416015625,-6.527846813201904,-6.4088897705078125,-3.533233404159546
1663862591690902000,4.467902099609375,-6.469689846038818,-6.531039714813232,-3.4145309925079346
1663862591700789800,4.477789794921875,-6.418837070465088,-6.651839733123779,-3.2744393348693848
1663862591710646800,4.487646728515625,-6.383570671081543,-6.759905815124512,-3.118349075317383
1663862591720534500,4.497534423828125,-6.3404998779296875,-6.863616466522217,-2.9764435291290283
1663862591730422300,4.50742236328125,-6.274154186248779,-6.965855598449707,-2.8778862953186035
1663862591740310000,4.51731005859375,-6.204254627227783,-7.060460567474365,-2.797769546508789
1663862591750167000,4.5271669921875,-6.141188144683838,-7.1612091064453125,-2.678297758102417
1663862591760024300,4.5370244140625,-6.0783371925354,-7.282954216003418,-2.486518621444702
1663862591769912000,4.546912109375,-6.002564430236816,-7.415133476257324,-2.27055025100708
1663862591779799600,4.556799560546875,-5.909963607788086,-7.541306495666504,-2.0907912254333496
1663862591789656800,4.56665673828125,-5.810003757476807,-7.661488056182861,-1.9276504516601562
1663862591799575000,4.576574951171875,-5.698742866516113,-7.784365177154541,-1.7602195739746094
1663862591809462800,4.586462890625,-5.571762561798096,-7.910678386688232,-1.5959359407424927
1663862591819350500,4.5963505859375,-5.430445194244385,-8.037880897521973,-1.4398393630981445
1663862591829238300,4.60623828125,-5.27747917175293,-8.163102149963379,-1.2970606088638306
1663862591839125800,4.616125732421875,-5.115540504455566,-8.284320831298828,-1.1711734533309937
1663862591848983000,4.625983154296875,-4.947024822235107,-8.400788307189941,-1.0602335929870605
1663862591858840300,4.63584033203125,-4.7734575271606445,-8.51195240020752,-0.9649651646614075
1663862591868758500,4.645758544921875,-4.597066879272461,-8.616752624511719,-0.8882249593734741
1663862591878615600,4.655615478515625,-4.4207611083984375,-8.714548110961914,-0.8269822001457214
1663862591888503300,4.66550341796875,-4.243296146392822,-8.806998252868652,-0.775629997253418
1663862591898391000,4.67539111328125,-4.06556510925293,-8.893856048583984,-0.7354512214660645
1663862591908278800,4.68527880859375,-3.8873448371887207,-8.975412368774414,-0.7077481150627136
1663862591918135800,4.6951357421875,-3.706874132156372,-9.05280590057373,-0.6900529265403748
1663862591928054000,4.705053955078125,-3.5196917057037354,-9.128435134887695,-0.6736804842948914
1663862591937911300,4.714911376953125,-3.3251795768737793,-9.202720642089844,-0.6507613062858582
1663862591947799000,4.724799072265625,-3.124185562133789,-9.275046348571777,-0.6191752552986145
1663862591957686500,4.7346865234375,-2.9243991374969482,-9.342171669006348,-0.5849063992500305
1663862591967543800,4.744543701171875,-2.7285032272338867,-9.403020858764648,-0.5557690262794495
1663862591977431600,4.754431640625,-2.536557197570801,-9.457983016967773,-0.5318152904510498
1663862591987349800,4.764349853515625,-2.348954200744629,-9.507304191589355,-0.5137778520584106
1663862591997206800,4.774206787109375,-2.1669812202453613,-9.550847053527832,-0.5058538317680359
1663862592007080000,4.784079833984375,-1.9906768798828125,-9.588798522949219,-0.5123863220214844
1663862592016967700,4.7939677734375,-1.8238507509231567,-9.620762825012207,-0.5337303280830383
1663862592026825000,4.803824951171875,-1.670157790184021,-9.646830558776855,-0.5653496384620667
1663862592036743200,4.8137431640625,-1.5292054414749146,-9.667878150939941,-0.6033627390861511
1663862592046631000,4.823630859375,-1.3981056213378906,-9.685287475585938,-0.6410192251205444
1663862592056518400,4.833518310546875,-1.2695953845977783,-9.700981140136719,-0.6704416871070862
1663862592066406100,4.84340625,-1.1380226612091064,-9.715892791748047,-0.690450131893158
1663862592076294000,4.8532939453125,-1.002235770225525,-9.730029106140137,-0.7017431259155273
1663862592086181600,4.863181640625,-0.8653703927993774,-9.742941856384277,-0.7047061920166016
1663862592096069400,4.8730693359375,-0.7326934337615967,-9.754106521606445,-0.7006893157958984
1663862592105926400,4.882926513671875,-0.6093761920928955,-9.763344764709473,-0.69004225730896
1663862592115814100,4.892814208984375,-0.49742352962493896,-9.770783424377441,-0.6743528246879578
1663862592125702000,4.902701904296875,-0.39831605553627014,-9.776525497436523,-0.6567140221595764
1663862592135589600,4.912589599609375,-0.3127480745315552,-9.780801773071289,-0.6391282677650452
1663862592145477400,4.922477294921875,-0.23891977965831757,-9.783985137939453,-0.6220550537109375
1663862592155334400,4.93233447265625,-0.1729467660188675,-9.786436080932617,-0.6050984263420105
1663862592165222100,4.94222216796875,-0.10975425690412521,-9.788274765014648,-0.5899345278739929
1663862592175110000,4.95210986328125,-0.048234567046165466,-9.789329528808594,-0.580584704875946
1663862592184997600,4.96199755859375,0.008933802135288715,-9.789531707763672,-0.5791213512420654
1663862592194885000,4.971885009765625,0.0608656220138073,-9.788962364196777,-0.585563600063324
1663862592204772900,4.98177294921875,0.10871318727731705,-9.7877197265625,-0.599256694316864
1663862592214660600,4.99166064453125,0.15299959480762482,-9.785810470581055,-0.6204080581665039
1663862592224518000,5.001517822265625,0.19478894770145416,-9.783374786376953,-0.6465514898300171
1663862592234405400,5.0114052734375,0.2384747862815857,-9.780708312988281,-0.671760082244873
1663862592244293000,5.021293212890625,0.28840315341949463,-9.77807903289795,-0.6901934146881104
1663862592254150400,5.031150390625,0.34696123003959656,-9.775477409362793,-0.7000382542610168
1663862592264038100,5.0410380859375,0.4121299088001251,-9.772740364074707,-0.7029138207435608
1663862592273925600,5.050925537109375,0.4778902232646942,-9.769733428955078,-0.703067421913147
1663862592283813400,5.0608134765625,0.5425155162811279,-9.766214370727539,-0.7050596475601196
1663862592293701000,5.070701171875,0.60772705078125,-9.761805534362793,-0.7128875255584717
1663862592303588900,5.0805888671875,0.6724212169647217,-9.756464958190918,-0.7277470827102661
1663862592313476600,5.0904765625,0.7326990962028503,-9.750565528869629,-0.7483407855033875
1663862592323333600,5.100333740234375,0.7864738702774048,-9.7444486618042,-0.7730302214622498
1663862592333191000,5.11019091796875,0.8333507776260376,-9.73833179473877,-0.8004999160766602
1663862592343078700,5.12007861328125,0.869037926197052,-9.732658386230469,-0.8309814929962158
1663862592352935700,5.129935791015625,0.886070191860199,-9.728042602539062,-0.8662946820259094
1663862592362854000,5.13985400390625,0.8792694211006165,-9.724762916564941,-0.90898597240448
1663862592372741600,5.14974169921875,0.8475867509841919,-9.722750663757324,-0.9592210650444031
1663862592382629400,5.15962939453125,0.7906743884086609,-9.721933364868164,-1.0145145654678345
1663862592392517000,5.16951708984375,0.7082775235176086,-9.722021102905273,-1.0728567838668823
1663862592402404900,5.17940478515625,0.5979018211364746,-9.722517013549805,-1.133823275566101
1663862592412262000,5.189261962890625,0.4567026197910309,-9.722579956054688,-1.1971853971481323
1663862592422149600,5.199149658203125,0.2825056314468384,-9.720823287963867,-1.2633956670761108
1663862592432037400,5.209037353515625,0.07564913481473923,-9.715082168579102,-1.334859013557434
1663862592441925000,5.218925048828125,-0.16544665396213531,-9.702886581420898,-1.4131560325622559
1663862592451812600,5.2288125,-0.43951359391212463,-9.681755065917969,-1.4969457387924194
1663862592461700400,5.238700439453125,-0.7418498396873474,-9.649093627929688,-1.5858855247497559
1663862592471588000,5.248588134765625,-1.0665539503097534,-9.60246467590332,-1.68092942237854
1663862592481475800,5.258475830078125,-1.407120704650879,-9.540547370910645,-1.7799855470657349
1663862592491363600,5.268363525390625,-1.754634141921997,-9.465112686157227,-1.8717085123062134
1663862592501220600,5.278220703125,-2.0942320823669434,-9.383471488952637,-1.9326257705688477
1663862592511108400,5.2881083984375,-2.4108221530914307,-9.30614185333252,-1.9375340938568115
1663862592520996000,5.29799609375,-2.691697835922241,-9.241619110107422,-1.8755375146865845
1663862592530883800,5.3078837890625,-2.938967704772949,-9.188675880432129,-1.7609918117523193
1663862592540771300,5.317771240234375,-3.165928363800049,-9.1376953125,-1.6278218030929565
1663862592550659000,5.3276591796875,-3.384559154510498,-9.079305648803711,-1.5104137659072876
1663862592560516400,5.337516357421875,-3.601008892059326,-9.0077486038208,-1.4365161657333374
1663862592570404000,5.347404052734375,-3.8231394290924072,-8.916696548461914,-1.4305700063705444
1663862592580291600,5.35729150390625,-4.054684638977051,-8.802005767822266,-1.5015438795089722
1663862592590148900,5.36714892578125,-4.290759086608887,-8.665644645690918,-1.6329072713851929
1663862592600036600,5.37703662109375,-4.519161701202393,-8.516161918640137,-1.795153021812439
1663862592609894000,5.386893798828125,-4.729474067687988,-8.362664222717285,-1.966798186302185
1663862592619781400,5.396781494140625,-4.932873725891113,-8.203136444091797,-2.1320667266845703
1663862592629669000,5.406669189453125,-5.1476569175720215,-8.031411170959473,-2.273422956466675
1663862592639556900,5.416556884765625,-5.385831356048584,-7.840864658355713,-2.384122371673584
1663862592649444600,5.426444580078125,-5.643677234649658,-7.6295552253723145,-2.47167706489563
1663862592659332400,5.436332275390625,-5.904804229736328,-7.403561115264893,-2.547736406326294
1663862592669219800,5.4462197265625,-6.144549369812012,-7.178502559661865,-2.6237382888793945
1663862592679107600,5.456107666015625,-6.342954635620117,-6.971947193145752,-2.7072629928588867
1663862592688995300,5.465995361328125,-6.502772808074951,-6.786300182342529,-2.798295259475708
1663862592698883000,5.475883056640625,-6.642034530639648,-6.606936931610107,-2.8986434936523438
1663862592708770800,5.485770751953125,-6.767066955566406,-6.426702499389648,-3.012423038482666
1663862592718658300,5.495658203125,-6.872715950012207,-6.255458831787109,-3.1313560009002686
1663862592728515600,5.505515625,-6.956655025482178,-6.102016925811768,-3.246648073196411
1663862592738372900,5.515372802734375,-7.02032995223999,-5.967746734619141,-3.3572845458984375
1663862592748260400,5.52526025390625,-7.064040184020996,-5.853602886199951,-3.4648313522338867
1663862592758117600,5.53511767578125,-7.086438179016113,-5.762127876281738,-3.5708065032958984
1663862592768035800,5.545035888671875,-7.087421417236328,-5.693207740783691,-3.6778006553649902
1663862592777893000,5.55489306640625,-7.071649551391602,-5.646848678588867,-3.7782604694366455
1663862592787780600,5.564780517578125,-7.048022270202637,-5.623146057128906,-3.8569421768188477
1663862592797668400,5.57466845703125,-7.027243137359619,-5.622946739196777,-3.8949594497680664
1663862592807556000,5.58455615234375,-7.01673698425293,-5.645598888397217,-3.881108283996582
1663862592817413400,5.594413330078125,-7.014734268188477,-5.690216541290283,-3.8190743923187256
1663862592827331600,5.60433154296875,-7.010230541229248,-5.758933067321777,-3.723137855529785
1663862592837188600,5.614188720703125,-6.989633560180664,-5.853518486022949,-3.6127185821533203
1663862592847046000,5.6240458984375,-6.942877769470215,-5.975550174713135,-3.501375913619995
1663862592856933600,5.63393359375,-6.867794513702393,-6.1227192878723145,-3.393535852432251
1663862592866851800,5.643851806640625,-6.772154331207275,-6.287713527679443,-3.282219886779785
1663862592876739600,5.653739501953125,-6.672976970672607,-6.458449840545654,-3.1512186527252197
1663862592886627000,5.663626953125,-6.579563617706299,-6.630951404571533,-2.984999656677246
1663862592896514800,5.673514892578125,-6.4960126876831055,-6.79832649230957,-2.7847743034362793
1663862592906402600,5.683402587890625,-6.445811748504639,-6.922451496124268,-2.5887374877929688
1663862592916290300,5.693290283203125,-6.401115894317627,-7.0211920738220215,-2.428779363632202
1663862592926147300,5.703147216796875,-6.313633918762207,-7.164567470550537,-2.231003761291504
1663862592936004600,5.713004638671875,-6.199731826782227,-7.336951732635498,-1.9755616188049316
1663862592945922800,5.7229228515625,-6.086907863616943,-7.483662128448486,-1.7648663520812988
1663862592955810600,5.732810546875,-5.983107566833496,-7.601057052612305,-1.6114397048950195
1663862592965698300,5.7426982421875,-5.868374347686768,-7.71787691116333,-1.472057819366455
1663862592975585800,5.752585693359375,-5.731501579284668,-7.845353126525879,-1.3306821584701538
1663862592985473500,5.7624736328125,-5.57878303527832,-7.976284027099609,-1.1943457126617432
1663862592995361300,5.772361328125,-5.419116020202637,-8.10188102722168,-1.0784658193588257
1663862593005218600,5.782218505859375,-5.257801055908203,-8.218706130981445,-0.9893361926078796
1663862593015106000,5.79210595703125,-5.092802047729492,-8.329816818237305,-0.9208192229270935
1663862593024993800,5.801993896484375,-4.921979904174805,-8.437640190124512,-0.866448163986206
1663862593034881500,5.811881591796875,-4.743603229522705,-8.543713569641113,-0.8207052946090698
1663862593044769300,5.821769287109375,-4.552980899810791,-8.650355339050293,-0.7823694944381714
1663862593054657000,5.831656982421875,-4.346192836761475,-8.758748054504395,-0.7518821358680725
1663862593064514000,5.84151416015625,-4.127553462982178,-8.866009712219238,-0.7263367176055908
1663862593074401800,5.85140185546875,-3.904099702835083,-8.969172477722168,-0.6945210695266724
1663862593084289500,5.86128955078125,-3.6848390102386475,-9.065108299255371,-0.6450933218002319
1663862593094146800,5.871146728515625,-3.4782047271728516,-9.151019096374512,-0.5756145119667053
1663862593104034300,5.881034423828125,-3.2887978553771973,-9.225764274597168,-0.48937085270881653
1663862593113891600,5.8908916015625,-3.114518642425537,-9.290448188781738,-0.397151917219162
1663862593123748900,5.900748779296875,-2.943688154220581,-9.349138259887695,-0.31417232751846313
1663862593133636400,5.91063623046875,-2.7654130458831787,-9.405250549316406,-0.2532597780227661
1663862593143554600,5.920554443359375,-2.5801918506622314,-9.458664894104004,-0.21601031720638275
1663862593153411800,5.930411865234375,-2.396259307861328,-9.507316589355469,-0.19812707602977753
1663862593163330000,5.940330078125,-2.216885805130005,-9.55080509185791,-0.19471673667430878
1663862593173217800,5.9502177734375,-2.0443637371063232,-9.589027404785156,-0.20378293097019196
1663862593183105500,5.96010546875,-1.8748632669448853,-9.623162269592285,-0.22366537153720856
1663862593192993000,5.969992919921875,-1.7038707733154297,-9.654234886169434,-0.2509011924266815
1663862593202880800,5.979880859375,-1.5335313081741333,-9.681868553161621,-0.28299468755722046
1663862593212768500,5.9897685546875,-1.3730902671813965,-9.704849243164062,-0.3176558017730713
1663862593222656300,5.99965625,-1.2258374691009521,-9.723254203796387,-0.35502395033836365
1663862593232544000,6.0095439453125,-1.0924633741378784,-9.73766040802002,-0.3935391902923584
1663862593242401000,6.019401123046875,-0.9713528752326965,-9.748872756958008,-0.4316785931587219
1663862593252288800,6.029288818359375,-0.8577194213867188,-9.757882118225098,-0.46737420558929443
1663862593262176500,6.039176513671875,-0.7512632012367249,-9.765212059020996,-0.49661463499069214
1663862593272033500,6.049033447265625,-0.6526424288749695,-9.771230697631836,-0.5171973705291748
1663862593281890800,6.058890869140625,-0.5577312111854553,-9.776430130004883,-0.5298334360122681
1663862593291778600,6.068778564453125,-0.4656877815723419,-9.780797958374023,-0.5380652546882629
1663862593301666300,6.078666259765625,-0.3788747191429138,-9.78416919708252,-0.5448603630065918
1663862593311553800,6.0885537109375,-0.2976890504360199,-9.786633491516113,-0.5509632229804993
1663862593321441500,6.098441650390625,-0.22261664271354675,-9.788312911987305,-0.5565457344055176
1663862593331298800,6.108298828125,-0.15256518125534058,-9.789310455322266,-0.5626068115234375
1663862593341217000,6.118217041015625,-0.08354156464338303,-9.78968334197998,-0.5705335140228271
1663862593351104800,6.128104736328125,-0.012319459579885006,-9.789538383483887,-0.5789251923561096
1663862593360992500,6.137992431640625,0.0671401247382164,-9.7890625,-0.5832098126411438
1663862593370849500,6.147849609375,0.15766647458076477,-9.788226127624512,-0.5797743201255798
1663862593380706800,6.157706787109375,0.2554644048213959,-9.786675453186035,-0.5710608959197998
1663862593390625000,6.167625,0.35329604148864746,-9.784128189086914,-0.5624990463256836
1663862593400482000,6.17748193359375,0.44417887926101685,-9.780716896057129,-0.5573751926422119
1663862593410339300,6.18733935546875,0.5251028537750244,-9.776762962341309,-0.5563904047012329
1663862593420257500,6.197257568359375,0.5957926511764526,-9.772494316101074,-0.5601521134376526
1663862593430145300,6.207145263671875,0.6575896739959717,-9.767918586730957,-0.5707288384437561
1663862593440033000,6.217032958984375,0.7125351428985596,-9.762842178344727,-0.5912705659866333
1663862593449920500,6.22692041015625,0.7607669830322266,-9.757220268249512,-0.623120903968811
1663862593459808300,6.236808349609375,0.799751341342926,-9.751418113708496,-0.6638034582138062
1663862593469696000,6.246696044921875,0.8239167928695679,-9.746234893798828,-0.7088314294815063
1663862593479553300,6.25655322265625,0.8301857709884644,-9.742227554321289,-0.7551040649414062
1663862593489410300,6.266410400390625,0.8184121251106262,-9.73914909362793,-0.8059517741203308
1663862593499328500,6.27632861328125,0.787487804889679,-9.736681938171387,-0.8644541501998901
1663862593509216300,6.28621630859375,0.736033022403717,-9.734774589538574,-0.9288727045059204
1663862593519104000,6.29610400390625,0.6622459888458252,-9.733623504638672,-0.9941800236701965
1663862593528961000,6.3059609375,0.5676543116569519,-9.733219146728516,-1.054803490638733
1663862593538848800,6.315848876953125,0.45217669010162354,-9.732894897460938,-1.1120612621307373
1663862593548736500,6.325736572265625,0.31053927540779114,-9.731667518615723,-1.1698671579360962
1663862593558593800,6.33559375,0.13483650982379913,-9.728158950805664,-1.2308969497680664
1663862593568512000,6.345511962890625,-0.08001573383808136,-9.720160484313965,-1.2971023321151733
1663862593578399700,6.355399658203125,-0.32936161756515503,-9.705180168151855,-1.3679834604263306
1663862593588287200,6.365287353515625,-0.6122725009918213,-9.68055534362793,-1.443041443824768
1663862593598175000,6.375175048828125,-0.9275673627853394,-9.643524169921875,-1.5206750631332397
1663862593608032300,6.3850322265625,-1.2656599283218384,-9.59249210357666,-1.5976834297180176
1663862593617889300,6.39488916015625,-1.6110583543777466,-9.528766632080078,-1.6665802001953125
1663862593627777000,6.404777099609375,-1.947500467300415,-9.457773208618164,-1.711186170578003
1663862593637664800,6.414664794921875,-2.2601513862609863,-9.388092994689941,-1.7104992866516113
1663862593647552500,6.424552490234375,-2.5452468395233154,-9.325125694274902,-1.6535221338272095
1663862593657440300,6.434440185546875,-2.810823440551758,-9.26500415802002,-1.5586459636688232
1663862593667327700,6.44432763671875,-3.0643937587738037,-9.199939727783203,-1.4632072448730469
1663862593677185000,6.45418505859375,-3.3123528957366943,-9.124022483825684,-1.3967565298080444
1663862593687072800,6.46407275390625,-3.5634348392486572,-9.0316743850708,-1.3788282871246338
1663862593696929800,6.4739296875,-3.817466974258423,-8.920184135437012,-1.4239577054977417
1663862593706848000,6.483847900390625,-4.070035457611084,-8.789973258972168,-1.530214786529541
1663862593716735700,6.49373583984375,-4.306063175201416,-8.650492668151855,-1.672480821609497
1663862593726593000,6.503593017578125,-4.522586345672607,-8.509725570678711,-1.8169111013412476
1663862593736511200,6.51351123046875,-4.727294921875,-8.367936134338379,-1.9495387077331543
1663862593746399000,6.52339892578125,-4.936305999755859,-8.217276573181152,-2.0687308311462402
1663862593756286500,6.533286376953125,-5.1722307205200195,-8.04306697845459,-2.1742794513702393
1663862593766143700,6.543143798828125,-5.440530776977539,-7.837048053741455,-2.2697348594665527
1663862593776001000,6.5530009765625,-5.728339195251465,-7.60029411315918,-2.364753246307373
1663862593785888500,6.562888427734375,-6.006156921386719,-7.347616195678711,-2.47163987159729
1663862593795806700,6.572806640625,-6.245273113250732,-7.100636959075928,-2.5976722240448
1663862593805694500,6.582694580078125,-6.434350967407227,-6.87421178817749,-2.7412991523742676
1663862593815582200,6.592582275390625,-6.580718994140625,-6.667997360229492,-2.898679733276367
1663862593825470000,6.602469970703125,-6.705573558807373,-6.469430446624756,-3.0581259727478027
1663862593835357700,6.612357666015625,-6.823012828826904,-6.2679243087768555,-3.21403169631958
1663862593845245400,6.622245361328125,-6.930501461029053,-6.067417144775391,-3.365262985229492
1663862593855102500,6.6321025390625,-7.025061130523682,-5.877528190612793,-3.503366470336914
1663862593864990200,6.641990234375,-7.102453708648682,-5.704455852508545,-3.6310765743255615
1663862593874847500,6.651847412109375,-7.156389236450195,-5.556475639343262,-3.7526063919067383
1663862593884735000,6.66173486328125,-7.1825337409973145,-5.440842151641846,-3.8702497482299805
1663862593894622700,6.671622802734375,-7.181405544281006,-5.357996463775635,-3.9861860275268555
1663862593904480000,6.68147998046875,-7.158207893371582,-5.307135105133057,-4.094479560852051
1663862593914367700,6.69136767578125,-7.122470378875732,-5.29161262512207,-4.176078796386719
1663862593924255200,6.701255126953125,-7.083651542663574,-5.310816287994385,-4.217522621154785
1663862593934112500,6.711112548828125,-7.048200607299805,-5.357269287109375,-4.218164443969727
1663862593944000300,6.721000244140625,-7.014855861663818,-5.427263259887695,-4.184135437011719
1663862593953888000,6.730887939453125,-6.977720260620117,-5.521026134490967,-4.123114109039307
1663862593963806200,6.74080615234375,-6.929910659790039,-5.636933326721191,-4.046198844909668
1663862593973663200,6.750663330078125,-6.868321895599365,-5.772102355957031,-3.959718942642212
1663862593983551000,6.760551025390625,-6.801252365112305,-5.9234938621521,-3.8503994941711426
1663862593993438700,6.770438720703125,-6.742147445678711,-6.08075475692749,-3.7065157890319824
1663862594003326500,6.780326416015625,-6.6883955001831055,-6.239642143249512,-3.5359046459198
1663862594013214000,6.7902138671875,-6.637781620025635,-6.3888349533081055,-3.3605093955993652
1663862594023071200,6.8000712890625,-6.596066951751709,-6.5084381103515625,-3.209754228591919
1663862594032959000,6.809958984375,-6.54447603225708,-6.627532005310059,-3.0685579776763916
1663862594042846700,6.8198466796875,-6.471783638000488,-6.783749580383301,-2.875263214111328
1663862594052734500,6.829734375,-6.383071422576904,-6.9500555992126465,-2.668992280960083
1663862594062622000,6.8396220703125,-6.291687965393066,-7.093564510345459,-2.5032780170440674
1663862594072509700,6.849509765625,-6.188414096832275,-7.234236717224121,-2.353663444519043
1663862594082397400,6.8593974609375,-6.0577006340026855,-7.391481399536133,-2.2001495361328125
1663862594092285200,6.86928515625,-5.909646034240723,-7.553469181060791,-2.0473318099975586
1663862594102173000,6.8791728515625,-5.756986141204834,-7.70670747756958,-1.9063458442687988
1663862594112060400,6.889060302734375,-5.603793621063232,-7.8486833572387695,-1.7793394327163696
1663862594121948200,6.8989482421875,-5.44158411026001,-7.984302043914795,-1.6764490604400635
1663862594131836000,6.9088359375,-5.268080234527588,-8.116872787475586,-1.5918833017349243
1663862594141662500,6.918662353515625,-5.086825370788574,-8.246214866638184,-1.5147767066955566
1663862594151550200,6.92855029296875,-4.896639347076416,-8.373695373535156,-1.4403213262557983
1663862594161438000,6.93843798828125,-4.696862697601318,-8.499316215515137,-1.3680264949798584
1663862594171295200,6.948295166015625,-4.486682415008545,-8.622424125671387,-1.3014912605285645
1663862594181182700,6.9581826171875,-4.264395236968994,-8.742770195007324,-1.2447084188461304
1663862594191101000,6.968100830078125,-4.032460689544678,-8.859374046325684,-1.1921138763427734
1663862594200988700,6.97798876953125,-3.798712730407715,-8.969199180603027,-1.1373875141143799
1663862594210876400,6.98787646484375,-3.570565938949585,-9.069403648376465,-1.0804473161697388
1663862594220764200,6.99776416015625,-3.354003429412842,-9.157946586608887,-1.0261824131011963
1663862594230652000,7.00765185546875,-3.1508100032806396,-9.234817504882812,-0.9802708625793457
1663862594240539400,7.017539306640625,-2.9581868648529053,-9.302063941955566,-0.9439985156059265
1663862594250427100,7.02742724609375,-2.770402193069458,-9.362470626831055,-0.9161924123764038
1663862594260284400,7.037284423828125,-2.5819690227508545,-9.418205261230469,-0.895106852054596
1663862594270172200,7.047172119140625,-2.3911054134368896,-9.46995735168457,-0.8791489005088806
1663862594280060000,7.057059814453125,-2.2016139030456543,-9.516372680664062,-0.8728967308998108
1663862594289917000,7.0669169921875,-2.0197596549987793,-9.555746078491211,-0.882424533367157
1663862594299804700,7.0768046875,-1.8504464626312256,-9.587640762329102,-0.9074084758758545
1663862594309692400,7.0866923828125,-1.6972062587738037,-9.612556457519531,-0.9426661729812622
1663862594319580200,7.096580078125,-1.5582741498947144,-9.632251739501953,-0.9807652831077576
1663862594329467600,7.106467529296875,-1.4279297590255737,-9.648850440979004,-1.0154248476028442
1663862594339325000,7.116324951171875,-1.3005443811416626,-9.663732528686523,-1.0446175336837769
1663862594349212700,7.126212646484375,-1.171905755996704,-9.677722930908203,-1.0670967102050781
1663862594359100400,7.136100341796875,-1.04417085647583,-9.69085693359375,-1.080458402633667
1663862594368988000,7.14598779296875,-0.918842613697052,-9.702991485595703,-1.0853922367095947
1663862594378875600,7.155875732421875,-0.7953017950057983,-9.714171409606934,-1.0829353332519531
1663862594388733000,7.16573291015625,-0.6725366115570068,-9.724594116210938,-1.0725412368774414
1663862594398590000,7.17558984375,-0.5498058795928955,-9.734347343444824,-1.0538392066955566
1663862594408508200,7.185508056640625,-0.42770272493362427,-9.743277549743652,-1.02761709690094
1663862594418396000,7.19539599609375,-0.3093598484992981,-9.751092910766602,-0.9954169988632202
1663862594428253200,7.205253173828125,-0.1960139125585556,-9.757646560668945,-0.9593238234519958
1663862594438141000,7.215140869140625,-0.08658982068300247,-9.762784004211426,-0.922455906867981
1663862594448028400,7.2250283203125,0.019283629953861237,-9.766383171081543,-0.8875594735145569
1663862594457916200,7.234916259765625,0.12175391614437103,-9.768342971801758,-0.8573383688926697
1663862594467804000,7.244803955078125,0.21948689222335815,-9.768548011779785,-0.835275411605835
1663862594477691600,7.254691650390625,0.3099805414676666,-9.76721477508545,-0.822076678276062
1663862594487579400,7.264579345703125,0.39324843883514404,-9.764921188354492,-0.8136630654335022
1663862594497436400,7.2744365234375,0.4716452956199646,-9.762127876281738,-0.8054766058921814
1663862594507324200,7.28432421875,0.5482252240180969,-9.75882339477539,-0.7969868779182434
1663862594517181400,7.294181396484375,0.6229460835456848,-9.755041122436523,-0.7883601188659668
1663862594527099600,7.304099609375,0.6961942911148071,-9.750866889953613,-0.7786453366279602
1663862594536987400,7.3139873046875,0.7628735899925232,-9.746691703796387,-0.7683843970298767
1663862594546875000,7.323875,0.819823682308197,-9.742670059204102,-0.7606863379478455
1663862594556732200,7.333732177734375,0.8674364686012268,-9.738653182983398,-0.7593172788619995
1663862594566620000,7.343619873046875,0.9085709452629089,-9.73430061340332,-0.7669892907142639
1663862594576477000,7.353476806640625,0.9454756379127502,-9.729580879211426,-0.7821300029754639
1663862594586395100,7.36339501953125,0.9787637591362,-9.724717140197754,-0.8014258742332458
1663862594596283000,7.373282958984375,1.0050357580184937,-9.72019100189209,-0.8235058188438416
1663862594606170600,7.383170654296875,1.0213655233383179,-9.716325759887695,-0.8486558794975281
1663862594616058400,7.393058349609375,1.0243010520935059,-9.713480949401855,-0.8772003054618835
1663862594625946000,7.402946044921875,1.0074050426483154,-9.71219539642334,-0.9103686809539795
1663862594635833600,7.41283349609375,0.9658172726631165,-9.712702751159668,-0.9492006301879883
1663862594645691000,7.42269091796875,0.8988670706748962,-9.714885711669922,-0.9916743636131287
1663862594655548200,7.432548095703125,0.8070644736289978,-9.718445777893066,-1.034814715385437
1663862594665435600,7.442435546875,0.6883428692817688,-9.722929954528809,-1.0775922536849976
1663862594675293000,7.45229296875,0.5388866066932678,-9.727360725402832,-1.121809959411621
1663862594685180700,7.4621806640625,0.3522929847240448,-9.730056762695312,-1.1714365482330322
1663862594695099000,7.472098876953125,0.1220233216881752,-9.728246688842773,-1.2315505743026733
1663862594704986600,7.481986572265625,-0.15718360245227814,-9.718323707580566,-1.3037865161895752
1663862594714874000,7.4918740234375,-0.485397607088089,-9.69594669342041,-1.3868619203567505
1663862594724761900,7.501761962890625,-0.8515059351921082,-9.657269477844238,-1.4773237705230713
1663862594734619100,7.511619140625,-1.234596848487854,-9.600859642028809,-1.571517825126648
1663862594744507000,7.5215068359375,-1.613853931427002,-9.52890682220459,-1.6630680561065674
1663862594754364000,7.531364013671875,-1.9687719345092773,-9.448796272277832,-1.7362520694732666
1663862594764251600,7.541251708984375,-2.290719747543335,-9.369889259338379,-1.7686654329299927
1663862594774139400,7.551139404296875,-2.57353138923645,-9.301712036132812,-1.7393890619277954
1663862594784027100,7.561027099609375,-2.8256185054779053,-9.244839668273926,-1.6490042209625244
1663862594793915000,7.570914794921875,-3.0648486614227295,-9.189319610595703,-1.5275803804397583
1663862594803802400,7.58080224609375,-3.3023862838745117,-9.12514591217041,-1.4129146337509155
1663862594813659600,7.59065966796875,-3.5436367988586426,-9.046216011047363,-1.3337968587875366
1663862594823547400,7.60054736328125,-3.7958836555480957,-8.946368217468262,-1.3130662441253662
1663862594833435100,7.61043505859375,-4.059929847717285,-8.821677207946777,-1.365787386894226
1663862594843322600,7.620322509765625,-4.3307108879089355,-8.67255687713623,-1.4839460849761963
1663862594853210400,7.63021044921875,-4.587660789489746,-8.50986385345459,-1.6449850797653198
1663862594863098000,7.64009814453125,-4.814394474029541,-8.346416473388672,-1.8246445655822754
1663862594872985900,7.64998583984375,-5.0154948234558105,-8.185709953308105,-2.0023388862609863
1663862594882873600,7.65987353515625,-5.206151962280273,-8.022851943969727,-2.167999029159546
1663862594892761000,7.669760986328125,-5.406959533691406,-7.846989631652832,-2.315152883529663
1663862594902648800,7.67964892578125,-5.632189750671387,-7.64757776260376,-2.4420061111450195
1663862594912536600,7.68953662109375,-5.878530979156494,-7.422029972076416,-2.5547475814819336
1663862594922393900,7.699393798828125,-6.126908779144287,-7.179759979248047,-2.6612796783447266
1663862594932281300,7.70928125,-6.352299213409424,-6.938423156738281,-2.7707369327545166
1663862594942169000,7.719169189453125,-6.532444000244141,-6.71786642074585,-2.8927202224731445
1663862594952026400,7.7290263671875,-6.672135829925537,-6.520282745361328,-3.0230605602264404
1663862594961914000,7.7389140625,-6.794231414794922,-6.330958366394043,-3.150836706161499
1663862594971771100,7.748771240234375,-6.905961513519287,-6.144636154174805,-3.2743752002716064
1663862594981689300,7.758689453125,-7.005181789398193,-5.964406967163086,-3.394652843475342
1663862594991577000,7.7685771484375,-7.085840225219727,-5.798076629638672,-3.513340711593628
1663862595001464800,7.77846484375,-7.147388458251953,-5.6468682289123535,-3.632920026779175
1663862595011352600,7.7883525390625,-7.189446926116943,-5.514113903045654,-3.7519032955169678
1663862595021240300,7.798240234375,-7.209916591644287,-5.405823707580566,-3.8684048652648926
1663862595031097300,7.808097412109375,-7.208100318908691,-5.326785564422607,-3.9798285961151123
1663862595040954600,7.81795458984375,-7.182722091674805,-5.280148029327393,-4.086432456970215
1663862595050842400,7.82784228515625,-7.134506702423096,-5.269683837890625,-4.183254718780518
1663862595060729900,7.837729736328125,-7.075620174407959,-5.294893741607666,-4.25089168548584
1663862595070617600,7.84761767578125,-7.0224809646606445,-5.350166320800781,-4.2697625160217285
1663862595080505300,7.85750537109375,-6.98031759262085,-5.432956218719482,-4.234210968017578
1663862595090393000,7.86739306640625,-6.941076278686523,-5.543187618255615,-4.1551079750061035
1663862595100280800,7.87728076171875,-6.889475345611572,-5.676451206207275,-4.059977054595947
1663862595110137900,7.887137939453125,-6.8170366287231445,-5.824796676635742,-3.971163272857666
1663862595120025600,7.897025634765625,-6.737095832824707,-5.97443962097168,-3.884326696395874
1663862595129883000,7.9068828125,-6.670568943023682,-6.115386009216309,-3.7783539295196533
1663862595139801000,7.916801025390625,-6.609389781951904,-6.266780376434326,-3.635080099105835
1663862595149688600,7.9266884765625,-6.56074333190918,-6.412637710571289,-3.4648373126983643
1663862595159576300,7.936576416015625,-6.536866188049316,-6.529368877410889,-3.287415027618408
1663862595169464000,7.946464111328125,-6.484346389770508,-6.671724319458008,-3.1002795696258545
1663862595179351800,7.956351806640625,-6.401970386505127,-6.851927280426025,-2.869886636734009
1663862595189239600,7.966239501953125,-6.313754558563232,-7.013459205627441,-2.668011426925659
1663862595199127000,7.976126953125,-6.2175798416137695,-7.1469244956970215,-2.536444902420044
1663862595209014800,7.986014892578125,-6.111940383911133,-7.280226707458496,-2.410987615585327
1663862595218872000,7.9958720703125,-5.986145496368408,-7.4274163246154785,-2.2737512588500977
1663862595228759800,8.005759765625,-5.846704483032227,-7.579145908355713,-2.131427764892578
1663862595238647300,8.015647216796875,-5.706838130950928,-7.723306179046631,-1.988195538520813
1663862595248535000,8.02553515625,-5.561613082885742,-7.8592352867126465,-1.8631336688995361
1663862595258422800,8.0354228515625,-5.4046759605407715,-7.9900593757629395,-1.7660139799118042
1663862595268280000,8.045280029296874,-5.235712051391602,-8.117645263671875,-1.6916115283966064
1663862595278167800,8.055167724609374,-5.053586959838867,-8.244221687316895,-1.6323175430297852
1663862595288055300,8.06505517578125,-4.85819149017334,-8.37005615234375,-1.5844663381576538
1663862595297943000,8.074943115234374,-4.649518013000488,-8.495231628417969,-1.5438299179077148
1663862595307830800,8.084830810546874,-4.426821231842041,-8.620126724243164,-1.5056699514389038
1663862595317718500,8.094718505859374,-4.192306041717529,-8.742996215820312,-1.467985987663269
1663862595327575600,8.104575439453125,-3.954322099685669,-8.859286308288574,-1.4306570291519165
1663862595337463300,8.11446337890625,-3.7204136848449707,-8.966155052185059,-1.3917547464370728
1663862595347351000,8.12435107421875,-3.496798515319824,-9.061964988708496,-1.3504043817520142
1663862595357238800,8.13423876953125,-3.2848620414733887,-9.14678955078125,-1.3100801706314087
1663862595367126500,8.14412646484375,-3.0829918384552,-9.22174072265625,-1.2747771739959717
1663862595376983600,8.153983642578124,-2.889509916305542,-9.28821086883545,-1.2450876235961914
1663862595386871300,8.163871337890624,-2.701035261154175,-9.348220825195312,-1.2188435792922974
1663862595396728600,8.173728515625,-2.516420364379883,-9.402583122253418,-1.195601463317871
1663862595406616000,8.183615966796875,-2.3337528705596924,-9.451967239379883,-1.1765632629394531
1663862595416503800,8.19350390625,-2.1534242630004883,-9.49600887298584,-1.1657570600509644
1663862595426391600,8.2033916015625,-1.9759228229522705,-9.534611701965332,-1.1650282144546509
1663862595436248800,8.213248779296874,-1.8029320240020752,-9.56788158416748,-1.1728075742721558
1663862595446136300,8.22313623046875,-1.635931134223938,-9.596268653869629,-1.1856380701065063
1663862595456024000,8.233024169921874,-1.4779956340789795,-9.620111465454102,-1.199737548828125
1663862595465911800,8.242911865234374,-1.3282331228256226,-9.640358924865723,-1.2122972011566162
1663862595475799600,8.252799560546874,-1.1831891536712646,-9.658247947692871,-1.220125675201416
1663862595485656600,8.262656494140625,-1.0409507751464844,-9.674671173095703,-1.2196511030197144
1663862595495575000,8.272574951171874,-0.9013157486915588,-9.690139770507812,-1.207981824874878
1663862595505462500,8.282462646484374,-0.7684503793716431,-9.704474449157715,-1.1845027208328247
1663862595515350300,8.292350341796874,-0.643057644367218,-9.717514991760254,-1.1518555879592896
1663862595525207600,8.30220751953125,-0.5241554975509644,-9.728985786437988,-1.114666223526001
1663862595535064600,8.312064697265624,-0.4093512296676636,-9.738725662231445,-1.077054738998413
1663862595544982800,8.321982666015625,-0.29652321338653564,-9.7467679977417,-1.0406616926193237
1663862595554870500,8.33187060546875,-0.18676577508449554,-9.753216743469238,-1.0051268339157104
1663862595564758300,8.34175830078125,-0.07964379340410233,-9.75817584991455,-0.9705953001976013
1663862595574646000,8.35164599609375,0.02482401393353939,-9.761577606201172,-0.9388104677200317
1663862595584533800,8.36153369140625,0.1259891837835312,-9.763375282287598,-0.911607563495636
1663862595594421200,8.371421142578125,0.22249449789524078,-9.76355266571045,-0.8910152912139893
1663862595604309000,8.38130908203125,0.31161099672317505,-9.762320518493652,-0.8777176141738892
1663862595614166300,8.391166259765624,0.38970717787742615,-9.760089874267578,-0.8712950348854065
1663862595624023300,8.401023193359375,0.4563221037387848,-9.75735092163086,-0.8696262836456299
1663862595633911000,8.4109111328125,0.5158225297927856,-9.754403114318848,-0.8694398403167725
1663862595643798800,8.420798828125,0.5732820630073547,-9.751311302185059,-0.8681285977363586
1663862595653686500,8.4306865234375,0.6306470036506653,-9.748062133789062,-0.8648422360420227
1663862595663574300,8.44057421875,0.686576247215271,-9.744626998901367,-0.8609601259231567
1663862595673461800,8.450461669921875,0.7377397418022156,-9.741351127624512,-0.8556925058364868
1663862595683349500,8.460349609375,0.7818655371665955,-9.738661766052246,-0.8470770120620728
1663862595693237200,8.4702373046875,0.8188358545303345,-9.736437797546387,-0.8376608490943909
1663862595703125000,8.480125,0.8488152623176575,-9.734413146972656,-0.8313270807266235
1663862595713012700,8.4900126953125,0.8721615672111511,-9.732586860656738,-0.8285428881645203
1663862595722900500,8.499900390625,0.8887370824813843,-9.731134414672852,-0.8279842734336853
1663862595732757500,8.509757568359374,0.89565509557724,-9.73023796081543,-0.8310591578483582
1663862595742645200,8.519645263671874,0.8886913061141968,-9.729912757873535,-0.8422637581825256
1663862595752533000,8.529532958984374,0.8663691878318787,-9.730050086975098,-0.8636645078659058
1663862595762420700,8.539420654296874,0.8310674428939819,-9.730502128601074,-0.89277184009552
1663862595772308200,8.54930810546875,0.7831495404243469,-9.731188774108887,-0.9279143214225769
1663862595782165500,8.55916552734375,0.717246949672699,-9.732102394104004,-0.9706276059150696
1663862595792053200,8.56905322265625,0.6240164637565613,-9.733010292053223,-1.0244537591934204
1663862595801941000,8.57894091796875,0.4984350800514221,-9.733216285705566,-1.0892462730407715
1663862595811828500,8.588828369140625,0.3378981947898865,-9.731420516967773,-1.1643331050872803
1663862595821716200,8.59871630859375,0.13781948387622833,-9.725638389587402,-1.2503467798233032
1663862595831604000,8.60860400390625,-0.10605040937662125,-9.713091850280762,-1.3472142219543457
1663862595841461200,8.618461181640624,-0.39174702763557434,-9.690908432006836,-1.4502469301223755
1663862595851348700,8.6283486328125,-0.7127758860588074,-9.656328201293945,-1.5548874139785767
1663862595861236500,8.638236572265624,-1.0544086694717407,-9.607717514038086,-1.6584200859069824
1663862595871124200,8.648124267578124,-1.399901032447815,-9.546091079711914,-1.7557936906814575
1663862595881012000,8.658011962890624,-1.7281323671340942,-9.477151870727539,-1.8350870609283447
1663862595890899700,8.667899658203124,-2.020458221435547,-9.411011695861816,-1.8764312267303467
1663862595900756700,8.6777568359375,-2.271876811981201,-9.357041358947754,-1.85869300365448
1663862595910644500,8.68764453125,-2.494671583175659,-9.31623363494873,-1.776174783706665
1663862595920532200,8.6975322265625,-2.7057337760925293,-9.280501365661621,-1.649757981300354
1663862595930420000,8.707419921875,-2.9217071533203125,-9.237713813781738,-1.5161305665969849
1663862595940307500,8.717307373046875,-3.150535821914673,-9.179648399353027,-1.4066146612167358
1663862595950164700,8.727164794921874,-3.395106077194214,-9.101876258850098,-1.3414528369903564
1663862595960052500,8.737052490234374,-3.6577847003936768,-9.000494003295898,-1.3349558115005493
1663862595969940200,8.746940185546874,-3.932816982269287,-8.875044822692871,-1.3917319774627686
1663862595979828000,8.756827880859374,-4.210361957550049,-8.729065895080566,-1.4988880157470703
1663862595989715500,8.766715576171874,-4.477632999420166,-8.57048511505127,-1.6333943605422974
1663862595999603200,8.776603271484374,-4.710958957672119,-8.413788795471191,-1.7847740650177002
1663862596009460500,8.78646044921875,-4.902334690093994,-8.267909049987793,-1.9440100193023682
1663862596019348200,8.79634814453125,-5.071868896484375,-8.127325057983398,-2.0959765911102295
1663862596029235700,8.806235595703125,-5.244721412658691,-7.981229305267334,-2.2278389930725098
1663862596039123500,8.81612353515625,-5.441300868988037,-7.817585468292236,-2.3340940475463867
1663862596049011200,8.82601123046875,-5.6704888343811035,-7.627719879150391,-2.4153337478637695
1663862596058899000,8.83589892578125,-5.919897079467773,-7.413280963897705,-2.4836413860321045
1663862596068756000,8.845755859375,-6.156191349029541,-7.191763401031494,-2.5593411922454834
1663862596078643700,8.855643798828124,-6.349327564239502,-6.986180305480957,-2.6551296710968018
1663862596088531500,8.865531494140624,-6.495668888092041,-6.807980060577393,-2.761899948120117
1663862596098419200,8.875419189453124,-6.620447158813477,-6.642974376678467,-2.865475654602051
1663862596108307000,8.885306884765624,-6.736578941345215,-6.4777960777282715,-2.9710354804992676
1663862596118164000,8.8951640625,-6.843174457550049,-6.31014347076416,-3.0860044956207275
1663862596128021200,8.905021240234374,-6.93852424621582,-6.1442365646362305,-3.2055623531341553
1663862596137878300,8.914878173828125,-7.019644260406494,-5.988131046295166,-3.322237730026245
1663862596147766000,8.92476611328125,-7.082831382751465,-5.8471455574035645,-3.4372634887695312
1663862596157684200,8.934684326171874,-7.120133876800537,-5.729987144470215,-3.5554661750793457
1663862596167572000,8.944572021484374,-7.132205009460449,-5.639352321624756,-3.674201011657715
1663862596177459700,8.954459716796874,-7.124706745147705,-5.572607040405273,-3.7887983322143555
1663862596187316700,8.964316650390625,-7.1045379638671875,-5.530240058898926,-3.887463331222534
1663862596197174000,8.974174072265624,-7.080324172973633,-5.512676239013672,-3.955983877182007
1663862596207061800,8.984061767578124,-7.05448579788208,-5.520859241485596,-3.990579605102539
1663862596216949500,8.993949462890624,-7.02934455871582,-5.549749851226807,-3.9948697090148926
1663862596226867700,9.00386767578125,-7.00401496887207,-5.595957279205322,-3.9748497009277344
1663862596236724700,9.013724853515624,-6.978151321411133,-5.65834903717041,-3.9317779541015625
1663862596246612500,9.023612548828124,-6.950857639312744,-5.738892555236816,-3.862781524658203
1663862596256469800,9.0334697265625,-6.91793966293335,-5.839607238769531,-3.7698121070861816
1663862596266388000,9.043387939453124,-6.871659755706787,-5.962370872497559,-3.6607136726379395
1663862596276245000,9.053244873046875,-6.811094284057617,-6.1014018058776855,-3.5429201126098633
1663862596286163200,9.0631630859375,-6.743928909301758,-6.247241973876953,-3.4149327278137207
1663862596296020500,9.0730205078125,-6.679669380187988,-6.387984752655029,-3.278116226196289
1663862596305877800,9.082877685546874,-6.6005473136901855,-6.535231113433838,-3.1454598903656006
1663862596315765200,9.09276513671875,-6.5056023597717285,-6.684371471405029,-3.0276565551757812
1663862596325683500,9.102683349609375,-6.430740833282471,-6.806407451629639,-2.913550615310669
1663862596335540700,9.112540771484374,-6.371933460235596,-6.918379783630371,-2.7757644653320312
1663862596345428500,9.122428466796874,-6.297666549682617,-7.057167053222656,-2.5896294116973877
1663862596355316200,9.132316162109374,-6.207027912139893,-7.20331335067749,-2.3990554809570312
1663862596365203700,9.14220361328125,-6.114803791046143,-7.335162162780762,-2.230461359024048
1663862596375091500,9.152091552734374,-6.017204761505127,-7.462982654571533,-2.0657973289489746
1663862596384979200,9.161979248046874,-5.899797439575195,-7.599210262298584,-1.9012584686279297
1663862596394836500,9.17183642578125,-5.7623772621154785,-7.740471363067627,-1.7465683221817017
1663862596404724000,9.181723876953125,-5.605823516845703,-7.883069038391113,-1.6131802797317505
1663862596414611700,9.19161181640625,-5.432530879974365,-8.025460243225098,-1.4999949932098389
1663862596424469000,9.201468994140624,-5.243798732757568,-8.167274475097656,-1.4030643701553345
1663862596434387200,9.21138720703125,-5.0412397384643555,-8.307316780090332,-1.3209012746810913
1663862596444275000,9.22127490234375,-4.831858158111572,-8.441131591796875,-1.2533262968063354
1663862596454162400,9.231162353515625,-4.620718479156494,-8.566669464111328,-1.1964609622955322
1663862596464050200,9.24105029296875,-4.413440704345703,-8.68207836151123,-1.146058201789856
1663862596473938000,9.25093798828125,-4.210515975952148,-8.788350105285645,-1.098561406135559
1663862596483795200,9.260795166015624,-4.004947185516357,-8.889358520507812,-1.0536025762557983
1663862596493683000,9.270682861328124,-3.7882425785064697,-8.98875617980957,-1.0108646154403687
1663862596503570400,9.2805703125,-3.5594329833984375,-9.086525917053223,-0.9674085974693298
1663862596513458200,9.290458251953124,-3.3237133026123047,-9.1805419921875,-0.9170566201210022
1663862596523346000,9.300345947265624,-3.0933234691619873,-9.266803741455078,-0.8532759547233582
1663862596533233700,9.310233642578124,-2.878338098526001,-9.342373847961426,-0.7781997323036194
1663862596543121400,9.320121337890624,-2.6806139945983887,-9.406935691833496,-0.7030298709869385
1663862596553009000,9.3300087890625,-2.493107795715332,-9.462904930114746,-0.6389379501342773
1663862596562896600,9.339896728515624,-2.3116202354431152,-9.51190185546875,-0.592057466506958
1663862596572754000,9.34975390625,-2.1387760639190674,-9.55407428741455,-0.5618728995323181
1663862596582641700,9.3596416015625,-1.9743294715881348,-9.59038257598877,-0.5449485182762146
1663862596592498700,9.369498779296874,-1.8179770708084106,-9.62153434753418,-0.5398411154747009
1663862596602386400,9.379386474609374,-1.666813850402832,-9.648484230041504,-0.5466979742050171
1663862596612274200,9.389274169921874,-1.5221097469329834,-9.671340942382812,-0.5645644664764404
1663862596622162000,9.399161865234374,-1.3845831155776978,-9.690335273742676,-0.5922298431396484
1663862596632049400,9.40904931640625,-1.2523397207260132,-9.70606517791748,-0.6279612183570862
1663862596641937200,9.418937255859374,-1.1226922273635864,-9.719488143920898,-0.6644666790962219
1663862596651825000,9.428824951171874,-0.9935311079025269,-9.731493949890137,-0.6937614679336548
1663862596661712600,9.438712646484374,-0.8634384870529175,-9.742308616638184,-0.7157361507415771
1663862596671600400,9.448600341796874,-0.7332645058631897,-9.751604080200195,-0.7341254353523254
1663862596681488000,9.45848779296875,-0.6025002002716064,-9.759499549865723,-0.7480284571647644
1663862596691345200,9.46834521484375,-0.47594159841537476,-9.766042709350586,-0.7538419365882874
1663862596701233000,9.47823291015625,-0.3569408655166626,-9.771257400512695,-0.7520025372505188
1663862596711120600,9.48812060546875,-0.2471083402633667,-9.775163650512695,-0.7453124523162842
1663862596721008400,9.49800830078125,-0.14686140418052673,-9.777915000915527,-0.7356660962104797
1663862596730896000,9.507895751953125,-0.0566389262676239,-9.779899597167969,-0.7216281294822693
1663862596740783600,9.51778369140625,0.029072176665067673,-9.781578063964844,-0.700203001499176
1663862596750641000,9.527640869140624,0.11573190987110138,-9.78298282623291,-0.6710113286972046
1663862596760498000,9.537497802734375,0.20428259670734406,-9.7836332321167,-0.6396604776382446
1663862596770385700,9.5473857421875,0.2941480576992035,-9.783008575439453,-0.6136686205863953
1663862596780273400,9.5572734375,0.3827826678752899,-9.780986785888672,-0.5967934727668762
1663862596790161200,9.5671611328125,0.46800926327705383,-9.777812004089355,-0.5880172252655029
1663862596800049000,9.577048828125,0.5489642024040222,-9.773709297180176,-0.5862001180648804
1663862596809936400,9.586936279296875,0.62960284948349,-9.768594741821289,-0.5903794169425964
1663862596819824000,9.59682421875,0.7118738293647766,-9.762516021728516,-0.5974171757698059
1663862596829681400,9.606681396484374,0.7894710898399353,-9.756184577941895,-0.6033142805099487
1663862596839569200,9.616569091796874,0.8587021827697754,-9.750160217285156,-0.6061338186264038
1663862596849456600,9.62645654296875,0.9236961603164673,-9.744186401367188,-0.6066316962242126
1663862596859344400,9.636344482421874,0.9898452162742615,-9.737605094909668,-0.6079785227775574
1663862596869232000,9.646232177734374,1.0589712858200073,-9.730116844177246,-0.6113842725753784
1663862596879120000,9.656119873046874,1.130537986755371,-9.72159194946289,-0.6187950372695923
1663862596889007600,9.666007568359374,1.203881859779358,-9.711910247802734,-0.6323415040969849
1663862596898895000,9.67589501953125,1.2771393060684204,-9.701348304748535,-0.6505077481269836
1663862596908782800,9.685782958984374,1.3490349054336548,-9.690199851989746,-0.6711970567703247
1663862596918640000,9.69564013671875,1.419202208518982,-9.678557395935059,-0.6941007971763611
1663862596928497200,9.7054970703125,1.4873360395431519,-9.666474342346191,-0.7193557024002075
1663862596938385000,9.715385009765624,1.5494873523712158,-9.654455184936523,-0.7489767074584961
1663862596948272600,9.725272705078124,1.600239872932434,-9.643275260925293,-0.7854053974151611
1663862596958160400,9.735160400390624,1.6368809938430786,-9.633416175842285,-0.8296386003494263
1663862596968048000,9.745048095703124,1.6556607484817505,-9.626019477844238,-0.8768900036811829
1663862596977936000,9.754935791015624,1.6512773036956787,-9.622634887695312,-0.9211767911911011
1663862596987793000,9.76479296875,1.618512511253357,-9.62423038482666,-0.9617710709571838
1663862596997680600,9.7746806640625,1.554121732711792,-9.630663871765137,-1.002700924873352
1663862597007568400,9.784568359375,1.4572479724884033,-9.640908241271973,-1.0486739873886108
1663862597017456000,9.7944560546875,1.325703740119934,-9.654232025146484,-1.0994077920913696
1663862597027343600,9.804343505859375,1.157035231590271,-9.669668197631836,-1.1528927087783813
1663862597037231400,9.8142314453125,0.9512847661972046,-9.684866905212402,-1.211940050125122
1663862597047119000,9.824119140625,0.7042717337608337,-9.697161674499512,-1.280409336090088
1663862597057006800,9.8340068359375,0.4157426357269287,-9.70312213897705,-1.3590319156646729
1663862597066894600,9.84389453125,0.09558171033859253,-9.698968887329102,-1.446118712425232
1663862597076782000,9.853781982421875,-0.24063663184642792,-9.68213939666748,-1.5390422344207764
1663862597086639400,9.863639404296874,-0.5770337581634521,-9.652678489685059,-1.631935715675354
1663862597096527000,9.873527099609374,-0.9047080874443054,-9.61226749420166,-1.7193658351898193
1663862597106414800,9.883414794921874,-1.215666651725769,-9.564580917358398,-1.7920212745666504
1663862597116302300,9.89330224609375,-1.505780816078186,-9.514286041259766,-1.8388550281524658
1663862597126159600,9.90315966796875,-1.772470235824585,-9.466130256652832,-1.8496240377426147
1663862597136017000,9.913016845703124,-2.022205114364624,-9.423089027404785,-1.8128633499145508
1663862597145904400,9.922904296875,-2.2559335231781006,-9.386049270629883,-1.7272014617919922
1663862597155761700,9.93276171875,-2.469991683959961,-9.353399276733398,-1.6073102951049805
1663862597165679900,9.942679931640624,-2.6748740673065186,-9.319419860839844,-1.4710054397583008
1663862597175537200,9.952537109375,-2.8849008083343506,-9.276129722595215,-1.342075228691101
1663862597185424600,9.962424560546875,-3.115457773208618,-9.214449882507324,-1.2482889890670776
1663862597195312400,9.9723125,-3.369671583175659,-9.129148483276367,-1.2142233848571777
1663862597205200100,9.9822001953125,-3.644314765930176,-9.01830768585205,-1.248794436454773
1663862597215057400,9.992057373046874,-3.9279251098632812,-8.88453197479248,-1.3442097902297974
1663862597224975600,10.0019755859375,-4.207927703857422,-8.73303508758545,-1.4825119972229004
1663862597234832600,10.01183251953125,-4.468686580657959,-8.574681282043457,-1.635867714881897
1663862597244720400,10.021720458984374,-4.706801891326904,-8.416603088378906,-1.7824711799621582
1663862597254608100,10.031608154296874,-4.918587684631348,-8.265507698059082,-1.9129217863082886
1663862597264495900,10.041495849609374,-5.112615585327148,-8.1199369430542,-2.0243942737579346
1663862597274383600,10.051383544921874,-5.310490608215332,-7.969147682189941,-2.112288236618042
1663862597284240600,10.06124072265625,-5.526356220245361,-7.802865028381348,-2.1783182621002197
1663862597294128400,10.07112841796875,-5.764527320861816,-7.613802433013916,-2.229489803314209
1663862597304016100,10.08101611328125,-6.02085542678833,-7.400516986846924,-2.2698073387145996
1663862597313903900,10.09090380859375,-6.277310371398926,-7.172180652618408,-2.3077218532562256
1663862597323791400,10.100791259765625,-6.499796390533447,-6.952345848083496,-2.363877534866333
1663862597333679000,10.11067919921875,-6.667966365814209,-6.760953903198242,-2.4491047859191895
1663862597343566800,10.12056689453125,-6.8035664558410645,-6.587954521179199,-2.545727491378784
1663862597353454600,10.13045458984375,-6.928127288818359,-6.414730548858643,-2.6500344276428223
1663862597363342300,10.14034228515625,-7.042482376098633,-6.237225532531738,-2.7696285247802734
1663862597373199400,10.150199462890624,-7.141166687011719,-6.061641216278076,-2.9035537242889404
1663862597383056600,10.160056640625,-7.2210774421691895,-5.894309997558594,-3.046888828277588
1663862597392944400,10.1699443359375,-7.281941890716553,-5.739252090454102,-3.19447660446167
1663862597402862600,10.179862548828124,-7.326123237609863,-5.597847938537598,-3.3410184383392334
1663862597412750000,10.18975,-7.35264778137207,-5.475277900695801,-3.4828572273254395
1663862597422607400,10.199607421875,-7.354788780212402,-5.381588459014893,-3.621598243713379
1663862597432464600,10.209464599609374,-7.3377275466918945,-5.31589412689209,-3.750920534133911
1663862597442382800,10.2193828125,-7.309141159057617,-5.2734808921813965,-3.864872694015503
1663862597452270600,10.2292705078125,-7.273171424865723,-5.254607677459717,-3.9573285579681396
1663862597462158000,10.239157958984375,-7.2335405349731445,-5.258103370666504,-4.024751663208008
1663862597472015400,10.249015380859374,-7.193999290466309,-5.283679962158203,-4.061956882476807
1663862597481903000,10.258903076171874,-7.154235363006592,-5.329076290130615,-4.072867393493652
1663862597491760000,10.268760009765625,-7.117948055267334,-5.3873772621154785,-4.059725284576416
1663862597501648000,10.27864794921875,-7.090349197387695,-5.455892562866211,-4.0162882804870605
1663862597511535600,10.28853564453125,-7.073199272155762,-5.537021636962891,-3.934669017791748
1663862597521453800,10.298453857421874,-7.059798717498779,-5.634278297424316,-3.818972110748291
1663862597531341600,10.308341552734374,-7.038404941558838,-5.747197151184082,-3.687948226928711
1663862597541229300,10.318229248046874,-6.999608993530273,-5.872897624969482,-3.561591625213623
1663862597551086300,10.32808642578125,-6.9456048011779785,-6.0040082931518555,-3.446861505508423
1663862597560943600,10.337943603515624,-6.8954339027404785,-6.125538349151611,-3.331839084625244
1663862597570831400,10.347831298828124,-6.861948013305664,-6.232407093048096,-3.2001802921295166
1663862597580718800,10.35771875,-6.828456401824951,-6.340868949890137,-3.0554800033569336
1663862597590606600,10.367606689453124,-6.780200004577637,-6.454226016998291,-2.922711133956909
1663862597600494300,10.377494384765624,-6.722254276275635,-6.574556827545166,-2.785118818283081
1663862597610382000,10.387382080078124,-6.649147987365723,-6.721591949462891,-2.603734254837036
1663862597620269800,10.397269775390624,-6.557936668395996,-6.881680011749268,-2.409635543823242
1663862597630126800,10.407126953125,-6.46563720703125,-7.0292067527771,-2.226245164871216
1663862597640045000,10.417045166015624,-6.375356674194336,-7.161778450012207,-2.0577023029327393
1663862597649932800,10.426932861328124,-6.279646873474121,-7.287749767303467,-1.9039751291275024
1663862597659820500,10.436820556640624,-6.182295799255371,-7.398194313049316,-1.7934110164642334
1663862597669677600,10.446677490234375,-6.09342098236084,-7.481166362762451,-1.7529271841049194
1663862597679534800,10.456534912109374,-6.00670051574707,-7.553849220275879,-1.7404887676239014
1663862597689453000,10.466453125,-5.906646728515625,-7.6290974617004395,-1.7546461820602417
1663862597699340800,10.4763408203125,-5.7950592041015625,-7.707274913787842,-1.7848219871520996
1663862597709228500,10.486228515625,-5.673359394073486,-7.7909345626831055,-1.812381386756897
1663862597719116300,10.4961162109375,-5.542811870574951,-7.877751350402832,-1.8408315181732178
1663862597728973300,10.505973388671874,-5.4022722244262695,-7.965371608734131,-1.8811376094818115
1663862597738861000,10.515861083984374,-5.242062091827393,-8.059517860412598,-1.932704210281372
1663862597748718300,10.52571826171875,-5.036791801452637,-8.176857948303223,-1.9849672317504883
1663862597758636500,10.535636474609374,-4.796120643615723,-8.31141471862793,-2.021880865097046
1663862597768524000,10.54552392578125,-4.561895847320557,-8.44128131866455,-2.0258963108062744
1663862597778411800,10.555411865234374,-4.381714344024658,-8.54314136505127,-1.9964203834533691
1663862597788299500,10.565299560546874,-4.244604587554932,-8.619539260864258,-1.9639910459518433
1663862597798187300,10.575187255859374,-4.10552453994751,-8.692985534667969,-1.9357349872589111
1663862597808075000,10.585074951171874,-3.9454610347747803,-8.775311470031738,-1.896743655204773
1663862597817962500,10.59496240234375,-3.7762155532836914,-8.85927677154541,-1.8503499031066895
1663862597827819800,10.60481982421875,-3.6060166358947754,-8.938323974609375,-1.8092550039291382
1663862597837707500,10.61470751953125,-3.4221837520599365,-9.015962600708008,-1.7808607816696167
1663862597847595300,10.62459521484375,-3.2102530002593994,-9.09669017791748,-1.7649037837982178
1663862597857482800,10.634482666015625,-2.9777276515960693,-9.17687702178955,-1.7573978900909424
1663862597867340000,10.644340087890624,-2.742030143737793,-9.25245189666748,-1.7446470260620117
1663862597877227800,10.654227783203124,-2.5231668949127197,-9.319239616394043,-1.71923828125
1663862597887115500,10.664115478515624,-2.3405449390411377,-9.367755889892578,-1.7138798236846924
1663862597897003000,10.6740029296875,-2.1536107063293457,-9.403435707092285,-1.7628750801086426
1663862597906890800,10.683890869140624,-1.958200454711914,-9.432969093322754,-1.8316471576690674
1663862597916778500,10.693778564453124,-1.7718383073806763,-9.460329055786133,-1.879668951034546
1663862597926635800,10.7036357421875,-1.5626327991485596,-9.491290092468262,-1.908921241760254
1663862597936523500,10.7135234375,-1.311157464981079,-9.530174255371094,-1.9044774770736694
1663862597946411000,10.723410888671875,-1.0317306518554688,-9.57399845123291,-1.8559292554855347
1663862597956298800,10.733298828125,-0.7530577778816223,-9.614533424377441,-1.7787747383117676
1663862597966186500,10.7431865234375,-0.511371374130249,-9.644148826599121,-1.7027239799499512
1663862597976074200,10.75307421875,-0.3427741229534149,-9.657875061035156,-1.6668363809585571
1663862597985962000,10.7629619140625,-0.2347244918346405,-9.661707878112793,-1.6633392572402954
1663862597995819000,10.772819091796874,-0.13421481847763062,-9.666515350341797,-1.6464641094207764
1663862598005706800,10.782706787109374,-0.014481407590210438,-9.674447059631348,-1.604761004447937
1663862598015594500,10.792594482421874,0.1155647560954094,-9.683175086975098,-1.546980857849121
1663862598025482200,10.802482177734374,0.24309141933918,-9.6920747756958,-1.4747841358184814
1663862598035369700,10.81236962890625,0.3649965822696686,-9.700973510742188,-1.388622522354126
1663862598045257500,10.822257568359374,0.47934529185295105,-9.708944320678711,-1.2949957847595215
1663862598055114800,10.83211474609375,0.5808089375495911,-9.71556282043457,-1.2003722190856934
1663862598064971800,10.8419716796875,0.6535170078277588,-9.722869873046875,-1.0995925664901733
1663862598074829000,10.8518291015625,0.7070357799530029,-9.731813430786133,-0.9809678196907043
1663862598084747300,10.861747314453124,0.7525960803031921,-9.742254257202148,-0.8321393728256226
1663862598094604500,10.8716044921875,0.791451096534729,-9.752742767333984,-0.6542132496833801
1663862598104522800,10.881522705078124,0.8234328031539917,-9.76175594329834,-0.44772616028785706
1663862598114410200,10.89141015625,0.8453022837638855,-9.767704963684082,-0.218600332736969
1663862598124298000,10.901298095703124,0.8419947028160095,-9.77040958404541,0.022715013474225998
1663862598134185700,10.911185791015624,0.8076880574226379,-9.769366264343262,0.2784115672111511
1663862598144073500,10.921073486328124,0.7483047246932983,-9.76232624053955,0.5544483065605164
1663862598153961200,10.930961181640624,0.6730994582176208,-9.748047828674316,0.8324032425880432
1663862598163818200,10.940818359375,0.6116227507591248,-9.727916717529297,1.0788555145263672
1663862598173675500,10.950675537109374,0.5817840099334717,-9.70402717590332,1.2898752689361572
1663862598183563300,10.960563232421874,0.5774982571601868,-9.676239013671875,1.4856971502304077
1663862598193451000,10.970450927734374,0.598637044429779,-9.643983840942383,1.6749917268753052
1663862598203308000,10.98030810546875,0.6645023226737976,-9.608110427856445,1.8474408388137817
1663862598213226200,10.990226318359374,0.7971328496932983,-9.565451622009277,2.0092549324035645
1663862598223083500,11.00008349609375,0.9966508150100708,-9.516634941101074,2.1472601890563965
1663862598232971300,11.00997119140625,1.2292048931121826,-9.470658302307129,2.22847056388855
1663862598242858800,11.019858642578125,1.425195574760437,-9.444167137145996,2.2241640090942383
1663862598252746500,11.02974658203125,1.5386967658996582,-9.440983772277832,2.161160707473755
1663862598262634200,11.03963427734375,1.643768310546875,-9.438041687011719,2.095660448074341
1663862598272522000,11.04952197265625,1.9309595823287964,-9.410755157470703,1.9696396589279175
1663862598282409700,11.05940966796875,2.4103920459747314,-9.348666191101074,1.7212918996810913
1663862598292297200,11.069297119140625,2.9520351886749268,-9.23755168914795,1.4572325944900513
1663862598302185000,11.07918505859375,3.4633750915527344,-9.091094017028809,1.2358912229537964
1663862598312072700,11.08907275390625,3.911362409591675,-8.938898086547852,0.9837393760681152
1663862598321960400,11.09896044921875,4.310405254364014,-8.786225318908691,0.6269355416297913
1663862598331848200,11.10884814453125,4.640103340148926,-8.638204574584961,0.1457863748073578
1663862598341705200,11.118705322265624,4.839176654815674,-8.521883964538574,-0.3609049320220947
1663862598351593000,11.128593017578124,4.931812763214111,-8.44016170501709,-0.7818349599838257
1663862598361480700,11.138480712890624,5.006813049316406,-8.356618881225586,-1.1265637874603271
1663862598371368400,11.148368408203124,5.103977680206299,-8.248940467834473,-1.4404038190841675
1663862598381225500,11.1582255859375,5.2229766845703125,-8.109806060791016,-1.7669016122817993
1663862598391113200,11.16811328125,5.3733038902282715,-7.922112941741943,-2.130286693572998
1663862598400970500,11.177970458984374,5.584156513214111,-7.66603422164917,-2.4938912391662598
1663862598410827500,11.18782763671875,5.834540843963623,-7.340845108032227,-2.870628833770752
1663862598420715300,11.19771533203125,6.0933837890625,-6.9553608894348145,-3.2655811309814453
1663862598430603000,11.20760302734375,6.357969284057617,-6.523570537567139,-3.6317548751831055
1663862598440521200,11.217521240234374,6.628937721252441,-6.049569129943848,-3.953514814376831
1663862598450409000,11.227408935546874,6.844113826751709,-5.558248043060303,-4.293525695800781
1663862598460266000,11.237265869140625,6.95294189453125,-5.072739124298096,-4.700457572937012
1663862598470153700,11.24715380859375,6.989133358001709,-4.612239837646484,-5.103884220123291
1663862598480011000,11.257010986328124,7.007617950439453,-4.206952095031738,-5.418968677520752
1663862598489929200,11.26692919921875,7.050414562225342,-3.8605661392211914,-5.617656707763672
1663862598499817000,11.27681689453125,7.154877185821533,-3.558962821960449,-5.684355735778809
1663862598509704400,11.286704345703125,7.325472831726074,-3.286473512649536,-5.630888938903809
1663862598519592200,11.29659228515625,7.521576404571533,-3.022308111190796,-5.519232749938965
1663862598529480000,11.30647998046875,7.700041770935059,-2.7408745288848877,-5.41916561126709
1663862598539367700,11.31636767578125,7.82056188583374,-2.4280505180358887,-5.395718574523926
1663862598549224700,11.326224609375,7.863997936248779,-2.098829507827759,-5.47017765045166
1663862598559112400,11.336112548828124,7.92645788192749,-1.7596352100372314,-5.499576091766357
1663862598569000200,11.346000244140624,8.103384017944336,-1.4183586835861206,-5.3379597663879395
1663862598578888000,11.355887939453124,8.374197959899902,-1.0840058326721191,-4.986795902252197
1663862598588775700,11.365775634765624,8.686477661132812,-0.7491207122802734,-4.489356517791748
1663862598598663200,11.3756630859375,8.998273849487305,-0.41393107175827026,-3.876871109008789
1663862598608551000,11.385551025390624,9.273306846618652,-0.09518619626760483,-3.1885905265808105
1663862598618408200,11.395408203125,9.487120628356934,0.187699556350708,-2.4758212566375732
1663862598628296000,11.4052958984375,9.628361701965332,0.4237988591194153,-1.8125773668289185
1663862598638153000,11.415153076171874,9.7053861618042,0.6086615324020386,-1.267043948173523
1663862598648010200,11.42501025390625,9.740499496459961,0.7397186160087585,-0.8636400103569031
1663862598657898000,11.43489794921875,9.75405216217041,0.8282763361930847,-0.5855003595352173
1663862598667785700,11.44478564453125,9.75658893585205,0.9034958481788635,-0.40380316972732544
1663862598677673200,11.454673095703125,9.751465797424316,0.9903854131698608,-0.313760906457901
1663862598687530500,11.464530517578124,9.737933158874512,1.114278793334961,-0.31845301389694214
1663862598697418200,11.474418212890624,9.720038414001465,1.26771879196167,-0.2900542914867401
1663862598707336400,11.48433642578125,9.693960189819336,1.4733754396438599,-0.16338294744491577
1663862598717224200,11.49422412109375,9.643749237060547,1.7800155878067017,0.005462724715471268
1663862598727111700,11.504111572265625,9.54987621307373,2.2273972034454346,0.09464030712842941
1663862598736999400,11.51399951171875,9.393587112426758,2.8147637844085693,0.08950503915548325
1663862598746887200,11.52388720703125,9.158844947814941,3.5045950412750244,0.06122405454516411
1663862598756775000,11.53377490234375,8.84244441986084,4.24045991897583,-0.008041581138968468
1663862598766662700,11.54366259765625,8.4486722946167,4.974128246307373,-0.2199612259864807
1663862598776550100,11.553550048828125,7.981123447418213,5.67064094543457,-0.5620366334915161
1663862598786438000,11.56343798828125,7.516204357147217,6.2530012130737305,-0.7596264481544495
1663862598796295200,11.573295166015624,7.119334697723389,6.704394340515137,-0.7324994206428528
1663862598806183000,11.583182861328124,6.758309841156006,7.0777692794799805,-0.633108377456665
1663862598816070400,11.5930703125,6.410322189331055,7.400434494018555,-0.5583255290985107
1663862598825927700,11.602927734375,6.079710483551025,7.677107334136963,-0.5191521644592285
1663862598835815400,11.6128154296875,5.778177261352539,7.908816814422607,-0.4833886921405792
1663862598845703200,11.622703125,5.5183539390563965,8.0946683883667,-0.4410269260406494
1663862598855590700,11.632590576171875,5.311565399169922,8.234113693237305,-0.39628541469573975
1663862598865478400,11.642478515625,5.170060157775879,8.325279235839844,-0.3613761067390442
1663862598875335700,11.652335693359374,5.090643882751465,8.374462127685547,-0.3523140847682953
1663862598885223400,11.662223388671874,5.066991806030273,8.387746810913086,-0.37640947103500366
1663862598895080400,11.67208056640625,5.07138729095459,8.380084991455078,-0.4749744236469269
1663862598904968200,11.68196826171875,5.0933518409729,8.357945442199707,-0.610657274723053
1663862598914825500,11.691825439453124,5.14285945892334,8.31698226928711,-0.7410784959793091
1663862598924743700,11.70174365234375,5.226345539093018,8.252161979675293,-0.8703504800796509
1663862598934600700,11.7116005859375,5.34471321105957,8.162332534790039,-0.9903275370597839
1663862598944519000,11.721518798828125,5.488043308258057,8.053732872009277,-1.0904947519302368
1663862598954376200,11.731376220703124,5.639712810516357,7.940713405609131,-1.144158124923706
1663862598964233500,11.7412333984375,5.7855544090271,7.837599277496338,-1.1268482208251953
1663862598974121000,11.751120849609375,5.895755290985107,7.764062881469727,-1.0629127025604248
1663862598984008700,11.7610087890625,5.9502668380737305,7.729328155517578,-1.0110368728637695
1663862598993896400,11.770896484375,5.949558734893799,7.731091022491455,-1.00167977809906
1663862599003784200,11.7807841796875,5.901029109954834,7.765541076660156,-1.0220624208450317
1663862599013672000,11.790671875,5.817490100860596,7.825102806091309,-1.046401858329773
1663862599023559400,11.800559326171875,5.714986324310303,7.898933410644531,-1.0564926862716675
1663862599033468000,11.810468017578126,5.6015625,7.97998571395874,-1.0548491477966309
1663862599043325200,11.8203251953125,5.479381084442139,8.06480884552002,-1.0514940023422241
1663862599053243400,11.830243408203126,5.351407051086426,8.150599479675293,-1.049081563949585
1663862599063131100,11.840131103515626,5.228907108306885,8.230209350585938,-1.0452616214752197
1663862599072979000,11.84997900390625,5.120026111602783,8.299185752868652,-1.0388612747192383
1663862599082866700,11.85986669921875,5.02938175201416,8.3560209274292,-1.0259709358215332
1663862599092754200,11.869754150390625,4.966557025909424,8.395581245422363,-1.0089186429977417
1663862599102642000,11.879641845703125,4.939375877380371,8.413046836853027,-0.9967973828315735
1663862599112529700,11.88952978515625,4.943789482116699,8.410311698913574,-0.9979948997497559
1663862599122417400,11.89941748046875,4.970207214355469,8.392753601074219,-1.0144540071487427
1663862599132305200,11.90930517578125,5.010903835296631,8.365811347961426,-1.0365517139434814
1663862599142192600,11.919192626953125,5.059460639953613,8.334667205810547,-1.0514558553695679
1663862599152080400,11.929080322265625,5.109402656555176,8.30465316772461,-1.047432780265808
1663862599161968000,11.938968017578125,5.153587341308594,8.280895233154297,-1.018673062324524
1663862599171856000,11.94885595703125,5.187148094177246,8.266260147094727,-0.9658268690109253
1663862599181713200,11.958713134765626,5.210762977600098,8.259223937988281,-0.8964144587516785
1663862599191600600,11.9686005859375,5.229720115661621,8.255104064941406,-0.8207692503929138
1663862599201458000,11.9784580078125,5.249645233154297,8.249286651611328,-0.7489228248596191
1663862599211345700,11.988345703125,5.276062488555908,8.237738609313965,-0.6879087090492249
1663862599221233400,11.9982333984375,5.315674781799316,8.215956687927246,-0.6419079303741455
1663862599231121000,12.008120849609375,5.371478080749512,8.18172836303711,-0.613947868347168
1663862599241008600,12.018008544921875,5.440170764923096,8.137202262878418,-0.60073322057724
1663862599250896400,12.027896484375,5.5155768394470215,8.086596488952637,-0.5964427590370178
1663862599260784000,12.0377841796875,5.591546058654785,8.034066200256348,-0.5989879369735718
1663862599270672000,12.047671875,5.664609909057617,7.982006072998047,-0.6084039807319641
1663862599280559400,12.057559326171875,5.736119747161865,7.929476737976074,-0.6250762939453125
1663862599290447000,12.067447021484375,5.806856632232666,7.875914573669434,-0.6486794352531433
1663862599300304400,12.077304443359376,5.876159191131592,7.821902751922607,-0.6774724125862122
1663862599310192000,12.087192138671876,5.945663928985596,7.766645908355713,-0.7061730027198792
1663862599320079600,12.09707958984375,6.018736839294434,7.708150863647461,-0.7277458906173706
1663862599329967400,12.10696728515625,6.099689960479736,7.64313268661499,-0.7393934726715088
1663862599339855000,12.116855224609376,6.188973426818848,7.570792198181152,-0.7416970729827881
1663862599349742800,12.126742919921876,6.2819108963012695,7.493999004364014,-0.7402455806732178
1663862599359599900,12.136599853515625,6.375279426574707,7.41474723815918,-0.7400818467140198
1663862599369487600,12.146487548828125,6.4692583084106445,7.3329339027404785,-0.7397114634513855
1663862599379375400,12.156375244140625,6.563894271850586,7.248452186584473,-0.7386587262153625
1663862599389232600,12.166232666015626,6.659570217132568,7.161157608032227,-0.733716607093811
1663862599399120100,12.1761201171875,6.7546467781066895,7.073146820068359,-0.7181336879730225
1663862599409007900,12.1860078125,6.839504241943359,6.993136882781982,-0.6982859969139099
1663862599418895600,12.1958955078125,6.905741214752197,6.929012775421143,-0.6855025887489319
1663862599428783400,12.205783447265626,6.950633525848389,6.884326934814453,-0.6820029616355896
1663862599438640600,12.215640625,6.976340293884277,6.85789680480957,-0.6857972145080566
1663862599448497700,12.22549755859375,6.984863758087158,6.848135471343994,-0.6964964270591736
1663862599458415900,12.235415771484375,6.978485107421875,6.853516578674316,-0.7074205875396729
1663862599468273200,12.245273193359376,6.961459636688232,6.870970726013184,-0.7058507204055786
1663862599478130200,12.255130126953125,6.932366847991943,6.901503562927246,-0.6942089200019836
1663862599488018000,12.265017822265625,6.889028072357178,6.946312427520752,-0.6785432696342468
1663862599497936100,12.27493603515625,6.833977699279785,7.002270698547363,-0.6598023772239685
1663862599507823900,12.284823974609376,6.773033142089844,7.0631208419799805,-0.639324426651001
1663862599517711600,12.294711669921876,6.717255592346191,7.11760950088501,-0.6232982873916626
1663862599527599400,12.304599365234376,6.673162937164307,7.15947151184082,-0.6174606084823608
1663862599537486800,12.31448681640625,6.643416404724121,7.186753273010254,-0.6212661862373352
1663862599547374600,12.32437451171875,6.630374908447266,7.197882175445557,-0.6316725015640259
1663862599557262300,12.334262451171876,6.631875514984131,7.195411205291748,-0.6439421772956848
1663862599567119600,12.34411962890625,6.644500255584717,7.183042049407959,-0.6518558859825134
1663862599577007000,12.354007080078125,6.665224552154541,7.16355037689209,-0.6547610759735107
1663862599586864400,12.363864501953126,6.691828727722168,7.138797283172607,-0.6537619829177856
1663862599596752100,12.373752197265626,6.723262786865234,7.109107494354248,-0.654762327671051
1663862599606639900,12.383639892578126,6.754863262176514,7.078928470611572,-0.6564931869506836
1663862599616527400,12.39352734375,6.785921096801758,7.049088478088379,-0.6572819948196411
1663862599626415000,12.4034150390625,6.814502239227295,7.021848201751709,-0.653141438961029
1663862599636302800,12.413302734375,6.836684703826904,7.000926494598389,-0.6458801031112671
1663862599646190600,12.423190673828126,6.849839687347412,6.989143371582031,-0.6339998245239258
1663862599656078300,12.433078369140626,6.8518805503845215,6.988987445831299,-0.6133266687393188
1663862599665966000,12.442966064453126,6.8401713371276855,7.002532482147217,-0.5890575647354126
1663862599675853600,12.452853515625,6.815152168273926,7.028530597686768,-0.5690789818763733
1663862599685710800,12.4627109375,6.780725479125977,7.062807559967041,-0.5557687282562256
1663862599695568100,12.472568115234376,6.740592002868652,7.101719856262207,-0.5480744242668152
1663862599705455600,12.48245556640625,6.696467399597168,7.1435017585754395,-0.5459801554679871
1663862599715343400,12.49234326171875,6.649599552154541,7.186912536621094,-0.5490884780883789
1663862599725200600,12.50220068359375,6.603730201721191,7.228713035583496,-0.5539302229881287
1663862599735088400,12.51208837890625,6.563822269439697,7.2649054527282715,-0.5547720193862915
1663862599744976000,12.521975830078125,6.5335917472839355,7.2927398681640625,-0.5463636517524719
1663862599754863600,12.531863525390625,6.516272068023682,7.309503078460693,-0.5289113521575928
1663862599764721000,12.541720947265626,6.513834476470947,7.3132805824279785,-0.5062382817268372
1663862599774608600,12.551608642578126,6.525272369384766,7.30449914932251,-0.48527663946151733
1663862599784526800,12.56152685546875,6.54608678817749,7.286470890045166,-0.47590455412864685
1663862599794384000,12.5713837890625,6.568769454956055,7.265572547912598,-0.4828166663646698
1663862599804271600,12.581271728515626,6.585028648376465,7.249425888061523,-0.5035943984985352
1663862599814159400,12.591159423828126,6.588142395019531,7.2444610595703125,-0.5334239602088928
1663862599824047000,12.601047119140626,6.575843811035156,7.253080368041992,-0.5670024752616882
1663862599833904000,12.610904052734375,6.550118446350098,7.273821830749512,-0.5982066988945007
1663862599843822300,12.620822265625,6.515120029449463,7.303266525268555,-0.6212018728256226
1663862599853679600,12.6306796875,6.47713041305542,7.336050987243652,-0.6320787072181702
1663862599863567400,12.6405673828125,6.440501689910889,7.36832332611084,-0.6309863328933716
1663862599873424400,12.65042431640625,6.4081902503967285,7.39725923538208,-0.6213203072547913
1663862599883342600,12.660342529296875,6.380964756011963,7.421884059906006,-0.6077224612236023
1663862599893230300,12.670230224609375,6.359591484069824,7.441372871398926,-0.5932648777961731
1663862599903118000,12.6801181640625,6.345083713531494,7.4547929763793945,-0.579963207244873
1663862599913005800,12.690005859375,6.338738918304443,7.461126327514648,-0.567776083946228
1663862599922862800,12.69986279296875,6.3403096199035645,7.460755825042725,-0.5549519062042236
1663862599932750600,12.70975048828125,6.3484978675842285,7.454835891723633,-0.540723443031311
1663862599942638300,12.719638427734376,6.363063335418701,7.443465709686279,-0.5259568691253662
1663862599952495600,12.72949560546875,6.3851799964904785,7.4252471923828125,-0.5153318047523499
1663862599962413800,12.739413818359376,6.414932727813721,7.399343967437744,-0.5183898210525513
1663862599972270800,12.749270751953125,6.4515156745910645,7.3657026290893555,-0.5429150462150574
1663862599982158600,12.75915869140625,6.493722438812256,7.324385166168213,-0.5961059927940369
1663862599992046300,12.76904638671875,6.541358947753906,7.275745868682861,-0.6667378544807434
1663862600001903400,12.7789033203125,6.594507217407227,7.221147537231445,-0.7334073781967163
