time,seconds_elapsed,z,y,x
1663862587471078400,0.248078369140625,-0.7672576904296875,0.2439117431640625,0.1710968017578125
1663862587480996600,0.25799658203125,-0.7960205078125,0.1895751953125,0.060302734375
1663862587490914800,0.267914794921875,-0.84820556640625,-0.0106964111328125,0.0059814453125
1663862587500772000,0.277772216796875,-0.9046783447265625,-0.210968017578125,0.049652099609375
1663862587510629400,0.28762939453125,-0.8918914794921875,-0.3387908935546875,0.15191650390625
1663862587520486400,0.297486328125,-0.736358642578125,-0.446380615234375,0.28826904296875
1663862587530404600,0.307404541015625,-0.5137176513671875,-0.44744873046875,0.4651031494140625
1663862587540262000,0.317261962890625,-0.2623138427734375,-0.33453369140625,0.620635986328125
1663862587550149600,0.327149658203125,0.0498046875,-0.265289306640625,0.6824188232421875
1663862587560037000,0.337037109375,0.356597900390625,-0.277008056640625,0.6493988037109375
1663862587569924900,0.3469248046875,0.5004119873046875,-0.286590576171875,0.587615966796875
1663862587579812600,0.3568125,0.3864288330078125,-0.3537139892578125,0.5141143798828125
1663862587589670000,0.366669921875,0.0849609375,-0.3675537109375,0.406524658203125
1663862587599588000,0.376588134765625,-0.1387481689453125,-0.2141571044921875,0.291473388671875
1663862587609475600,0.3864755859375,-0.0833587646484375,-0.0202789306640625,0.212646484375
1663862587619363300,0.39636328125,0.2298431396484375,0.1150054931640625,0.174285888671875
1663862587629251000,0.4062509765625,0.5121307373046875,-0.1481170654296875,0.1817474365234375
1663862587639138800,0.416138916015625,0.47271728515625,-0.631744384765625,0.2382049560546875
1663862587649026600,0.426026611328125,0.1563262939453125,-0.9651641845703125,0.301055908203125
1663862587658883600,0.435883544921875,-0.146209716796875,-0.91510009765625,0.3532562255859375
1663862587668771300,0.445771240234375,-0.199462890625,-0.4176177978515625,0.31170654296875
1663862587678659000,0.4556591796875,-0.031158447265625,0.0809173583984375,0.1380767822265625
1663862587688546800,0.465546875,0.1499481201171875,0.178924560546875,-0.0238494873046875
1663862587698434600,0.4754345703125,0.1627197265625,-0.2237396240234375,-0.0110626220703125
1663862587708322000,0.485322021484375,0.0657806396484375,-0.9545135498046875,0.1838836669921875
1663862587718179300,0.495179443359375,0.06365966796875,-1.7651824951171875,0.4651031494140625
1663862587728067000,0.505067138671875,0.121185302734375,-2.2541351318359375,0.6568603515625
1663862587737954800,0.514954833984375,0.0849609375,-2.32763671875,0.6834869384765625
1663862587747842300,0.52484228515625,0.0561981201171875,-2.272247314453125,0.5822906494140625
1663862587757730000,0.53472998046875,0.1158599853515625,-2.0070037841796875,0.44061279296875
1663862587767617800,0.54461767578125,0.2639312744140625,-1.677825927734375,0.2872161865234375
1663862587777475000,0.55447509765625,0.46099853515625,-1.8003387451171875,0.22222900390625
1663862587787368000,0.564367919921875,0.71240234375,-2.4512176513671875,0.1135711669921875
1663862587797225200,0.57422509765625,1.0724639892578125,-3.5164794921875,-0.025970458984375
1663862587807113000,0.584113037109375,1.409088134765625,-4.6872100830078125,-0.15380859375
1663862587817000700,0.594000732421875,1.6732635498046875,-5.97723388671875,-0.2400970458984375
1663862587826888200,0.60388818359375,1.7723388671875,-7.4696807861328125,-0.1463470458984375
1663862587836745500,0.613745361328125,1.5635528564453125,-8.700057983398438,0.0997314453125
1663862587846633200,0.62363330078125,1.0841827392578125,-9.232681274414062,0.4075927734375
1663862587856521000,0.63352099609375,0.619720458984375,-8.7384033203125,0.897613525390625
1663862587866408400,0.643408447265625,0.57391357421875,-6.765533447265625,1.670989990234375
1663862587876296200,0.653296142578125,1.3547515869140625,-4.121551513671875,2.752227783203125
1663862587886184000,0.663183837890625,2.8727569580078125,-2.1401519775390625,3.847320556640625
1663862587896071700,0.67307177734375,4.2938232421875,-0.6519775390625,4.4918060302734375
1663862587905959400,0.68295947265625,5.224853515625,0.096893310546875,4.65692138671875
1663862587915847200,0.69284716796875,5.6339263916015625,-0.392059326171875,4.3778228759765625
1663862587925734700,0.702734619140625,5.1673431396484375,-3.17132568359375,2.9993743896484375
1663862587935622400,0.712622314453125,4.3896942138671875,-5.933563232421875,1.2683258056640625
1663862587945479700,0.722479736328125,4.4706573486328125,-6.0326385498046875,0.9593963623046875
1663862587955367400,0.732367431640625,5.1321868896484375,-4.4230194091796875,1.4696502685546875
1663862587965255000,0.7422548828125,5.7106170654296875,-2.8251190185546875,1.4941558837890625
1663862587975142700,0.752142578125,6.0760040283203125,-2.2562713623046875,0.96258544921875
1663862587985030400,0.762030517578125,6.3316650390625,-2.2775726318359375,0.7303619384765625
1663862587994887700,0.7718876953125,6.3529815673828125,-2.1614532470703125,1.158599853515625
1663862588004775200,0.781775146484375,6.1132965087890625,-2.055999755859375,1.713592529296875
1663862588014663000,0.791662841796875,5.8256683349609375,-2.0261688232421875,1.99163818359375
1663862588024550700,0.801550537109375,5.63604736328125,-1.9271087646484375,2.0757904052734375
1663862588034438400,0.8114384765625,5.48797607421875,-1.757720947265625,2.20574951171875
1663862588044326100,0.821326171875,5.29730224609375,-1.6980743408203125,2.436920166015625
1663862588054183200,0.83118310546875,4.88397216796875,-1.79608154296875,2.7245330810546875
1663862588064071000,0.84107080078125,4.1734466552734375,-1.9590606689453125,2.95037841796875
1663862588073958700,0.850958740234375,3.3233642578125,-1.8876953125,3.0025634765625
1663862588083846400,0.860846435546875,2.4850006103515625,-1.34014892578125,2.961029052734375
1663862588093734000,0.87073388671875,1.6743316650390625,-0.448516845703125,2.7959136962890625
1663862588103591200,0.880591064453125,0.917999267578125,0.2897186279296875,2.547698974609375
1663862588113479000,0.89047900390625,0.231964111328125,0.5496368408203125,2.310150146484375
1663862588123366700,0.90036669921875,-0.4253082275390625,0.3302001953125,2.0981597900390625
1663862588133254100,0.910254150390625,-0.9632568359375,-0.072479248046875,1.7913665771484375
1663862588143142000,0.920141845703125,-1.248748779296875,-0.1257476806640625,1.2321014404296875
1663862588153029600,0.930029541015625,-1.3350372314453125,0.0340423583984375,0.5705718994140625
1663862588162887000,0.939886962890625,-1.354217529296875,0.1032867431640625,0.176422119140625
1663862588172774700,0.949774658203125,-1.237030029296875,-0.1768798828125,0.007049560546875
1663862588182662100,0.959662109375,-0.783233642578125,-0.7691650390625,-0.24542236328125
1663862588192519400,0.96951953125,-0.118499755859375,-1.3784942626953125,-0.64276123046875
1663862588202407200,0.9794072265625,0.25433349609375,-1.8482666015625,-0.68963623046875
1663862588212295000,0.989294921875,0.208526611328125,-1.976104736328125,-0.4211883544921875
1663862588222182400,0.999182373046875,0.041290283203125,-1.5254974365234375,-0.190032958984375
1663862588232070100,1.009070068359375,-0.1579132080078125,-0.937469482421875,-0.1942901611328125
1663862588241958000,1.0189580078125,-0.1515350341796875,-0.9119110107421875,-0.7429046630859375
1663862588251845600,1.028845703125,0.152069091796875,-0.7222900390625,-1.226531982421875
1663862588261733400,1.0387333984375,0.3416900634765625,-0.6477203369140625,-1.4129486083984375
1663862588271620900,1.048620849609375,0.2937469482421875,-0.4304046630859375,-0.349822998046875
1663862588281478100,1.05847802734375,-0.293212890625,-0.754241943359375,1.294952392578125
1663862588291366000,1.068365966796875,-0.9014739990234375,-1.6511993408203125,2.036376953125
1663862588301253600,1.078253662109375,-1.0133209228515625,-1.7428131103515625,1.8488922119140625
1663862588311141000,1.08814111328125,-0.8545989990234375,-1.11962890625,1.1149139404296875
1663862588321028900,1.09802880859375,-0.814117431640625,-0.6221466064453125,0.47149658203125
1663862588330886100,1.10788623046875,-0.8439483642578125,-0.587005615234375,0.2637786865234375
1663862588340743200,1.1177431640625,-0.5371551513671875,-0.8661041259765625,0.1508636474609375
1663862588350631000,1.127630859375,0.3203887939453125,-1.1388092041015625,0.0113067626953125
1663862588360518700,1.1375185546875,1.7297210693359375,-1.1739654541015625,0.07415771484375
1663862588370376000,1.1473759765625,2.683135986328125,-2.4256439208984375,0.6163787841796875
1663862588380263400,1.157263427734375,3.439483642578125,-3.357757568359375,0.9476776123046875
1663862588390151200,1.167151123046875,4.2629241943359375,-3.1212615966796875,0.6142425537109375
1663862588400039000,1.177038818359375,4.87225341796875,-2.274383544921875,0.118896484375
1663862588409926700,1.1869267578125,5.0490875244140625,-1.073822021484375,-0.3072052001953125
1663862588419783700,1.19678369140625,4.896759033203125,-0.721221923828125,-0.61187744140625
1663862588429671400,1.20667138671875,4.473846435546875,-1.427490234375,-0.542633056640625
1663862588439589600,1.216589599609375,3.8890228271484375,-2.6631927490234375,-0.373260498046875
1663862588449477400,1.226477294921875,3.951873779296875,-3.6698760986328125,0.3543243408203125
1663862588459365000,1.236365234375,4.393951416015625,-2.352142333984375,1.05206298828125
1663862588469222400,1.246222412109375,4.4237823486328125,0.6199493408203125,0.989227294921875
1663862588479079400,1.256079345703125,3.9976806640625,1.4380645751953125,1.088287353515625
1663862588488967200,1.26596728515625,2.6724853515625,-0.8639678955078125,0.99774169921875
1663862588498855000,1.27585498046875,1.247161865234375,-2.1412200927734375,0.162567138671875
1663862588508742700,1.28574267578125,1.3004302978515625,-0.4091033935546875,-0.4233245849609375
1663862588518630100,1.295630126953125,1.90655517578125,0.337646484375,0.1231536865234375
1663862588528518000,1.305517822265625,2.238922119140625,0.384521484375,0.3862762451171875
1663862588538405600,1.315405517578125,1.41015625,-0.2461090087890625,-0.03875732421875
1663862588548293400,1.32529345703125,0.310791015625,-1.026947021484375,0.16790771484375
1663862588558181000,1.33518115234375,-0.0130462646484375,-2.2221832275390625,0.8656463623046875
1663862588568068600,1.345068603515625,0.0380859375,-2.8805084228515625,1.1085357666015625
1663862588577956400,1.354956298828125,0.0551300048828125,-2.6994171142578125,0.9924163818359375
1663862588587844000,1.364843994140625,0.053009033203125,-1.8802337646484375,0.7069244384765625
1663862588597701400,1.374701416015625,-0.09613037109375,-0.7222900390625,0.1710968017578125
1663862588607558400,1.384558349609375,-0.30279541015625,0.3770599365234375,-0.4233245849609375
1663862588617446100,1.394446044921875,-0.60107421875,0.93206787109375,-0.8867034912109375
1663862588627334000,1.404333984375,-0.5850982666015625,0.773345947265625,-0.9943084716796875
1663862588637221600,1.4142216796875,-0.290008544921875,0.5507049560546875,-0.7290496826171875
1663862588647109000,1.424109130859375,-0.0354156494140625,0.326995849609375,-0.3093414306640625
1663862588656996900,1.433996826171875,0.11798095703125,-0.5326690673828125,0.1966705322265625
1663862588666884600,1.443884521484375,0.5323638916015625,-1.3571929931640625,0.6856231689453125
1663862588676742000,1.453741943359375,1.1992340087890625,-1.350799560546875,0.9338226318359375
1663862588686629600,1.463629638671875,1.6317291259765625,-1.562774658203125,0.9998779296875
1663862588696517000,1.47351708984375,2.02374267578125,-1.91644287109375,1.0808258056640625
1663862588706404900,1.48340478515625,2.286865234375,-2.57904052734375,0.9242401123046875
1663862588716292600,1.493292724609375,2.523345947265625,-3.2714691162109375,0.7772369384765625
1663862588726180400,1.503180419921875,2.8269500732421875,-3.90423583984375,0.31597900390625
1663862588736068000,1.513068115234375,2.68206787109375,-4.7713623046875,-0.493621826171875
1663862588745955600,1.52295556640625,2.2570343017578125,-3.8360595703125,-0.4701995849609375
1663862588755843300,1.53284326171875,1.9598236083984375,-2.1859588623046875,0.1050567626953125
1663862588765731000,1.54273095703125,1.818145751953125,-1.6181793212890625,0.4235687255859375
1663862588775618800,1.552618896484375,2.0152130126953125,-1.69061279296875,0.61212158203125
1663862588785475800,1.562475830078125,2.7236175537109375,-1.9111175537109375,1.033966064453125
1663862588795363600,1.572363525390625,3.7867584228515625,-2.1199188232421875,1.454742431640625
1663862588805251300,1.582251220703125,4.2522735595703125,-2.1753082275390625,1.680572509765625
1663862588815139000,1.59213916015625,4.041351318359375,-2.204071044921875,1.5452880859375
1663862588825026800,1.60202685546875,3.8293609619140625,-2.112457275390625,1.397216796875
1663862588834914300,1.611914306640625,3.8890228271484375,-1.8663787841796875,1.4046783447265625
1663862588844771600,1.621771484375,3.679168701171875,-1.7907562255859375,1.47711181640625
1663862588854659300,1.631659423828125,3.251983642578125,-1.7769012451171875,1.7892303466796875
1663862588864547000,1.641547119140625,2.720428466796875,-1.712982177734375,1.9266510009765625
1663862588874434600,1.6514345703125,2.3252105712890625,-1.534027099609375,1.990570068359375
1663862588884322300,1.661322265625,2.112152099609375,-1.6490631103515625,2.140777587890625
1663862588894179600,1.6711796875,2.298583984375,-1.4903411865234375,2.3144073486328125
1663862588904067300,1.6810673828125,2.271942138671875,-0.84906005859375,2.3122711181640625
1663862588913955000,1.690955078125,1.635986328125,-0.119354248046875,2.1141357421875
1663862588923842600,1.700842529296875,0.984039306640625,0.3685455322265625,1.658203125
1663862588933730300,1.710730224609375,0.5675201416015625,0.3429718017578125,1.12237548828125
1663862588943618000,1.7206181640625,0.302276611328125,-0.060760498046875,0.5087890625
1663862588953475300,1.730475341796875,0.1797637939453125,-0.241851806640625,-0.14422607421875
1663862588963362800,1.74036279296875,0.093475341796875,-0.2141571044921875,-0.5703277587890625
1663862588973220000,1.75022021484375,0.0082550048828125,-0.1246795654296875,-0.860076904296875
1663862588983077400,1.760077392578125,-0.052459716796875,-0.0447845458984375,-1.13385009765625
1663862588992995600,1.76999560546875,-0.1014556884765625,-0.0746002197265625,-1.38311767578125
1663862589002883000,1.779883056640625,-0.1387481689453125,-0.1672821044921875,-1.602569580078125
1663862589012770800,1.789770751953125,-0.1611175537109375,-0.2386627197265625,-1.7943115234375
1663862589022658600,1.799658447265625,-0.1355438232421875,-0.354766845703125,-2.0084381103515625
1663862589032546300,1.80954638671875,-0.0833587646484375,-0.5102996826171875,-2.2491912841796875
1663862589042434000,1.81943408203125,-0.1472625732421875,-0.559295654296875,-2.4995269775390625
1663862589052321500,1.829321533203125,-0.4412841796875,-0.5997772216796875,-2.5517120361328125
1663862589062178800,1.8391787109375,-0.438079833984375,-0.6711578369140625,-2.380218505859375
1663862589072066600,1.849066650390625,-0.1099853515625,-0.6114959716796875,-2.285400390625
1663862589081954300,1.858954345703125,0.1936187744140625,-0.3632965087890625,-2.3162994384765625
1663862589091841800,1.868841796875,0.4546051025390625,-0.164093017578125,-2.3748779296875
1663862589101729500,1.8787294921875,0.654876708984375,-0.0682220458984375,-2.4771575927734375
1663862589111586800,1.8885869140625,0.7731170654296875,0.0116729736328125,-2.6220245361328125
1663862589121474600,1.898474609375,0.8785858154296875,-0.278076171875,-2.7040557861328125
1663862589131331600,1.90833154296875,0.97552490234375,-0.5763397216796875,-2.730682373046875
1663862589141219300,1.91821923828125,1.0628662109375,-0.5316009521484375,-2.754119873046875
1663862589151107000,1.928107177734375,1.055419921875,-0.3377227783203125,-2.7615814208984375
1663862589160994800,1.937994873046875,0.9563446044921875,-0.2951202392578125,-2.7850189208984375
1663862589170882600,1.947882568359375,0.892425537109375,-0.4431915283203125,-2.8308258056640625
1663862589180770000,1.95777001953125,0.8338470458984375,-0.6370697021484375,-2.8297576904296875
1663862589190657800,1.96765771484375,0.8327789306640625,-1.066375732421875,-2.834014892578125
1663862589200515000,1.97751513671875,0.94036865234375,-1.6373443603515625,-2.90325927734375
1663862589210402800,1.98740283203125,1.096954345703125,-2.0709075927734375,-2.960784912109375
1663862589220290300,1.997290283203125,1.204559326171875,-2.09222412109375,-2.93841552734375
1663862589230178000,2.007177978515625,1.2503662109375,-1.7630462646484375,-2.880889892578125
1663862589240035300,2.017035400390625,1.1938934326171875,-1.26983642578125,-2.8191070556640625
1663862589249923000,2.026923095703125,1.1480865478515625,-0.86077880859375,-2.6550445556640625
1663862589259810600,2.036810546875,1.13531494140625,-0.7073822021484375,-2.196990966796875
1663862589269698300,2.0466982421875,1.1502227783203125,-0.7808837890625,-1.83905029296875
1663862589279555600,2.0565556640625,1.223724365234375,-0.8661041259765625,-1.828399658203125
1663862589289443300,2.066443359375,1.2674102783203125,-0.7499847412109375,-1.8347930908203125
1663862589299300400,2.07630029296875,1.280181884765625,-0.4975128173828125,-1.7346649169921875
1663862589309218600,2.086218505859375,1.28125,-0.323883056640625,-1.581268310546875
1663862589319075800,2.096075927734375,1.249298095703125,-0.2695465087890625,-1.409759521484375
1663862589328994000,2.105994140625,1.1917724609375,-0.2503814697265625,-1.23931884765625
1663862589338881800,2.1158818359375,1.1267852783203125,-0.2855224609375,-1.0603485107421875
1663862589348769300,2.125769287109375,1.0490264892578125,-0.3323974609375,-0.86328125
1663862589358626600,2.13562646484375,0.976593017578125,-0.3909912109375,-0.6960296630859375
1663862589368514300,2.145514404296875,0.9190673828125,-0.469818115234375,-0.5394287109375
1663862589378402000,2.155402099609375,0.8423614501953125,-0.537994384765625,-0.3487548828125
1663862589388259000,2.165259033203125,0.7315826416015625,-0.528411865234375,-0.1569976806640625
1663862589398177300,2.17517724609375,0.565399169921875,-0.446380615234375,0.0113067626953125
1663862589408065000,2.18506494140625,0.3629913330078125,-0.2929840087890625,0.142333984375
1663862589417922300,2.19492236328125,0.1382293701171875,-0.107635498046875,0.2605743408203125
1663862589427779300,2.204779296875,-0.073760986328125,0.1032867431640625,0.3756256103515625
1663862589437667000,2.2146669921875,-0.266571044921875,0.37493896484375,0.441680908203125
1663862589447554800,2.224554931640625,-0.430633544921875,0.603973388671875,0.517303466796875
1663862589457442600,2.234442626953125,-0.61279296875,0.7882537841796875,0.63555908203125
1663862589467330300,2.244330322265625,-0.830108642578125,0.89691162109375,0.7655181884765625
1663862589477217800,2.2542177734375,-1.0591278076171875,0.864959716796875,0.8784332275390625
1663862589487105500,2.26410546875,-1.274322509765625,0.703033447265625,1.0137176513671875
1663862589496993300,2.2739931640625,-1.4586029052734375,0.5016937255859375,1.21612548828125
1663862589506850600,2.2838505859375,-1.5960235595703125,0.48785400390625,1.4270477294921875
1663862589516738000,2.293738037109375,-1.65887451171875,0.7573699951171875,1.4920196533203125
1663862589526595300,2.30359521484375,-1.5992279052734375,1.0748138427734375,1.291748046875
1663862589536513500,2.313513427734375,-1.466064453125,1.034332275390625,1.0850982666015625
1663862589546401300,2.3234013671875,-1.3712615966796875,0.3003692626953125,0.895477294921875
1663862589556289000,2.3332890625,-1.361663818359375,-0.2237396240234375,0.5375518798828125
1663862589566176500,2.343176513671875,-1.340362548828125,0.964019775390625,0.91998291015625
1663862589576064300,2.353064208984375,-1.31585693359375,2.185882568359375,1.6528778076171875
1663862589585952000,2.362951904296875,-1.533172607421875,1.7640380859375,1.611328125
1663862589595839700,2.37283984375,-1.8484954833984375,1.059906005859375,1.39508056640625
1663862589605727500,2.3827275390625,-1.923065185546875,0.796783447265625,1.5420989990234375
1663862589615615200,2.392615234375,-1.8836517333984375,0.69024658203125,1.797760009765625
1663862589625472300,2.40247216796875,-1.9070892333984375,0.4154205322265625,1.9511566162109375
1663862589635360000,2.412360107421875,-1.8399658203125,0.0617523193359375,2.014007568359375
1663862589645247700,2.422247802734375,-1.6194610595703125,-0.1694183349609375,2.0789794921875
1663862589655135500,2.432135498046875,-1.35101318359375,-0.218414306640625,2.197235107421875
1663862589664992500,2.441992431640625,-1.0921630859375,-0.1012420654296875,2.3239898681640625
1663862589674880300,2.45188037109375,-0.8535308837890625,0.0926361083984375,2.3399810791015625
1663862589684737500,2.461737548828125,-0.6500701904296875,0.317413330078125,2.2366485595703125
1663862589694594600,2.471594482421875,-0.498809814453125,0.5965118408203125,2.11627197265625
1663862589704512800,2.4815126953125,-0.4008026123046875,0.8798675537109375,2.037445068359375
1663862589714400500,2.491400390625,-0.32623291015625,1.137664794921875,2.025726318359375
1663862589724288300,2.501288330078125,-0.2846832275390625,1.377349853515625,2.0640716552734375
1663862589734176000,2.511176025390625,-0.29107666015625,1.5669708251953125,2.1077423095703125
1663862589744063500,2.5210634765625,-0.3454132080078125,1.6692352294921875,2.1205291748046875
1663862589753951200,2.530951171875,-0.4210357666015625,1.774688720703125,2.0896453857421875
1663862589763839000,2.5408388671875,-0.43914794921875,2.059112548828125,2.01507568359375
1663862589773696300,2.5506962890625,-0.39227294921875,2.3722991943359375,1.9351806640625
1663862589783583700,2.560583740234375,-0.2718963623046875,2.5012054443359375,1.87445068359375
1663862589793441000,2.57044091796875,-0.0673675537109375,2.4074554443359375,1.8041534423828125
1663862589803328800,2.580328857421875,0.185089111328125,2.150726318359375,1.7018890380859375
1663862589813185800,2.590185791015625,0.4311676025390625,1.755523681640625,1.581512451171875
1663862589823104000,2.60010400390625,0.588836669921875,1.3624267578125,1.4568634033203125
1663862589832991700,2.60999169921875,0.6282501220703125,1.0726776123046875,1.3332977294921875
1663862589842879500,2.61987939453125,0.5781707763671875,0.8340606689453125,1.2299652099609375
1663862589852767200,2.629767333984375,0.4791107177734375,0.599700927734375,1.16925048828125
1663862589862655000,2.639655029296875,0.357666015625,0.4622802734375,1.1522064208984375
1663862589872542700,2.649542724609375,0.2266387939453125,0.5272674560546875,1.1862945556640625
1663862589882430200,2.65943017578125,0.0764312744140625,0.6838531494140625,1.273651123046875
1663862589892318000,2.66931787109375,-0.0929412841796875,0.7690887451171875,1.3780364990234375
1663862589902175200,2.67917529296875,-0.2495269775390625,0.8340606689453125,1.4600677490234375
1663862589912063000,2.68906298828125,-0.3667144775390625,0.8777313232421875,1.5048065185546875
1663862589921950500,2.698950439453125,-0.4476776123046875,0.911834716796875,1.5037384033203125
1663862589931838200,2.708838134765625,-0.4924163818359375,0.9384613037109375,1.43023681640625
1663862589941726000,2.718725830078125,-0.5052032470703125,0.88519287109375,1.303466796875
1663862589951613700,2.72861376953125,-0.482818603515625,0.7392578125,1.1617889404296875
1663862589961470700,2.738470703125,-0.42742919921875,0.55816650390625,1.0499420166015625
1663862589971358500,2.7483583984375,-0.3517913818359375,0.3887786865234375,0.987091064453125
1663862589981246200,2.75824609375,-0.2751007080078125,0.17999267578125,0.9785614013671875
1663862589991134000,2.768134033203125,-0.1685791015625,0.032989501953125,0.9828338623046875
1663862590001021700,2.778021728515625,-0.066314697265625,0.032989501953125,0.984954833984375
1663862590010909200,2.7879091796875,-0.0119781494140625,0.157623291015625,0.996673583984375
1663862590020766500,2.797766357421875,0.003997802734375,0.35894775390625,1.03076171875
1663862590030654200,2.807654296875,-0.0045166015625,0.524078369140625,1.08935546875
1663862590040542000,2.8175419921875,-0.0205078125,0.6188812255859375,1.1191864013671875
1663862590050429400,2.827429443359375,-0.0215606689453125,0.7541656494140625,1.0595245361328125
1663862590060317200,2.837317138671875,0.027435302734375,0.9150238037109375,0.9263763427734375
1663862590070174500,2.847174560546875,0.1254425048828125,0.9736175537109375,0.77191162109375
1663862590080062200,2.857062255859375,0.2479400634765625,0.9043731689453125,0.5950775146484375
1663862590089949700,2.86694970703125,0.345947265625,0.761627197265625,0.3553924560546875
1663862590099807000,2.876806884765625,0.3874969482421875,0.5507049560546875,0.049652099609375
1663862590109694700,2.88669482421875,0.39495849609375,0.223663330078125,-0.2635345458984375
1663862590119552000,2.896552001953125,0.3960113525390625,-0.105499267578125,-0.55328369140625
1663862590129470200,2.90647021484375,0.4439544677734375,-0.3153533935546875,-0.8472900390625
1663862590139357700,2.916357666015625,0.549407958984375,-0.4144287109375,-1.181793212890625
1663862590149245400,2.926245361328125,0.66766357421875,-0.54864501953125,-1.57806396484375
1663862590159102700,2.936102783203125,0.7859039306640625,-0.83306884765625,-2.0712890625
1663862590168959700,2.945959716796875,0.906280517578125,-1.198455810546875,-2.7125701904296875
1663862590178847500,2.955847412109375,1.0032196044921875,-1.6458740234375,-3.4998016357421875
1663862590188735200,2.9657353515625,1.089508056640625,-2.1891632080078125,-4.3328399658203125
1663862590198623000,2.975623046875,1.155548095703125,-2.7324371337890625,-4.9826507568359375
1663862590208510700,2.9855107421875,1.1448974609375,-3.09356689453125,-5.2564239501953125
1663862590218398200,2.995398193359375,1.052215576171875,-2.9508209228515625,-5.1637420654296875
1663862590228286000,3.005285888671875,0.7624664306640625,-2.1667938232421875,-4.763214111328125
1663862590238173700,3.015173583984375,0.1573944091796875,-0.8969879150390625,-4.0952911376953125
1663862590248061400,3.0250615234375,-0.5499420166015625,0.4356536865234375,-3.336822509765625
1663862590257949200,3.03494921875,-0.98883056640625,1.1749420166015625,-2.822296142578125
1663862590267806200,3.04480615234375,-1.046356201171875,0.70196533203125,-2.603912353515625
1663862590277694000,3.05469384765625,-0.929168701171875,-0.7286834716796875,-2.58367919921875
1663862590287551200,3.06455126953125,-0.7054595947265625,-2.148681640625,-2.7168426513671875
1663862590297438700,3.074438720703125,-0.4295654296875,-3.106353759765625,-2.9746246337890625
1663862590307326500,3.084326416015625,-0.1270294189453125,-3.597442626953125,-3.2984771728515625
1663862590317214200,3.094214111328125,0.212799072265625,-3.7966461181640625,-3.6255035400390625
1663862590327102000,3.10410205078125,0.549407958984375,-3.61553955078125,-3.973846435546875
1663862590336959000,3.113958984375,0.847686767578125,-2.958282470703125,-4.33709716796875
1663862590346846700,3.1238466796875,1.021331787109375,-2.089019775390625,-4.6300506591796875
1663862590356734500,3.133734375,1.1417083740234375,-1.1856842041015625,-4.6630706787109375
1663862590366622200,3.143622314453125,1.24822998046875,-0.6583709716796875,-4.3221893310546875
1663862590376479500,3.1534794921875,1.3313140869140625,-0.6828765869140625,-3.65533447265625
1663862590386367000,3.163366943359375,1.3568878173828125,-0.982208251953125,-2.995941162109375
1663862590396254700,3.173254638671875,1.3888397216796875,-1.165435791015625,-2.6944580078125
1663862590406142500,3.183142578125,1.4591522216796875,-1.0557098388671875,-2.7061767578125
1663862590416030200,3.1930302734375,1.453826904296875,-0.8181610107421875,-2.730682373046875
1663862590425887200,3.20288720703125,1.3568878173828125,-0.8298797607421875,-2.5783538818359375
1663862590435775000,3.21277490234375,1.204559326171875,-1.0887451171875,-2.251312255859375
1663862590445662700,3.222662841796875,1.0160064697265625,-1.294342041015625,-1.877410888671875
1663862590455550500,3.232550537109375,0.8093414306640625,-1.3752899169921875,-1.536529541015625
1663862590465438200,3.242438232421875,0.62078857421875,-1.418975830078125,-1.2307891845703125
1663862590475295200,3.252295166015625,0.4077301025390625,-1.4658355712890625,-0.909088134765625
1663862590485183000,3.262182861328125,0.1510009765625,-1.4445343017578125,-0.5223846435546875
1663862590495070700,3.27207080078125,-0.1451416015625,-1.3731689453125,-0.0696563720703125
1663862590504958500,3.28195849609375,-0.4764404296875,-1.266632080078125,0.3426055908203125
1663862590514846000,3.291845947265625,-0.814117431640625,-1.017364501953125,0.61212158203125
1663862590524733700,3.301733642578125,-1.1422271728515625,-0.678619384765625,0.758056640625
1663862590534621400,3.311621337890625,-1.457550048828125,-0.401641845703125,0.839019775390625
1663862590544509200,3.32150927734375,-1.7334442138671875,-0.253570556640625,0.90826416015625
1663862590554397000,3.33139697265625,-1.9411773681640625,-0.19818115234375,1.008392333984375
1663862590564254000,3.34125390625,-2.0977630615234375,-0.2003021240234375,1.2374267578125
1663862590574141700,3.3511416015625,-2.23199462890625,-0.105499267578125,1.614532470703125
1663862590584029400,3.361029541015625,-2.3853912353515625,0.3110198974609375,1.9586029052734375
1663862590593886500,3.370886474609375,-2.515350341796875,0.965087890625,2.1088104248046875
1663862590603774200,3.380774169921875,-2.458892822265625,1.5147705078125,1.85528564453125
1663862590613692400,3.3906923828125,-2.0668792724609375,1.5264892578125,1.1309051513671875
1663862590623549700,3.4005498046875,-1.613067626953125,0.08624267578125,0.542877197265625
1663862590633468000,3.410468017578125,-1.32012939453125,-0.2738189697265625,1.135162353515625
1663862590643355600,3.420355712890625,-0.98883056640625,1.923828125,2.0981597900390625
1663862590653243400,3.430243408203125,-0.646881103515625,2.185882568359375,1.8925628662109375
1663862590663131000,3.440130859375,-0.9131927490234375,0.8947906494140625,1.30560302734375
1663862590672988200,3.44998828125,-1.6215972900390625,0.667877197265625,1.525054931640625
1663862590682876000,3.4598759765625,-1.82080078125,0.9938507080078125,2.150360107421875
1663862590692763600,3.469763671875,-1.7121429443359375,0.7786712646484375,2.31121826171875
1663862590702651100,3.479651123046875,-1.6301116943359375,0.3067626953125,2.09283447265625
1663862590712539000,3.489538818359375,-1.443695068359375,-0.152374267578125,1.9351806640625
1663862590722426600,3.499426513671875,-1.1166534423828125,-0.392059326171875,2.001220703125
1663862590732284000,3.509283935546875,-0.7874908447265625,-0.2386627197265625,2.1801910400390625
1663862590742171400,3.51917138671875,-0.49774169921875,0.1054229736328125,2.3836517333984375
1663862590752059100,3.52905908203125,-0.2069244384765625,0.5091552734375,2.569000244140625
1663862590761947000,3.53894677734375,0.0796356201171875,0.8756103515625,2.7042999267578125
1663862590771834600,3.548834716796875,0.26605224609375,1.022613525390625,2.763946533203125
1663862590781722400,3.558722412109375,0.269256591796875,0.929931640625,2.7415771484375
1663862590791609900,3.56860986328125,0.06365966796875,0.64764404296875,2.63824462890625
1663862590801467100,3.578467041015625,-0.282562255859375,0.23431396484375,2.40283203125
1663862590811355000,3.58835498046875,-0.613861083984375,-0.103363037109375,2.083251953125
1663862590821242600,3.59824267578125,-0.8215789794921875,-0.2972412109375,1.8382415771484375
1663862590831130400,3.60813037109375,-0.8695220947265625,-0.380340576171875,1.7476806640625
1663862590841017900,3.618017822265625,-0.768310546875,-0.185394287109375,1.7913665771484375
1663862590850905600,3.627905517578125,-0.5808258056640625,0.190643310546875,1.885101318359375
1663862590860793300,3.63779345703125,-0.38055419921875,0.475067138671875,1.9628753662109375
1663862590870650600,3.647650634765625,-0.165374755859375,0.5368499755859375,1.9820404052734375
1663862590880538000,3.6575380859375,0.07110595703125,0.484649658203125,1.9383697509765625
1663862590890425900,3.66742578125,0.2607269287109375,0.3994293212890625,1.86273193359375
1663862590900313600,3.677313720703125,0.335296630859375,0.3014373779296875,1.798828125
1663862590910201300,3.687201416015625,0.290557861328125,0.2524261474609375,1.7828369140625
1663862590920058400,3.697058349609375,0.1861572265625,0.2279205322265625,1.7924346923828125
1663862590929946000,3.706946044921875,0.060455322265625,0.14483642578125,1.787109375
1663862590939833900,3.716833740234375,-0.0482025146484375,-0.046905517578125,1.7231903076171875
1663862590949721600,3.7267216796875,-0.130218505859375,-0.312164306640625,1.6102752685546875
1663862590959609300,3.736609375,-0.20159912109375,-0.528411865234375,1.5186614990234375
1663862590969496800,3.746496826171875,-0.26763916015625,-0.617889404296875,1.4813690185546875
1663862590979354000,3.75635400390625,-0.3336944580078125,-0.584869384765625,1.467529296875
1663862590989241900,3.766241943359375,-0.3944091796875,-0.4517059326171875,1.452606201171875
1663862590999099000,3.776098876953125,-0.4455413818359375,-0.2003021240234375,1.4270477294921875
1663862591008986600,3.785986572265625,-0.49560546875,0.096893310546875,1.384429931640625
1663862591018874400,3.795874267578125,-0.5243682861328125,0.291839599609375,1.34075927734375
1663862591028762000,3.80576220703125,-0.5115814208984375,0.3110198974609375,1.3109283447265625
1663862591038619100,3.815619140625,-0.4444732666015625,0.1714630126953125,1.2789764404296875
1663862591048507000,3.8255068359375,-0.34967041015625,-0.060760498046875,1.226776123046875
1663862591058364200,3.8353642578125,-0.25592041015625,-0.3164215087890625,1.1607208251953125
1663862591068282400,3.845282470703125,-0.1632537841796875,-0.5784759521484375,1.1266326904296875
1663862591078170000,3.855170166015625,-0.1025238037109375,-0.75531005859375,1.1085357666015625
1663862591088057900,3.865057861328125,-0.0705718994140625,-0.7510528564453125,1.0957489013671875
1663862591097915000,3.874914794921875,-0.07269287109375,-0.5891265869140625,1.06805419921875
1663862591107802600,3.884802734375,-0.111053466796875,-0.370758056640625,1.0126495361328125
1663862591117660000,3.894659912109375,-0.144073486328125,-0.185394287109375,0.9263763427734375
1663862591127578000,3.904578125,-0.1579132080078125,-0.0106964111328125,0.803863525390625
1663862591137465600,3.914465576171875,-0.152587890625,0.1895751953125,0.669647216796875
1663862591147353300,3.924353271484375,-0.0908050537109375,0.373870849609375,0.5471343994140625
1663862591157241000,3.934240966796875,0.0561981201171875,0.4718780517578125,0.4086456298828125
1663862591167128800,3.94412890625,0.2064056396484375,0.432464599609375,0.2073211669921875
1663862591177016600,3.9540166015625,0.288421630859375,0.143768310546875,-0.0696563720703125
1663862591186873600,3.96387353515625,0.356597900390625,-0.3558349609375,-0.382843017578125
1663862591196761300,3.97376123046875,0.4205169677734375,-0.835205078125,-0.6928253173828125
1663862591206649000,3.983649169921875,0.459930419921875,-1.191009521484375,-0.977264404296875
1663862591216536800,3.993536865234375,0.497222900390625,-1.3444061279296875,-1.24676513671875
1663862591226424300,4.00342431640625,0.5760498046875,-1.2645111083984375,-1.56634521484375
1663862591236312000,4.01331201171875,0.6836395263671875,-1.1633148193359375,-1.96795654296875
1663862591246199800,4.02319970703125,0.82318115234375,-1.2613067626953125,-2.41217041015625
1663862591256087600,4.033087646484375,0.9776458740234375,-1.47650146484375,-2.8968658447265625
1663862591265944600,4.042944580078125,1.089508056640625,-1.6575927734375,-3.4454803466796875
1663862591275801900,4.0528017578125,1.1385040283203125,-1.8813018798828125,-3.973846435546875
1663862591285689600,4.062689697265625,1.1299896240234375,-2.24774169921875,-4.37225341796875
1663862591295577300,4.072577392578125,1.04156494140625,-2.577972412109375,-4.601287841796875
1663862591305464800,4.08246484375,0.873260498046875,-2.5960845947265625,-4.6161956787109375
1663862591315352600,4.0923525390625,0.54302978515625,-2.2339019775390625,-4.3509521484375
1663862591325240300,4.102240234375,-0.050323486328125,-1.6075286865234375,-3.8076629638671875
1663862591335128000,4.112128173828125,-0.8237152099609375,-1.0802154541015625,-3.1429443359375
1663862591345015800,4.122015869140625,-1.4809722900390625,-0.86077880859375,-2.5858154296875
1663862591354903600,4.131903564453125,-1.7888336181640625,-0.9001922607421875,-2.3237457275390625
1663862591364791000,4.141791015625,-1.78564453125,-1.221893310546875,-2.4398651123046875
1663862591374617900,4.151617919921875,-1.6631317138671875,-1.816314697265625,-2.78607177734375
1663862591384505600,4.161505615234375,-1.4255828857421875,-2.441619873046875,-3.174896240234375
1663862591394362600,4.171362548828125,-1.0026702880859375,-2.923126220703125,-3.56158447265625
1663862591404280800,4.18128076171875,-0.50946044921875,-3.3630828857421875,-3.9355010986328125
1663862591414168600,4.19116845703125,-0.2420806884765625,-3.8009033203125,-4.0803680419921875
1663862591424056300,4.201056396484375,-0.268707275390625,-4.07574462890625,-3.915252685546875
1663862591433944000,4.210944091796875,-0.4348907470703125,-4.0544281005859375,-3.6702423095703125
1663862591443831600,4.22083154296875,-0.58721923828125,-3.7423095703125,-3.5221710205078125
1663862591453719300,4.23071923828125,-0.5829620361328125,-3.153228759765625,-3.5338897705078125
1663862591463576600,4.24057666015625,-0.4231719970703125,-2.3681182861328125,-3.675567626953125
1663862591473464300,4.25046435546875,-0.2165069580078125,-1.5958099365234375,-3.7288360595703125
1663862591483321300,4.2603212890625,-0.0226287841796875,-1.066375732421875,-3.49554443359375
1663862591493209000,4.270208984375,0.1360931396484375,-0.905517578125,-3.0119171142578125
1663862591503096800,4.280096923828125,0.2490081787109375,-0.95025634765625,-2.5389404296875
1663862591512984600,4.289984619140625,0.288421630859375,-1.0599822998046875,-2.27581787109375
1663862591522872000,4.2998720703125,0.269256591796875,-1.177154541015625,-2.1373291015625
1663862591532759800,4.309759765625,0.2383575439453125,-1.282623291015625,-1.99884033203125
1663862591542647600,4.3196474609375,0.2181243896484375,-1.4029998779296875,-1.797515869140625
1663862591552535300,4.329535400390625,0.1669921875,-1.5265655517578125,-1.5503692626953125
1663862591562423000,4.339423095703125,0.0774993896484375,-1.6842193603515625,-1.31707763671875
1663862591572310800,4.349310791015625,-0.0449981689453125,-1.8429412841796875,-1.0837860107421875
1663862591582198300,4.3591982421875,-0.2197113037109375,-2.0027313232421875,-0.8195953369140625
1663862591592086000,4.3690859375,-0.4295654296875,-2.078369140625,-0.5681915283203125
1663862591601943300,4.378943359375,-0.668182373046875,-1.93243408203125,-0.3753814697265625
1663862591611831000,4.3888310546875,-0.9110565185546875,-1.574493408203125,-0.2060089111328125
1663862591621718500,4.398718505859375,-1.0847015380859375,-1.1483917236328125,-0.049407958984375
1663862591631606300,4.408606201171875,-1.1976165771484375,-0.8288116455078125,0.09759521484375
1663862591641494000,4.418493896484375,-1.283905029296875,-0.64453125,0.232879638671875
1663862591651351300,4.428351318359375,-1.36273193359375,-0.5135040283203125,0.345794677734375
1663862591661238800,4.43823876953125,-1.453277587890625,-0.380340576171875,0.4778900146484375
1663862591671126500,4.44812646484375,-1.559814453125,-0.2354583740234375,0.6334228515625
1663862591681014300,4.45801416015625,-1.6663360595703125,-0.062896728515625,0.8081207275390625
1663862591690902000,4.467902099609375,-1.73876953125,0.1267242431640625,0.9668426513671875
1663862591700789800,4.477789794921875,-1.77392578125,0.3802642822265625,0.9817657470703125
1663862591710646800,4.487646728515625,-1.728118896484375,0.64764404296875,0.8475341796875
1663862591720534500,4.497534423828125,-1.63543701171875,0.47613525390625,0.840087890625
1663862591730422300,4.50742236328125,-1.52252197265625,-0.1353302001953125,0.9295654296875
1663862591740310000,4.51731005859375,-1.43304443359375,-0.41229248046875,0.83795166015625
1663862591750167000,4.5271669921875,-1.4618072509765625,0.1938323974609375,0.81451416015625
1663862591760024300,4.5370244140625,-1.4831085205078125,1.3975830078125,1.1404876708984375
1663862591769912000,4.546912109375,-1.4383697509765625,1.87908935546875,1.54742431640625
1663862591779799600,4.556799560546875,-1.4127960205078125,1.34112548828125,1.6102752685546875
1663862591789656800,4.56665673828125,-1.4277191162109375,1.0183563232421875,1.5623321533203125
1663862591799575000,4.576574951171875,-1.431976318359375,1.001312255859375,1.66778564453125
1663862591809462800,4.586462890625,-1.4362335205078125,0.8947906494140625,1.809478759765625
1663862591819350500,4.5963505859375,-1.44476318359375,0.7072906494140625,1.908538818359375
1663862591829238300,4.60623828125,-1.4287872314453125,0.4676055908203125,1.978851318359375
1663862591839125800,4.616125732421875,-1.3765869140625,0.22259521484375,2.002288818359375
1663862591848983000,4.625983154296875,-1.2796478271484375,0.0937042236328125,2.0171966552734375
1663862591858840300,4.63584033203125,-1.1390228271484375,0.02978515625,2.0427703857421875
1663862591868758500,4.645758544921875,-0.9462127685546875,-0.0010986328125,2.0289154052734375
1663862591878615600,4.655615478515625,-0.736358642578125,0.089447021484375,2.01507568359375
1663862591888503300,4.66550341796875,-0.5360870361328125,0.280120849609375,2.02252197265625
1663862591898391000,4.67539111328125,-0.334747314453125,0.453765869140625,2.0193328857421875
1663862591908278800,4.68527880859375,-0.1280975341796875,0.58905029296875,2.01507568359375
1663862591918135800,4.6951357421875,0.0093231201171875,0.6050262451171875,2.035308837890625
1663862591928054000,4.705053955078125,0.0103912353515625,0.51129150390625,2.080047607421875
1663862591937911300,4.714911376953125,-0.111053466796875,0.35894775390625,2.1535491943359375
1663862591947799000,4.724799072265625,-0.24420166015625,0.2673492431640625,2.2110748291015625
1663862591957686500,4.7346865234375,-0.294281005859375,0.21087646484375,2.1897735595703125
1663862591967543800,4.744543701171875,-0.2612457275390625,0.15869140625,2.1333160400390625
1663862591977431600,4.754431640625,-0.187744140625,0.2311248779296875,2.082183837890625
1663862591987349800,4.764349853515625,-0.09613037109375,0.3653411865234375,2.0395660400390625
1663862591997206800,4.774206787109375,0.0189208984375,0.465484619140625,1.9948272705078125
1663862592007080000,4.784079833984375,0.16485595703125,0.500640869140625,1.9277191162109375
1663862592016967700,4.7939677734375,0.3086700439453125,0.486785888671875,1.8254547119140625
1663862592026825000,4.803824951171875,0.4077301025390625,0.47613525390625,1.6986846923828125
1663862592036743200,4.8137431640625,0.4663238525390625,0.4271392822265625,1.555938720703125
1663862592046631000,4.823630859375,0.4652557373046875,0.35894775390625,1.440887451171875
1663862592056518400,4.833518310546875,0.392822265625,0.3919830322265625,1.4014739990234375
1663862592066406100,4.84340625,0.3171844482421875,0.51873779296875,1.432373046875
1663862592076294000,4.8532939453125,0.24261474609375,0.6412506103515625,1.487762451171875
1663862592086181600,4.863181640625,0.154205322265625,0.66680908203125,1.5058746337890625
1663862592096069400,4.8730693359375,0.0647125244140625,0.5975799560546875,1.454742431640625
1663862592105926400,4.882926513671875,-0.0279541015625,0.4899749755859375,1.35247802734375
1663862592115814100,4.892814208984375,-0.1099853515625,0.36322021484375,1.2257080078125
1663862592125702000,4.902701904296875,-0.1589813232421875,0.235382080078125,1.0861663818359375
1663862592135589600,4.912589599609375,-0.1813507080078125,0.169342041015625,0.9487457275390625
1663862592145477400,4.922477294921875,-0.1920013427734375,0.15655517578125,0.8336944580078125
1663862592155334400,4.93233447265625,-0.202667236328125,0.200225830078125,0.759124755859375
1663862592165222100,4.94222216796875,-0.198394775390625,0.2716064453125,0.735687255859375
1663862592175110000,4.95210986328125,-0.1493988037109375,0.2833251953125,0.737823486328125
1663862592184997600,4.96199755859375,-0.0705718994140625,0.181060791015625,0.700531005859375
1663862592194885000,4.971885009765625,0.0210418701171875,0.0383148193359375,0.6291656494140625
1663862592204772900,4.98177294921875,0.109466552734375,-0.0532989501953125,0.57696533203125
1663862592214660600,4.99166064453125,0.2032012939453125,-0.1683502197265625,0.5482025146484375
1663862592224518000,5.001517822265625,0.2830963134765625,-0.3494415283203125,0.5119781494140625
1663862592234405400,5.0114052734375,0.30120849609375,-0.4069671630859375,0.4928131103515625
1663862592244293000,5.021293212890625,0.245819091796875,-0.232269287109375,0.5375518798828125
1663862592254150400,5.031150390625,0.154205322265625,0.009552001953125,0.63555908203125
1663862592264038100,5.0410380859375,0.0657806396484375,0.1405792236328125,0.71331787109375
1663862592273925600,5.050925537109375,0.0146484375,0.12139892578125,0.723968505859375
1663862592283813400,5.0608134765625,0.017852783203125,-0.0309295654296875,0.702667236328125
1663862592293701000,5.070701171875,0.074310302734375,-0.2120208740234375,0.700531005859375
1663862592303588900,5.0805888671875,0.1456756591796875,-0.301513671875,0.6941375732421875
1663862592313476600,5.0904765625,0.1946868896484375,-0.2130889892578125,0.655792236328125
1663862592323333600,5.100333740234375,0.2255706787109375,-0.0319976806640625,0.6035919189453125
1663862592333191000,5.11019091796875,0.2500762939453125,0.1150054931640625,0.5439453125
1663862592343078700,5.12007861328125,0.27777099609375,0.2396392822265625,0.4384765625
1663862592352935700,5.129935791015625,0.3299713134765625,0.360015869140625,0.2616424560546875
1663862592362854000,5.13985400390625,0.415191650390625,0.406890869140625,0.0208892822265625
1663862592372741600,5.14974169921875,0.508941650390625,0.360015869140625,-0.2411651611328125
1663862592382629400,5.15962939453125,0.5568695068359375,0.2897186279296875,-0.50640869140625
1663862592392517000,5.16951708984375,0.5643310546875,0.20343017578125,-0.77166748046875
1663862592402404900,5.17940478515625,0.563262939453125,0.0734710693359375,-1.053955078125
1663862592412262000,5.189261962890625,0.5760498046875,-0.1683502197265625,-1.37567138671875
1663862592422149600,5.199149658203125,0.6016082763671875,-0.5316009521484375,-1.741058349609375
1663862592432037400,5.209037353515625,0.65380859375,-0.9076385498046875,-2.1309356689453125
1663862592441925000,5.218925048828125,0.7198638916015625,-1.1728973388671875,-2.53466796875
1663862592451812600,5.2288125,0.7603302001953125,-1.3731689453125,-2.9213714599609375
1663862592461700400,5.238700439453125,0.789093017578125,-1.621368408203125,-3.26971435546875
1663862592471588000,5.248588134765625,0.814666748046875,-1.8919525146484375,-3.5914154052734375
1663862592481475800,5.258475830078125,0.828521728515625,-1.9942169189453125,-3.8769073486328125
1663862592491363600,5.268363525390625,0.7901611328125,-1.7289581298828125,-4.04522705078125
1663862592501220600,5.278220703125,0.6133270263671875,-1.0791473388671875,-3.971710205078125
1663862592511108400,5.2881083984375,0.2298431396484375,-0.302581787109375,-3.619110107421875
1663862592520996000,5.29799609375,-0.327301025390625,0.2747955322265625,-3.1237640380859375
1663862592530883800,5.3078837890625,-0.86419677734375,0.554962158203125,-2.6902008056640625
1663862592540771300,5.317771240234375,-1.1624603271484375,0.5144805908203125,-2.457977294921875
1663862592550659000,5.3276591796875,-1.2231903076171875,0.0351104736328125,-2.4451904296875
1663862592560516400,5.337516357421875,-1.1518096923828125,-0.812835693359375,-2.5858154296875
1663862592570404000,5.347404052734375,-0.8769683837890625,-1.7747650146484375,-2.824432373046875
1663862592580291600,5.35729150390625,-0.449798583984375,-2.6333770751953125,-3.1237640380859375
1663862592590148900,5.36714892578125,-0.08868408203125,-3.2160797119140625,-3.4039306640625
1663862592600036600,5.37703662109375,0.050872802734375,-3.470672607421875,-3.5030059814453125
1663862592609894000,5.386893798828125,0.0700531005859375,-3.4770660400390625,-3.4316253662109375
1663862592619781400,5.396781494140625,0.109466552734375,-3.1329803466796875,-3.371978759765625
1663862592629669000,5.406669189453125,0.1829681396484375,-2.4267120361328125,-3.4273681640625
1663862592639556900,5.416556884765625,0.313995361328125,-1.5467987060546875,-3.564788818359375
1663862592649444600,5.426444580078125,0.520660400390625,-0.77874755859375,-3.6745147705078125
1663862592659332400,5.436332275390625,0.7305145263671875,-0.2844696044921875,-3.6585235595703125
1663862592669219800,5.4462197265625,0.8998870849609375,-0.0895233154296875,-3.402862548828125
1663862592679107600,5.456107666015625,0.9925689697265625,-0.13958740234375,-2.9309539794921875
1663862592688995300,5.465995361328125,1.0160064697265625,-0.2599639892578125,-2.4835357666015625
1663862592698883000,5.475883056640625,1.06500244140625,-0.392059326171875,-2.276885986328125
1663862592708770800,5.485770751953125,1.132110595703125,-0.58380126953125,-2.1991119384765625
1663862592718658300,5.495658203125,1.1182708740234375,-0.73187255859375,-2.02227783203125
1663862592728515600,5.505515625,1.0234527587890625,-0.811767578125,-1.7794036865234375
1663862592738372900,5.515372802734375,0.8956298828125,-0.86822509765625,-1.5386505126953125
1663862592748260400,5.52526025390625,0.7603302001953125,-0.9310760498046875,-1.29150390625
1663862592758117600,5.53511767578125,0.6154632568359375,-1.0258941650390625,-1.03265380859375
1663862592768035800,5.545035888671875,0.44927978515625,-1.1696929931640625,-0.7876434326171875
1663862592777893000,5.55489306640625,0.2330322265625,-1.2677001953125,-0.5841827392578125
1663862592787780600,5.564780517578125,-0.040740966796875,-1.17608642578125,-0.392425537109375
1663862592797668400,5.57466845703125,-0.3443450927734375,-0.834136962890625,-0.2049407958984375
1663862592807556000,5.58455615234375,-0.63623046875,-0.3206787109375,-0.0174560546875
1663862592817413400,5.594413330078125,-0.8886871337890625,0.176788330078125,0.1945343017578125
1663862592827331600,5.60433154296875,-1.0964202880859375,0.5027618408203125,0.4587249755859375
1663862592837188600,5.614188720703125,-1.251953125,0.6060943603515625,0.7878875732421875
1663862592847046000,5.6240458984375,-1.3691253662109375,0.51873779296875,1.158599853515625
1663862592856933600,5.63393359375,-1.467132568359375,0.348297119140625,1.4952239990234375
1663862592866851800,5.643851806640625,-1.558746337890625,0.2481689453125,1.7210540771484375
1663862592876739600,5.653739501953125,-1.648223876953125,0.404754638671875,1.7945556640625
1663862592886627000,5.663626953125,-1.7313232421875,0.8031768798828125,1.795623779296875
1663862592896514800,5.673514892578125,-1.84423828125,1.1099700927734375,1.797760009765625
1663862592906402600,5.683402587890625,-1.9102783203125,0.8937225341796875,1.3002777099609375
1663862592916290300,5.693290283203125,-1.805877685546875,0.46441650390625,0.688812255859375
1663862592926147300,5.703147216796875,-1.5885772705078125,1.320892333984375,1.2534027099609375
1663862592936004600,5.713004638671875,-1.467132568359375,2.3605804443359375,2.1088104248046875
1663862592945922800,5.7229228515625,-1.5395660400390625,1.6106414794921875,1.9511566162109375
1663862592955810600,5.732810546875,-1.662078857421875,0.53472900390625,1.47711181640625
1663862592965698300,5.7426982421875,-1.6684722900390625,0.2289886474609375,1.509063720703125
1663862592975585800,5.752585693359375,-1.617340087890625,0.3088836669921875,1.8041534423828125
1663862592985473500,5.7624736328125,-1.5438232421875,0.3536224365234375,2.0086822509765625
1663862592995361300,5.772361328125,-1.395751953125,0.2332611083984375,2.06939697265625
1663862593005218600,5.782218505859375,-1.168853759765625,0.112884521484375,2.0278472900390625
1663862593015106000,5.79210595703125,-0.8556671142578125,0.1991729736328125,2.0193328857421875
1663862593024993800,5.801993896484375,-0.5115814208984375,0.45269775390625,2.068328857421875
1663862593034881500,5.811881591796875,-0.1941375732421875,0.7893218994140625,2.13543701171875
1663862593044769300,5.821769287109375,0.050872802734375,1.0513763427734375,2.2472991943359375
1663862593054657000,5.831656982421875,0.2021331787109375,1.1568450927734375,2.4038848876953125
1663862593064514000,5.84151416015625,0.2628631591796875,1.128082275390625,2.5189361572265625
1663862593074401800,5.85140185546875,0.15313720703125,0.989593505859375,2.535980224609375
1663862593084289500,5.86128955078125,-0.1366119384765625,0.77227783203125,2.4656829833984375
1663862593094146800,5.871146728515625,-0.4700469970703125,0.57733154296875,2.308013916015625
1663862593104034300,5.881034423828125,-0.69268798828125,0.5507049560546875,2.1002960205078125
1663862593113891600,5.8908916015625,-0.781097412109375,0.580535888671875,1.9351806640625
1663862593123748900,5.900748779296875,-0.7321014404296875,0.5166168212890625,1.8797760009765625
1663862593133636400,5.91063623046875,-0.562713623046875,0.3791961669921875,1.934112548828125
1663862593143554600,5.920554443359375,-0.3240966796875,0.37066650390625,1.990570068359375
1663862593153411800,5.930411865234375,-0.0865478515625,0.5325927734375,1.9820404052734375
1663862593163330000,5.940330078125,0.109466552734375,0.76055908203125,1.922393798828125
1663862593173217800,5.9502177734375,0.2564697265625,0.9043731689453125,1.852081298828125
1663862593183105500,5.96010546875,0.3619232177734375,0.929931640625,1.8158721923828125
1663862593192993000,5.969992919921875,0.417327880859375,0.8468475341796875,1.8265228271484375
1663862593202880800,5.979880859375,0.4556732177734375,0.7541656494140625,1.8254547119140625
1663862593212768500,5.9897685546875,0.4684600830078125,0.681732177734375,1.7231903076171875
1663862593222656300,5.99965625,0.4791107177734375,0.5943756103515625,1.5804443359375
1663862593232544000,6.0095439453125,0.4876251220703125,0.554962158203125,1.4281158447265625
1663862593242401000,6.019401123046875,0.4886932373046875,0.566680908203125,1.3087921142578125
1663862593252288800,6.029288818359375,0.4535369873046875,0.5496368408203125,1.2321014404296875
1663862593262176500,6.039176513671875,0.3725738525390625,0.5613555908203125,1.166046142578125
1663862593272033500,6.049033447265625,0.2724456787109375,0.5975799560546875,1.097869873046875
1663862593281890800,6.058890869140625,0.1701812744140625,0.5698699951171875,1.0595245361328125
1663862593291778600,6.068778564453125,0.1030731201171875,0.533660888671875,1.03289794921875
1663862593301666300,6.078666259765625,0.0774993896484375,0.5251312255859375,0.9913482666015625
1663862593311553800,6.0885537109375,0.0668487548828125,0.47613525390625,0.9412841796875
1663862593321441500,6.098441650390625,0.062591552734375,0.364288330078125,0.881622314453125
1663862593331298800,6.108298828125,0.07110595703125,0.15655517578125,0.827301025390625
1663862593341217000,6.118217041015625,0.097747802734375,-0.084197998046875,0.794281005859375
1663862593351104800,6.128104736328125,0.119049072265625,-0.1917877197265625,0.803863525390625
1663862593360992500,6.137992431640625,0.0924224853515625,-0.1598358154296875,0.8805694580078125
1663862593370849500,6.147849609375,0.0103912353515625,-0.0362548828125,0.9881591796875
1663862593380706800,6.157706787109375,-0.0716400146484375,0.176788330078125,1.064849853515625
1663862593390625000,6.167625,-0.108917236328125,0.3451080322265625,1.07550048828125
1663862593400482000,6.17748193359375,-0.106781005859375,0.3302001953125,1.0233154296875
1663862593410339300,6.18733935546875,-0.0790863037109375,0.2204742431640625,0.9242401123046875
1663862593420257500,6.197257568359375,-0.0439300537109375,0.1501617431640625,0.8070526123046875
1663862593430145300,6.207145263671875,0.0082550048828125,0.176788330078125,0.7079925537109375
1663862593440033000,6.217032958984375,0.086029052734375,0.3195343017578125,0.634490966796875
1663862593449920500,6.22692041015625,0.1904144287109375,0.4921112060546875,0.575897216796875
1663862593459808300,6.236808349609375,0.2841644287109375,0.590118408203125,0.4970703125
1663862593469696000,6.246696044921875,0.3523406982421875,0.5794677734375,0.3521881103515625
1663862593479553300,6.25655322265625,0.41412353515625,0.46441650390625,0.1583099365234375
1663862593489410300,6.266410400390625,0.51959228515625,0.302490234375,-0.0462188720703125
1663862593499328500,6.27632861328125,0.633575439453125,0.1895751953125,-0.2624664306640625
1663862593509216300,6.28621630859375,0.690032958984375,0.1821136474609375,-0.4893646240234375
1663862593519104000,6.29610400390625,0.6612701416015625,0.2289886474609375,-0.7056121826171875
1663862593528961000,6.3059609375,0.577117919921875,0.14697265625,-0.9101409912109375
1663862593538848800,6.315848876953125,0.528106689453125,-0.08526611328125,-1.1295928955078125
1663862593548736500,6.325736572265625,0.5355682373046875,-0.3270721435546875,-1.409759521484375
1663862593558593800,6.33559375,0.572845458984375,-0.5209503173828125,-1.7687530517578125
1663862593568512000,6.345511962890625,0.6250457763671875,-0.7755584716796875,-2.1778106689453125
1663862593578399700,6.355399658203125,0.6708526611328125,-1.1846160888671875,-2.5890045166015625
1663862593588287200,6.365287353515625,0.6921539306640625,-1.6298980712890625,-3.0119171142578125
1663862593598175000,6.375175048828125,0.67938232421875,-1.9260406494140625,-3.4454803466796875
1663862593608032300,6.3850322265625,0.6399688720703125,-1.95587158203125,-3.7970123291015625
1663862593617889300,6.39488916015625,0.5707244873046875,-1.6725006103515625,-3.9461517333984375
1663862593627777000,6.404777099609375,0.4087982177734375,-1.0695648193359375,-3.851348876953125
1663862593637664800,6.414664794921875,0.1137237548828125,-0.2013702392578125,-3.5232391357421875
1663862593647552500,6.424552490234375,-0.281494140625,0.712615966796875,-3.0790252685546875
1663862593657440300,6.434440185546875,-0.562713623046875,1.356048583984375,-2.7296142578125
1663862593667327700,6.44432763671875,-0.5957489013671875,1.3613739013671875,-2.58154296875
1663862593677185000,6.45418505859375,-0.510528564453125,0.7339324951171875,-2.629486083984375
1663862593687072800,6.46407275390625,-0.3752288818359375,-0.2610321044921875,-2.834014892578125
1663862593696929800,6.4739296875,-0.153656005859375,-1.3657073974609375,-3.1077880859375
1663862593706848000,6.483847900390625,0.095611572265625,-2.297821044921875,-3.349609375
1663862593716735700,6.49373583984375,0.23516845703125,-2.784637451171875,-3.4124603271484375
1663862593726593000,6.503593017578125,0.243682861328125,-2.7249908447265625,-3.2952728271484375
1663862593736511200,6.51351123046875,0.208526611328125,-2.410736083984375,-3.1344146728515625
1663862593746399000,6.52339892578125,0.2617950439453125,-1.9814300537109375,-3.1152496337890625
1663862593756286500,6.533286376953125,0.39495849609375,-1.449859619140625,-3.337890625
1663862593766143700,6.543143798828125,0.5579376220703125,-0.951324462890625,-3.701141357421875
1663862593776001000,6.5530009765625,0.79443359375,-0.5539703369140625,-3.983428955078125
1663862593785888500,6.562888427734375,1.108673095703125,-0.333465576171875,-3.9429473876953125
1663862593795806700,6.572806640625,1.418670654296875,-0.2951202392578125,-3.515777587890625
1663862593805694500,6.582694580078125,1.62640380859375,-0.401641845703125,-2.9107208251953125
1663862593815582200,6.592582275390625,1.6881866455078125,-0.5923309326171875,-2.4174957275390625
1663862593825470000,6.602469970703125,1.7116241455078125,-0.6562347412109375,-2.2012481689453125
1663862593835357700,6.612357666015625,1.7574310302734375,-0.6477203369140625,-2.171417236328125
1663862593845245400,6.622245361328125,1.77020263671875,-0.650909423828125,-2.1085662841796875
1663862593855102500,6.6321025390625,1.7009735107421875,-0.5880584716796875,-1.9487762451171875
1663862593864990200,6.641990234375,1.565673828125,-0.57208251953125,-1.71441650390625
1663862593874847500,6.651847412109375,1.4026947021484375,-0.6370697021484375,-1.4033660888671875
1663862593884735000,6.66173486328125,1.1949615478515625,-0.754241943359375,-1.022003173828125
1663862593894622700,6.671622802734375,0.97125244140625,-0.9193572998046875,-0.6598052978515625
1663862593904480000,6.68147998046875,0.699615478515625,-1.0333404541015625,-0.3423614501953125
1663862593914367700,6.69136767578125,0.32464599609375,-0.918304443359375,-0.0249176025390625
1663862593924255200,6.701255126953125,-0.0705718994140625,-0.6136322021484375,0.2733612060546875
1663862593934112500,6.711112548828125,-0.37310791015625,-0.243988037109375,0.5151824951171875
1663862593944000300,6.721000244140625,-0.6085205078125,0.07666015625,0.735687255859375
1663862593953888000,6.730887939453125,-0.8215789794921875,0.303558349609375,0.9817657470703125
1663862593963806200,6.74080615234375,-0.9866943359375,0.4004974365234375,1.22357177734375
1663862593973663200,6.750663330078125,-1.0932159423828125,0.4569549560546875,1.4472808837890625
1663862593983551000,6.760551025390625,-1.170989990234375,0.7072906494140625,1.612396240234375
1663862593993438700,6.770438720703125,-1.2317047119140625,1.1216888427734375,1.684844970703125
1663862594003326500,6.780326416015625,-1.3115997314453125,1.3613739013671875,1.7210540771484375
1663862594013214000,6.7902138671875,-1.398956298828125,1.2218170166015625,1.6315765380859375
1663862594023071200,6.8000712890625,-1.3669891357421875,0.7786712646484375,1.2065277099609375
1663862594032959000,6.809958984375,-1.2199859619140625,0.806365966796875,1.00946044921875
1663862594042846700,6.8198466796875,-1.03570556640625,1.819427490234375,1.6209259033203125
1663862594052734500,6.829734375,-0.985626220703125,2.0900115966796875,2.082183837890625
1663862594062622000,6.8396220703125,-1.1198577880859375,1.34112548828125,1.8148040771484375
1663862594072509700,6.849509765625,-1.3478240966796875,0.8031768798828125,1.6997528076171875
1663862594082397400,6.8593974609375,-1.514007568359375,0.644439697265625,1.964996337890625
1663862594092285200,6.86928515625,-1.5757904052734375,0.5517730712890625,2.1524810791015625
1663862594102173000,6.8791728515625,-1.5853729248046875,0.3578948974609375,2.1077423095703125
1663862594112060400,6.889060302734375,-1.5044097900390625,0.2311248779296875,2.0086822509765625
1663862594121948200,6.8989482421875,-1.293487548828125,0.085174560546875,2.024658203125
1663862594131836000,6.9088359375,-1.0570068359375,0.08624267578125,2.1141357421875
1663862594141662500,6.918662353515625,-0.8535308837890625,0.2716064453125,2.21746826171875
1663862594151550200,6.92855029296875,-0.6713714599609375,0.5027618408203125,2.3176116943359375
1663862594161438000,6.93843798828125,-0.533966064453125,0.6806640625,2.4273223876953125
1663862594171295200,6.948295166015625,-0.4103851318359375,0.77227783203125,2.528533935546875
1663862594181182700,6.9581826171875,-0.2857513427734375,0.7626953125,2.6116180419921875
1663862594191101000,6.968100830078125,-0.2388763427734375,0.72540283203125,2.674468994140625
1663862594200988700,6.97798876953125,-0.293212890625,0.656158447265625,2.6819305419921875
1663862594210876400,6.98787646484375,-0.393341064453125,0.5144805908203125,2.596710205078125
1663862594220764200,6.99776416015625,-0.4551239013671875,0.33978271484375,2.4401092529296875
1663862594230652000,7.00765185546875,-0.4455413818359375,0.15869140625,2.2600860595703125
1663862594240539400,7.017539306640625,-0.381622314453125,0.0702667236328125,2.1109466552734375
1663862594250427100,7.02742724609375,-0.278289794921875,0.1299285888671875,2.0427703857421875
1663862594260284400,7.037284423828125,-0.1611175537109375,0.3206024169921875,2.056610107421875
1663862594270172200,7.047172119140625,-0.0449981689453125,0.587982177734375,2.1002960205078125
1663862594280060000,7.057059814453125,0.0785675048828125,0.740325927734375,2.1088104248046875
1663862594289917000,7.0669169921875,0.2245025634765625,0.6859893798828125,2.037445068359375
1663862594299804700,7.0768046875,0.3512725830078125,0.496368408203125,1.885101318359375
1663862594309692400,7.0866923828125,0.427978515625,0.282257080078125,1.6891021728515625
1663862594319580200,7.096580078125,0.4450225830078125,0.1299285888671875,1.511199951171875
1663862594329467600,7.106467529296875,0.4087982177734375,0.05322265625,1.4025421142578125
1663862594339325000,7.116324951171875,0.3619232177734375,0.028717041015625,1.37164306640625
1663862594349212700,7.126212646484375,0.2948150634765625,0.01806640625,1.37591552734375
1663862594359100400,7.136100341796875,0.1946868896484375,0.04364013671875,1.37164306640625
1663862594368988000,7.14598779296875,0.095611572265625,0.05322265625,1.3460845947265625
1663862594378875600,7.155875732421875,0.0072021484375,0.05535888671875,1.31732177734375
1663862594388733000,7.16573291015625,-0.0833587646484375,0.0958404541015625,1.3109283447265625
1663862594398590000,7.17558984375,-0.17816162109375,0.165069580078125,1.318389892578125
1663862594408508200,7.185508056640625,-0.2612457275390625,0.2417755126953125,1.3226470947265625
1663862594418396000,7.19539599609375,-0.3326263427734375,0.2716064453125,1.3024139404296875
1663862594428253200,7.205253173828125,-0.3826904296875,0.2662811279296875,1.257659912109375
1663862594438141000,7.215140869140625,-0.3912200927734375,0.2311248779296875,1.2139892578125
1663862594448028400,7.2250283203125,-0.36883544921875,0.1512298583984375,1.1745758056640625
1663862594457916200,7.234916259765625,-0.316650390625,0.021270751953125,1.13409423828125
1663862594467804000,7.244803955078125,-0.221832275390625,-0.1555633544921875,1.078704833984375
1663862594477691600,7.254691650390625,-0.11212158203125,-0.2823333740234375,0.998809814453125
1663862594487579400,7.264579345703125,-0.0482025146484375,-0.3142852783203125,0.91998291015625
1663862594497436400,7.2744365234375,-0.0482025146484375,-0.2823333740234375,0.8667144775390625
1663862594507324200,7.28432421875,-0.073760986328125,-0.171539306640625,0.8432769775390625
1663862594517181400,7.294181396484375,-0.106781005859375,-0.025604248046875,0.8358154296875
1663862594527099600,7.304099609375,-0.1451416015625,0.05108642578125,0.82623291015625
1663862594536987400,7.3139873046875,-0.1717681884765625,0.1309814453125,0.770843505859375
1663862594546875000,7.323875,-0.1621856689453125,0.2417755126953125,0.6707000732421875
1663862594556732200,7.333732177734375,-0.120635986328125,0.385589599609375,0.573760986328125
1663862594566620000,7.343619873046875,-0.0482025146484375,0.5144805908203125,0.5141143798828125
1663862594576477000,7.353476806640625,0.0316925048828125,0.5251312255859375,0.4778900146484375
1663862594586395100,7.36339501953125,0.1020050048828125,0.428192138671875,0.4342193603515625
1663862594596283000,7.373282958984375,0.1744384765625,0.3195343017578125,0.3543243408203125
1663862594606170600,7.383170654296875,0.2617950439453125,0.190643310546875,0.23394775390625
1663862594616058400,7.393058349609375,0.3395538330078125,0.0489654541015625,0.075225830078125
1663862594625946000,7.402946044921875,0.4002838134765625,-0.0202789306640625,-0.1356964111328125
1663862594635833600,7.41283349609375,0.448211669921875,-0.0224151611328125,-0.3892364501953125
1663862594645691000,7.42269091796875,0.462066650390625,-0.01708984375,-0.653411865234375
1663862594655548200,7.432548095703125,0.436492919921875,-0.060760498046875,-0.906951904296875
1663862594665435600,7.442435546875,0.4109344482421875,-0.2152252197265625,-1.1764678955078125
1663862594675293000,7.45229296875,0.42584228515625,-0.4676971435546875,-1.5045623779296875
1663862594685180700,7.4621806640625,0.4801788330078125,-0.753173828125,-1.8955230712890625
1663862594695099000,7.472098876953125,0.58349609375,-1.01629638671875,-2.3493194580078125
1663862594704986600,7.481986572265625,0.7049407958984375,-1.2293548583984375,-2.8755645751953125
1663862594714874000,7.4918740234375,0.7997589111328125,-1.4243011474609375,-3.4188385009765625
1663862594724761900,7.501761962890625,0.83489990234375,-1.6266937255859375,-3.88330078125
1663862594734619100,7.511619140625,0.8178558349609375,-1.792877197265625,-4.1869049072265625
1663862594744507000,7.5215068359375,0.7550048828125,-1.748138427734375,-4.2689208984375
1663862594754364000,7.531364013671875,0.6261138916015625,-1.3497314453125,-4.0942230224609375
1663862594764251600,7.541251708984375,0.356597900390625,-0.7041778564453125,-3.7117919921875
1663862594774139400,7.551139404296875,-0.1035919189453125,-0.02667236328125,-3.2025909423828125
1663862594784027100,7.561027099609375,-0.6309051513671875,0.5070343017578125,-2.7573089599609375
1663862594793915000,7.570914794921875,-0.9632568359375,0.7072906494140625,-2.5623779296875
1663862594803802400,7.58080224609375,-1.0495452880859375,0.3909149169921875,-2.594329833984375
1663862594813659600,7.59065966796875,-0.9984130859375,-0.3515777587890625,-2.7647705078125
1663862594823547400,7.60054736328125,-0.804534912109375,-1.278350830078125,-3.0449371337890625
1663862594833435100,7.61043505859375,-0.4327545166015625,-2.1273651123046875,-3.3623809814453125
1663862594843322600,7.620322509765625,-0.026885986328125,-2.729248046875,-3.630828857421875
1663862594853210400,7.63021044921875,0.1605987548828125,-3.2203369140625,-3.70220947265625
1663862594863098000,7.64009814453125,0.107330322265625,-3.54736328125,-3.5711822509765625
1663862594872985900,7.64998583984375,0.0359649658203125,-3.4536285400390625,-3.3996734619140625
1663862594882873600,7.65987353515625,0.1041412353515625,-2.9944915771484375,-3.268646240234375
1663862594892761000,7.669760986328125,0.267120361328125,-2.330841064453125,-3.28887939453125
1663862594902648800,7.67964892578125,0.459930419921875,-1.6149749755859375,-3.4806365966796875
1663862594912536600,7.68953662109375,0.70281982421875,-0.9800872802734375,-3.6840972900390625
1663862594922393900,7.699393798828125,0.9819183349609375,-0.5092315673828125,-3.70965576171875
1663862594932281300,7.70928125,1.200286865234375,-0.3174896240234375,-3.4188385009765625
1663862594942169000,7.719169189453125,1.2897796630859375,-0.4421234130859375,-2.8979339599609375
1663862594952026400,7.7290263671875,1.3195953369140625,-0.5933837890625,-2.422821044921875
1663862594961914000,7.7389140625,1.31854248046875,-0.606170654296875,-2.1959228515625
1663862594971771100,7.748771240234375,1.291900634765625,-0.629608154296875,-2.1256103515625
1663862594981689300,7.758689453125,1.2397003173828125,-0.6679534912109375,-2.0169525146484375
1663862594991577000,7.7685771484375,1.1747283935546875,-0.746795654296875,-1.8177490234375
1663862595001464800,7.77846484375,1.0735321044921875,-0.8618316650390625,-1.6196136474609375
1663862595011352600,7.7883525390625,0.929718017578125,-0.9683685302734375,-1.409759521484375
1663862595021240300,7.798240234375,0.75927734375,-1.0802154541015625,-1.14556884765625
1663862595031097300,7.808097412109375,0.530242919921875,-1.20166015625,-0.8558197021484375
1663862595040954600,7.81795458984375,0.2522125244140625,-1.35931396484375,-0.5447540283203125
1663862595050842400,7.82784228515625,-0.1057281494140625,-1.486083984375,-0.22412109375
1663862595060729900,7.837729736328125,-0.508392333984375,-1.3518524169921875,0.0677642822265625
1663862595070617600,7.84761767578125,-0.860992431640625,-0.9097747802734375,0.31597900390625
1663862595080505300,7.85750537109375,-1.145416259765625,-0.33453369140625,0.5695037841796875
1663862595090393000,7.86739306640625,-1.3691253662109375,0.1267242431640625,0.8826904296875
1663862595100280800,7.87728076171875,-1.5299835205078125,0.237518310546875,1.1735076904296875
1663862595110137900,7.887137939453125,-1.615203857421875,0.0734710693359375,1.3780364990234375
1663862595120025600,7.897025634765625,-1.61627197265625,0.01806640625,1.386566162109375
1663862595129883000,7.9068828125,-1.5438232421875,0.340850830078125,1.2416839599609375
1663862595139801000,7.916801025390625,-1.5523529052734375,0.7626953125,1.374847412109375
1663862595149688600,7.9266884765625,-1.6194610595703125,0.9246063232421875,1.421722412109375
1663862595159576300,7.936576416015625,-1.52252197265625,0.9832000732421875,1.0126495361328125
1663862595169464000,7.946464111328125,-1.387237548828125,1.2931976318359375,1.236358642578125
1663862595179351800,7.956351806640625,-1.2540740966796875,2.16351318359375,1.93304443359375
1663862595189239600,7.966239501953125,-1.1773834228515625,1.86737060546875,1.967132568359375
1663862595199127000,7.976126953125,-1.3137359619140625,0.592254638671875,1.5836334228515625
1663862595209014800,7.986014892578125,-1.5843048095703125,0.1299285888671875,1.454742431640625
1663862595218872000,7.9958720703125,-1.716400146484375,0.1277923583984375,1.713592529296875
1663862595228759800,8.005759765625,-1.749420166015625,0.165069580078125,1.885101318359375
1663862595238647300,8.015647216796875,-1.6908416748046875,0.291839599609375,1.8819122314453125
1663862595248535000,8.02553515625,-1.490570068359375,0.2641448974609375,1.9032135009765625
1663862595258422800,8.0354228515625,-1.194427490234375,0.1735992431640625,1.9820404052734375
1663862595268280000,8.045280029296874,-0.8695220947265625,0.2098236083984375,2.103485107421875
1663862595278167800,8.055167724609374,-0.5840301513671875,0.3333892822265625,2.249420166015625
1663862595288055300,8.06505517578125,-0.3443450927734375,0.47613525390625,2.399627685546875
1663862595297943000,8.074943115234374,-0.165374755859375,0.6188812255859375,2.5402374267578125
1663862595307830800,8.084830810546874,-0.073760986328125,0.7328643798828125,2.6776580810546875
1663862595317718500,8.094718505859374,-0.0567169189453125,0.761627197265625,2.7852630615234375
1663862595327575600,8.104575439453125,-0.0940093994140625,0.667877197265625,2.80230712890625
1663862595337463300,8.11446337890625,-0.202667236328125,0.4388427734375,2.698974609375
1663862595347351000,8.12435107421875,-0.3667144775390625,0.1075592041015625,2.516815185546875
1663862595357238800,8.13423876953125,-0.49774169921875,-0.24078369140625,2.3176116943359375
1663862595367126500,8.14412646484375,-0.533966064453125,-0.4985809326171875,2.1535491943359375
1663862595376983600,8.153983642578124,-0.4998626708984375,-0.5816802978515625,2.0406341552734375
1663862595386871300,8.163871337890624,-0.41998291015625,-0.446380615234375,1.988433837890625
1663862595396728600,8.173728515625,-0.3177032470703125,-0.185394287109375,1.9831085205078125
1663862595406616000,8.183615966796875,-0.21331787109375,0.075592041015625,1.989501953125
1663862595416503800,8.19350390625,-0.0982666015625,0.21514892578125,1.9820404052734375
1663862595426391600,8.2033916015625,0.0114593505859375,0.21087646484375,1.9490203857421875
1663862595436248800,8.213248779296874,0.0913543701171875,0.101165771484375,1.8883056640625
1663862595446136300,8.22313623046875,0.140350341796875,0.0106201171875,1.8041534423828125
1663862595456024000,8.233024169921874,0.165924072265625,-0.013885498046875,1.704010009765625
1663862595465911800,8.242911865234374,0.16485595703125,-0.0341339111328125,1.611328125
1663862595475799600,8.252799560546874,0.1243743896484375,-0.0682220458984375,1.5484771728515625
1663862595485656600,8.262656494140625,0.04022216796875,-0.09271240234375,1.511199951171875
1663862595495575000,8.272574951171874,-0.0780181884765625,-0.0746002197265625,1.4717864990234375
1663862595505462500,8.282462646484374,-0.2069244384765625,-0.0213470458984375,1.4121246337890625
1663862595515350300,8.292350341796874,-0.3209075927734375,0.00848388671875,1.338623046875
1663862595525207600,8.30220751953125,-0.3944091796875,-0.01495361328125,1.2725830078125
1663862595535064600,8.312064697265624,-0.41998291015625,-0.0799407958984375,1.2193145751953125
1663862595544982800,8.321982666015625,-0.41571044921875,-0.1214752197265625,1.1862945556640625
1663862595554870500,8.33187060546875,-0.4135894775390625,-0.1204071044921875,1.1649932861328125
1663862595564758300,8.34175830078125,-0.407196044921875,-0.105499267578125,1.14794921875
1663862595574646000,8.35164599609375,-0.3784332275390625,-0.0863189697265625,1.1277008056640625
1663862595584533800,8.36153369140625,-0.32623291015625,-0.0767364501953125,1.102142333984375
1663862595594421200,8.371421142578125,-0.2495269775390625,-0.11614990234375,1.0616607666015625
1663862595604309000,8.38130908203125,-0.1600494384765625,-0.2130889892578125,0.984954833984375
1663862595614166300,8.391166259765624,-0.0705718994140625,-0.2727508544921875,0.8709716796875
1663862595624023300,8.401023193359375,-0.0002593994140625,-0.278076171875,0.7612457275390625
1663862595633911000,8.4109111328125,0.039154052734375,-0.3409271240234375,0.68988037109375
1663862595643798800,8.420798828125,0.048736572265625,-0.4410552978515625,0.6568603515625
1663862595653686500,8.4306865234375,0.0338287353515625,-0.450653076171875,0.6451416015625
1663862595663574300,8.44057421875,0.017852783203125,-0.3494415283203125,0.630218505859375
1663862595673461800,8.450461669921875,-0.0119781494140625,-0.2045745849609375,0.58441162109375
1663862595683349500,8.460349609375,-0.0716400146484375,-0.0788726806640625,0.5045318603515625
1663862595693237200,8.4702373046875,-0.111053466796875,0.05322265625,0.4267578125
1663862595703125000,8.480125,-0.1131744384765625,0.176788330078125,0.361785888671875
1663862595713012700,8.4900126953125,-0.0865478515625,0.1544189453125,0.3063812255859375
1663862595722900500,8.499900390625,-0.0439300537109375,-0.049041748046875,0.2318115234375
1663862595732757500,8.509757568359374,0.027435302734375,-0.274871826171875,0.1231536865234375
1663862595742645200,8.519645263671874,0.152069091796875,-0.4431915283203125,-0.0345001220703125
1663862595752533000,8.529532958984374,0.299072265625,-0.5763397216796875,-0.2177276611328125
1663862595762420700,8.539420654296874,0.393890380859375,-0.653045654296875,-0.3775177001953125
1663862595772308200,8.54930810546875,0.438629150390625,-0.6466522216796875,-0.5245208740234375
1663862595782165500,8.55916552734375,0.4791107177734375,-0.5678253173828125,-0.7109375
1663862595792053200,8.56905322265625,0.55047607421875,-0.5007171630859375,-0.9687347412109375
1663862595801941000,8.57894091796875,0.6389007568359375,-0.584869384765625,-1.2872467041015625
1663862595811828500,8.588828369140625,0.7379608154296875,-0.834136962890625,-1.6526336669921875
1663862595821716200,8.59871630859375,0.847686767578125,-1.1238861083984375,-2.08087158203125
1663862595831604000,8.60860400390625,0.9552764892578125,-1.33587646484375,-2.5655670166015625
1663862595841461200,8.618461181640624,1.0149383544921875,-1.44879150390625,-3.041748046875
1663862595851348700,8.6283486328125,1.0021514892578125,-1.5500030517578125,-3.440155029296875
1663862595861236500,8.638236572265624,0.951019287109375,-1.6757049560546875,-3.7266998291015625
1663862595871124200,8.648124267578124,0.871124267578125,-1.71405029296875,-3.87158203125
1663862595881012000,8.658011962890624,0.71026611328125,-1.6149749755859375,-3.802337646484375
1663862595890899700,8.667899658203124,0.389617919921875,-1.346527099609375,-3.4902191162109375
1663862595900756700,8.6777568359375,-0.1248931884765625,-0.917236328125,-3.0321502685546875
1663862595910644500,8.68764453125,-0.7310333251953125,-0.46875,-2.62628173828125
1663862595920532200,8.6975322265625,-1.1986846923828125,-0.1555633544921875,-2.4196319580078125
1663862595930420000,8.707419921875,-1.365936279296875,-0.1598358154296875,-2.4387969970703125
1663862595940307500,8.717307373046875,-1.3297119140625,-0.6274871826171875,-2.6369476318359375
1663862595950164700,8.727164794921874,-1.190155029296875,-1.3539886474609375,-2.937347412109375
1663862595960052500,8.737052490234374,-0.93023681640625,-2.1209869384765625,-3.266510009765625
1663862595969940200,8.746940185546874,-0.609588623046875,-2.8251190185546875,-3.5669097900390625
1663862595979828000,8.756827880859374,-0.3752288818359375,-3.3385772705078125,-3.781036376953125
1663862595989715500,8.766715576171874,-0.303863525390625,-3.604888916015625,-3.851348876953125
1663862595999603200,8.776603271484374,-0.395477294921875,-3.893585205078125,-3.67877197265625
1663862596009460500,8.78646044921875,-0.48602294921875,-4.0150146484375,-3.35919189453125
1663862596019348200,8.79634814453125,-0.4700469970703125,-3.7050323486328125,-3.1333465576171875
1663862596029235700,8.806235595703125,-0.3432769775390625,-3.0328521728515625,-3.09393310546875
1663862596039123500,8.81612353515625,-0.155792236328125,-2.2030029296875,-3.22283935546875
1663862596049011200,8.82601123046875,0.0348968505859375,-1.40618896484375,-3.4742431640625
1663862596058899000,8.83589892578125,0.2404937744140625,-0.8437347412109375,-3.665985107421875
1663862596068756000,8.845755859375,0.4311676025390625,-0.697784423828125,-3.57757568359375
1663862596078643700,8.855643798828124,0.539825439453125,-0.8746185302734375,-3.1429443359375
1663862596088531500,8.865531494140624,0.5408935546875,-1.031219482421875,-2.6135101318359375
1663862596098419200,8.875419189453124,0.53131103515625,-0.9907379150390625,-2.332275390625
1663862596108307000,8.885306884765624,0.5590057373046875,-1.005645751953125,-2.25238037109375
1663862596118164000,8.8951640625,0.577117919921875,-1.144134521484375,-2.2342681884765625
1663862596128021200,8.905021240234374,0.5579376220703125,-1.2400054931640625,-2.1788787841796875
1663862596137878300,8.914878173828125,0.5099945068359375,-1.2527923583984375,-2.0297393798828125
1663862596147766000,8.92476611328125,0.44927978515625,-1.2975311279296875,-1.818817138671875
1663862596157684200,8.934684326171874,0.3321075439453125,-1.439208984375,-1.5258636474609375
1663862596167572000,8.944572021484374,0.1808319091796875,-1.568115234375,-1.22332763671875
1663862596177459700,8.954459716796874,0.0082550048828125,-1.6458740234375,-0.9698028564453125
1663862596187316700,8.964316650390625,-0.2047882080078125,-1.5851593017578125,-0.735443115234375
1663862596197174000,8.974174072265624,-0.44873046875,-1.3380126953125,-0.505340576171875
1663862596207061800,8.984061767578124,-0.6958770751953125,-1.0344085693359375,-0.265655517578125
1663862596216949500,8.993949462890624,-0.91851806640625,-0.764892578125,-0.08349609375
1663862596226867700,9.00386767578125,-1.1177215576171875,-0.5625,0.0656280517578125
1663862596236724700,9.013724853515624,-1.3030853271484375,-0.368621826171875,0.2169036865234375
1663862596246612500,9.023612548828124,-1.486297607421875,-0.149169921875,0.3916015625
1663862596256469800,9.0334697265625,-1.6492919921875,0.05535888671875,0.620635986328125
1663862596266388000,9.043387939453124,-1.772857666015625,0.1490936279296875,0.8986663818359375
1663862596276245000,9.053244873046875,-1.86553955078125,0.157623291015625,1.146881103515625
1663862596286163200,9.0631630859375,-1.91241455078125,0.2130126953125,1.24700927734375
1663862596296020500,9.0730205078125,-1.8580780029296875,0.3759918212890625,1.2139892578125
1663862596305877800,9.082877685546874,-1.7771148681640625,0.3344573974609375,1.3567352294921875
1663862596315765200,9.09276513671875,-1.695098876953125,0.075592041015625,1.52398681640625
1663862596325683500,9.102683349609375,-1.5555419921875,0.04364013671875,1.193756103515625
1663862596335540700,9.112540771484374,-1.4170684814453125,0.568817138671875,0.9178466796875
1663862596345428500,9.122428466796874,-1.2945556640625,1.4412689208984375,1.4142608642578125
1663862596355316200,9.132316162109374,-1.342498779296875,1.443389892578125,1.7551422119140625
1663862596365203700,9.14220361328125,-1.5384979248046875,0.88519287109375,1.532501220703125
1663862596375091500,9.152091552734374,-1.659942626953125,0.6455078125,1.47711181640625
1663862596384979200,9.161979248046874,-1.704681396484375,0.5517730712890625,1.684844970703125
1663862596394836500,9.17183642578125,-1.7334442138671875,0.348297119140625,1.88616943359375
1663862596404724000,9.181723876953125,-1.7110748291015625,-0.0096282958984375,2.0065460205078125
1663862596414611700,9.19161181640625,-1.6343841552734375,-0.2951202392578125,2.106689453125
1663862596424469000,9.201468994140624,-1.5299835205078125,-0.4644927978515625,2.22705078125
1663862596434387200,9.21138720703125,-1.377655029296875,-0.5443878173828125,2.333587646484375
1663862596444275000,9.22127490234375,-1.17950439453125,-0.52520751953125,2.3868408203125
1663862596454162400,9.231162353515625,-0.9589996337890625,-0.39312744140625,2.3975067138671875
1663862596464050200,9.24105029296875,-0.7448883056640625,-0.160888671875,2.3602142333984375
1663862596473938000,9.25093798828125,-0.5467376708984375,0.14697265625,2.30694580078125
1663862596483795200,9.260795166015624,-0.3795013427734375,0.4250030517578125,2.3367767333984375
1663862596493683000,9.270682861328124,-0.269775390625,0.5709381103515625,2.4507598876953125
1663862596503570400,9.2805703125,-0.2729644775390625,0.5261993408203125,2.570068359375
1663862596513458200,9.290458251953124,-0.393341064453125,0.3791961669921875,2.618011474609375
1663862596523346000,9.300345947265624,-0.564849853515625,0.2854461669921875,2.535980224609375
1663862596533233700,9.310233642578124,-0.7171783447265625,0.216217041015625,2.3484954833984375
1663862596543121400,9.320121337890624,-0.75872802734375,0.124603271484375,2.1418304443359375
1663862596553009000,9.3300087890625,-0.6969451904296875,-0.049041748046875,2.01507568359375
1663862596562896600,9.339896728515624,-0.5691070556640625,-0.21734619140625,1.93304443359375
1663862596572754000,9.34975390625,-0.3944091796875,-0.18646240234375,1.84356689453125
1663862596582641700,9.3596416015625,-0.2197113037109375,-0.0000457763671875,1.7583465576171875
1663862596592498700,9.369498779296874,-0.0673675537109375,0.19171142578125,1.6880340576171875
1663862596602386400,9.379386474609374,0.0732421875,0.317413330078125,1.634765625
1663862596612274200,9.389274169921874,0.1978759765625,0.3813323974609375,1.57830810546875
1663862596622162000,9.399161865234374,0.2958831787109375,0.337646484375,1.5048065185546875
1663862596632049400,9.40904931640625,0.37896728515625,0.216217041015625,1.432373046875
1663862596641937200,9.418937255859374,0.404541015625,0.136322021484375,1.385498046875
1663862596651825000,9.428824951171874,0.3523406982421875,0.17041015625,1.372711181640625
1663862596661712600,9.438712646484374,0.2948150634765625,0.247100830078125,1.384429931640625
1663862596671600400,9.448600341796874,0.2745819091796875,0.325927734375,1.3940277099609375
1663862596681488000,9.45848779296875,0.2372894287109375,0.3546905517578125,1.4036102294921875
1663862596691345200,9.46834521484375,0.1478118896484375,0.3429718017578125,1.37164306640625
1663862596701233000,9.47823291015625,0.04766845703125,0.2428436279296875,1.2843017578125
1663862596711120600,9.48812060546875,-0.0279541015625,0.110748291015625,1.1756439208984375
1663862596721008400,9.49800830078125,-0.0780181884765625,0.0159454345703125,1.066986083984375
1663862596730896000,9.507895751953125,-0.1366119384765625,-0.013885498046875,0.963653564453125
1663862596740783600,9.51778369140625,-0.2292938232421875,-0.051177978515625,0.9125213623046875
1663862596750641000,9.527640869140624,-0.3315582275390625,-0.0650177001953125,0.9295654296875
1663862596760498000,9.537497802734375,-0.374176025390625,-0.0224151611328125,0.965789794921875
1663862596770385700,9.5473857421875,-0.327301025390625,0.0233917236328125,0.9881591796875
1663862596780273400,9.5572734375,-0.2314300537109375,0.06280517578125,0.9806976318359375
1663862596790161200,9.5671611328125,-0.1398162841796875,0.07452392578125,0.9444732666015625
1663862596800049000,9.577048828125,-0.050323486328125,0.0276641845703125,0.897613525390625
1663862596809936400,9.586936279296875,0.0434112548828125,-0.1342620849609375,0.8869476318359375
1663862596819824000,9.59682421875,0.109466552734375,-0.27593994140625,0.8922882080078125
1663862596829681400,9.606681396484374,0.1126556396484375,-0.207763671875,0.8464813232421875
1663862596839569200,9.616569091796874,0.0689849853515625,-0.0298614501953125,0.7623138427734375
1663862596849456600,9.62645654296875,0.01678466796875,0.10009765625,0.7165069580078125
1663862596859344400,9.636344482421874,-0.0013275146484375,0.1150054931640625,0.734619140625
1663862596869232000,9.646232177734374,0.0114593505859375,-0.0064239501953125,0.768707275390625
1663862596879120000,9.656119873046874,0.0583343505859375,-0.161956787109375,0.79107666015625
1663862596889007600,9.666007568359374,0.1392822265625,-0.274871826171875,0.804931640625
1663862596898895000,9.67589501953125,0.1978759765625,-0.288726806640625,0.8006744384765625
1663862596908782800,9.685782958984374,0.21173095703125,-0.1822052001953125,0.7868194580078125
1663862596918640000,9.69564013671875,0.208526611328125,0.00634765625,0.780426025390625
1663862596928497200,9.7054970703125,0.208526611328125,0.2098236083984375,0.7751007080078125
1663862596938385000,9.715385009765624,0.2245025634765625,0.4345855712890625,0.7271575927734375
1663862596948272600,9.725272705078124,0.264984130859375,0.658294677734375,0.6217041015625
1663862596958160400,9.735160400390624,0.33636474609375,0.78399658203125,0.486419677734375
1663862596968048000,9.745048095703124,0.392822265625,0.712615966796875,0.31170654296875
1663862596977936000,9.754935791015624,0.404541015625,0.444183349609375,0.0656280517578125
1663862596987793000,9.76479296875,0.401336669921875,0.132049560546875,-0.2432861328125
1663862596997680600,9.7746806640625,0.413055419921875,-0.10870361328125,-0.5820465087890625
1663862597007568400,9.784568359375,0.4578094482421875,-0.2684783935546875,-0.920806884765625
1663862597017456000,9.7944560546875,0.504669189453125,-0.354766845703125,-1.2776641845703125
1663862597027343600,9.804343505859375,0.5366363525390625,-0.3984527587890625,-1.6558380126953125
1663862597037231400,9.8142314453125,0.600555419921875,-0.4144287109375,-2.0414581298828125
1663862597047119000,9.824119140625,0.6921539306640625,-0.3047027587890625,-2.460113525390625
1663862597057006800,9.8340068359375,0.7837677001953125,-0.138519287109375,-2.8744964599609375
1663862597066894600,9.84389453125,0.857269287109375,-0.0863189697265625,-3.208984375
1663862597076782000,9.853781982421875,0.91693115234375,-0.2013702392578125,-3.41778564453125
1663862597086639400,9.863639404296874,0.9307861328125,-0.399505615234375,-3.5019378662109375
1663862597096527000,9.873527099609374,0.8860321044921875,-0.5997772216796875,-3.4902191162109375
1663862597106414800,9.883414794921874,0.746490478515625,-0.7595672607421875,-3.4113922119140625
1663862597116302300,9.89330224609375,0.492950439453125,-0.8543853759765625,-3.280364990234375
1663862597126159600,9.90315966796875,0.142486572265625,-0.8405303955078125,-3.108856201171875
1663862597136017000,9.913016845703124,-0.3070526123046875,-0.60723876953125,-2.92669677734375
1663862597145904400,9.922904296875,-0.7885589599609375,-0.3537139892578125,-2.71044921875
1663862597155761700,9.93276171875,-1.1848297119140625,-0.2834014892578125,-2.479278564453125
1663862597165679900,9.942679931640624,-1.441558837890625,-0.356903076171875,-2.3376007080078125
1663862597175537200,9.952537109375,-1.52252197265625,-0.575286865234375,-2.391937255859375
1663862597185424600,9.962424560546875,-1.3893585205078125,-1.0919342041015625,-2.6443939208984375
1663862597195312400,9.9723125,-1.1081390380859375,-1.9185791015625,-3.0257568359375
1663862597205200100,9.9822001953125,-0.745941162109375,-2.71966552734375,-3.428436279296875
1663862597215057400,9.992057373046874,-0.381622314453125,-3.240570068359375,-3.7235107421875
1663862597224975600,10.0019755859375,-0.1057281494140625,-3.445098876953125,-3.8311004638671875
1663862597234832600,10.01183251953125,0.0359649658203125,-3.301300048828125,-3.7501373291015625
1663862597244720400,10.021720458984374,0.06365966796875,-2.8890380859375,-3.529632568359375
1663862597254608100,10.031608154296874,0.041290283203125,-2.441619873046875,-3.2473297119140625
1663862597264495900,10.041495849609374,0.0498046875,-1.973968505859375,-3.015106201171875
1663862597274383600,10.051383544921874,0.105194091796875,-1.4104461669921875,-2.970367431640625
1663862597284240600,10.06124072265625,0.1797637939453125,-0.883148193359375,-3.108856201171875
1663862597294128400,10.07112841796875,0.264984130859375,-0.495391845703125,-3.3304290771484375
1663862597304016100,10.08101611328125,0.37152099609375,-0.1885833740234375,-3.553070068359375
1663862597313903900,10.09090380859375,0.4663238525390625,-0.0543670654296875,-3.6169891357421875
1663862597323791400,10.100791259765625,0.5323638916015625,-0.2727508544921875,-3.3187103271484375
1663862597333679000,10.11067919921875,0.61865234375,-0.6487884521484375,-2.7381439208984375
1663862597343566800,10.12056689453125,0.67510986328125,-0.77874755859375,-2.354644775390625
1663862597353454600,10.13045458984375,0.7432861328125,-0.8288116455078125,-2.2672882080078125
1663862597363342300,10.14034228515625,0.83917236328125,-0.9662322998046875,-2.2332000732421875
1663862597373199400,10.150199462890624,0.894561767578125,-1.1398773193359375,-2.1447906494140625
1663862597383056600,10.160056640625,0.8903045654296875,-1.2847442626953125,-1.999908447265625
1663862597392944400,10.1699443359375,0.8604736328125,-1.362518310546875,-1.8156280517578125
1663862597402862600,10.179862548828124,0.81573486328125,-1.374237060546875,-1.6217498779296875
1663862597412750000,10.18975,0.7379608154296875,-1.383819580078125,-1.3809967041015625
1663862597422607400,10.199607421875,0.5994873046875,-1.4594573974609375,-1.0347900390625
1663862597432464600,10.209464599609374,0.440765380859375,-1.46051025390625,-0.7109375
1663862597442382800,10.2193828125,0.2724456787109375,-1.380615234375,-0.45953369140625
1663862597452270600,10.2292705078125,0.053009033203125,-1.2613067626953125,-0.2411651611328125
1663862597462158000,10.239157958984375,-0.190948486328125,-1.0887451171875,-0.0547332763671875
1663862597472015400,10.249015380859374,-0.4348907470703125,-0.835205078125,0.12847900390625
1663862597481903000,10.258903076171874,-0.6277008056640625,-0.606170654296875,0.30426025390625
1663862597491760000,10.268760009765625,-0.761932373046875,-0.370758056640625,0.4214324951171875
1663862597501648000,10.27864794921875,-0.8791046142578125,-0.0362548828125,0.5141143798828125
1663862597511535600,10.28853564453125,-1.0250396728515625,0.38238525390625,0.6408843994140625
1663862597521453800,10.298453857421874,-1.1986846923828125,0.7190093994140625,0.8006744384765625
1663862597531341600,10.308341552734374,-1.340362548828125,0.8351287841796875,0.977508544921875
1663862597541229300,10.318229248046874,-1.4234619140625,0.6966400146484375,1.1511383056640625
1663862597551086300,10.32808642578125,-1.47991943359375,0.4718780517578125,1.2288970947265625
1663862597560943600,10.337943603515624,-1.45648193359375,0.466552734375,1.133026123046875
1663862597570831400,10.347831298828124,-1.42132568359375,0.6891937255859375,0.9018707275390625
1663862597580718800,10.35771875,-1.5310516357421875,0.693450927734375,0.8645782470703125
1663862597590606600,10.367606689453124,-1.6556854248046875,0.317413330078125,0.8986663818359375
1663862597600494300,10.377494384765624,-1.5150604248046875,0.4974365234375,0.916778564453125
1663862597610382000,10.387382080078124,-1.229583740234375,1.435943603515625,1.4249114990234375
1663862597620269800,10.397269775390624,-1.2231903076171875,1.6340789794921875,1.8488922119140625
1663862597630126800,10.407126953125,-1.5768585205078125,1.158966064453125,1.7125396728515625
1663862597640045000,10.417045166015624,-1.61627197265625,0.8670806884765625,1.5452880859375
1663862597649932800,10.426932861328124,-1.3552703857421875,0.9139556884765625,1.6092071533203125
1663862597659820500,10.436820556640624,-0.8205108642578125,0.8479156494140625,1.5953521728515625
1663862597669677600,10.446677490234375,-0.0918731689453125,0.576263427734375,1.341827392578125
1663862597679534800,10.456534912109374,-0.0748291015625,0.2172698974609375,1.1639251708984375
1663862597689453000,10.466453125,-0.073760986328125,-0.196044921875,1.2193145751953125
1663862597699340800,10.4763408203125,0.1041412353515625,-0.25250244140625,1.3365020751953125
1663862597709228500,10.486228515625,0.241546630859375,-0.00537109375,1.5048065185546875
1663862597719116300,10.4961162109375,0.4343719482421875,0.260955810546875,1.681640625
1663862597728973300,10.505973388671874,0.690032958984375,0.396240234375,1.83929443359375
1663862597738861000,10.515861083984374,0.835968017578125,0.371734619140625,2.0310516357421875
1663862597748718300,10.52571826171875,0.6836395263671875,0.108612060546875,2.44757080078125
1663862597758636500,10.535636474609374,0.4663238525390625,0.0052947998046875,2.83319091796875
1663862597768524000,10.54552392578125,0.09881591796875,-0.0064239501953125,2.7927093505859375
1663862597778411800,10.555411865234374,-0.1280975341796875,0.2950439453125,2.2334442138671875
1663862597788299500,10.565299560546874,-0.0801544189453125,0.444183349609375,1.73809814453125
1663862597798187300,10.575187255859374,-0.07696533203125,0.3429718017578125,1.70294189453125
1663862597808075000,10.585074951171874,-0.2197113037109375,0.349365234375,1.9351806640625
1663862597817962500,10.59496240234375,-0.281494140625,0.465484619140625,2.0630035400390625
1663862597827819800,10.60481982421875,-0.2420806884765625,0.4814605712890625,2.071533203125
1663862597837707500,10.61470751953125,-0.2058563232421875,0.279052734375,2.15142822265625
1663862597847595300,10.62459521484375,-0.187744140625,0.0340423583984375,2.3836517333984375
1663862597857482800,10.634482666015625,-0.1057281494140625,0.03192138671875,2.594573974609375
1663862597867340000,10.644340087890624,-0.0918731689453125,0.2897186279296875,2.6595611572265625
1663862597877227800,10.654227783203124,-0.1387481689453125,0.6689453125,2.5327911376953125
1663862597887115500,10.664115478515624,0.109466552734375,0.7435150146484375,2.1546173095703125
1663862597897003000,10.6740029296875,0.5760498046875,0.1160736083984375,2.0289154052734375
1663862597906890800,10.683890869140624,0.74542236328125,-0.220550537109375,2.036376953125
1663862597916778500,10.693778564453124,0.52703857421875,-0.220550537109375,1.9500885009765625
1663862597926635800,10.7036357421875,0.2703094482421875,-0.518829345703125,2.1301116943359375
1663862597936523500,10.7135234375,-0.141937255859375,-0.80218505859375,2.5093536376953125
1663862597946411000,10.723410888671875,-0.6372833251953125,-0.8309478759765625,2.79058837890625
1663862597956298800,10.733298828125,-0.9238433837890625,-0.5124359130859375,2.84490966796875
1663862597966186500,10.7431865234375,-0.882293701171875,0.190643310546875,2.6009674072265625
1663862597976074200,10.75307421875,-0.395477294921875,0.9970550537109375,2.011871337890625
1663862597985962000,10.7629619140625,-0.0034637451171875,1.0993194580078125,1.4131927490234375
1663862597995819000,10.772819091796874,-0.186676025390625,0.453765869140625,1.1990814208984375
1663862598005706800,10.782706787109374,-0.4902801513671875,-0.0714111328125,1.2906951904296875
1663862598015594500,10.792594482421874,-0.6500701904296875,-0.173675537109375,1.405731201171875
1663862598025482200,10.802482177734374,-0.7960205078125,-0.197113037109375,1.4014739990234375
1663862598035369700,10.81236962890625,-0.9462127685546875,-0.359039306640625,1.326904296875
1663862598045257500,10.822257568359374,-1.01971435546875,-0.6029815673828125,1.2193145751953125
1663862598055114800,10.83211474609375,-0.99627685546875,-0.789398193359375,1.0605926513671875
1663862598064971800,10.8419716796875,-1.04315185546875,-0.6114959716796875,0.7751007080078125
1663862598074829000,10.8518291015625,-1.229583740234375,-0.3270721435546875,0.587615966796875
1663862598084747300,10.861747314453124,-1.5608673095703125,0.1182098388671875,0.519439697265625
1663862598094604500,10.8716044921875,-1.920928955078125,0.7797393798828125,0.474700927734375
1663862598104522800,10.881522705078124,-2.2820587158203125,1.59466552734375,0.4342193603515625
1663862598114410200,10.89141015625,-2.615478515625,2.378692626953125,0.3532562255859375
1663862598124298000,10.901298095703124,-2.7965850830078125,2.906005859375,0.0773468017578125
1663862598134185700,10.911185791015624,-2.9318695068359375,2.8292999267578125,-0.312530517578125
1663862598144073500,10.921073486328124,-3.1065673828125,2.371246337890625,-0.6523590087890625
1663862598153961200,10.930961181640624,-3.1459808349609375,2.03887939453125,-0.906951904296875
1663862598163818200,10.940818359375,-2.8455810546875,2.2689666748046875,-0.9325103759765625
1663862598173675500,10.950675537109374,-2.4524993896484375,3.1052093505859375,-0.7429046630859375
1663862598183563300,10.960563232421874,-2.2650146484375,3.5462188720703125,-0.543701171875
1663862598193451000,10.970450927734374,-2.193634033203125,3.3683319091796875,-0.31573486328125
1663862598203308000,10.98030810546875,-2.0200042724609375,3.1723175048828125,0.040069580078125
1663862598213226200,10.990226318359374,-1.9038848876953125,3.473785400390625,0.620635986328125
1663862598223083500,11.00008349609375,-1.8506317138671875,4.2791290283203125,1.1617889404296875
1663862598232971300,11.00997119140625,-1.4735260009765625,4.4367828369140625,1.54315185546875
1663862598242858800,11.019858642578125,-0.576568603515625,3.3310394287109375,1.46539306640625
1663862598252746500,11.02974658203125,0.4300994873046875,1.1312713623046875,0.9700469970703125
1663862598262634200,11.03963427734375,0.7976226806640625,-0.20989990234375,0.827301025390625
1663862598272522000,11.04952197265625,0.8860321044921875,2.6993408203125,2.00335693359375
1663862598282409700,11.05940966796875,1.2887115478515625,7.0285797119140625,3.6044464111328125
1663862598292297200,11.069297119140625,0.99896240234375,7.8957061767578125,4.6270904541015625
1663862598302185000,11.07918505859375,0.3203887939453125,7.03070068359375,4.9029998779296875
1663862598312072700,11.08907275390625,0.404541015625,5.7172393798828125,4.6047210693359375
1663862598321960400,11.09896044921875,1.3792572021484375,5.7971343994140625,4.16796875
1663862598331848200,11.10884814453125,1.8714141845703125,7.3705291748046875,3.7621002197265625
1663862598341705200,11.118705322265624,2.196319580078125,7.02325439453125,2.904571533203125
1663862598351593000,11.128593017578124,2.4860687255859375,4.4410552978515625,1.694427490234375
1663862598361480700,11.138480712890624,2.8844757080078125,2.2274322509765625,1.1745758056640625
1663862598371368400,11.148368408203124,3.1784820556640625,1.2111663818359375,1.3226470947265625
1663862598381225500,11.1582255859375,3.33721923828125,1.38800048828125,1.4941558837890625
1663862598391113200,11.16811328125,3.300994873046875,2.24554443359375,2.0960235595703125
1663862598400970500,11.177970458984374,3.063446044921875,2.667388916015625,3.1783447265625
1663862598410827500,11.18782763671875,2.9505157470703125,3.0615234375,4.2286834716796875
1663862598420715300,11.19771533203125,3.13055419921875,3.16485595703125,4.88702392578125
1663862598430603000,11.20760302734375,3.232818603515625,2.6567230224609375,5.2396240234375
1663862598440521200,11.217521240234374,3.06982421875,2.255126953125,5.46759033203125
1663862598450409000,11.227408935546874,2.7236175537109375,2.952880859375,5.694488525390625
1663862598460266000,11.237265869140625,2.6959228515625,4.0394439697265625,5.5176544189453125
1663862598470153700,11.24715380859375,2.63946533203125,4.1065521240234375,4.9733123779296875
1663862598480011000,11.257010986328124,2.3688812255859375,3.1478118896484375,4.1945953369140625
1663862598489929200,11.26692919921875,2.0567626953125,1.7789459228515625,3.3636932373046875
1663862598499817000,11.27681689453125,1.6540985107421875,0.2758636474609375,2.8544921875
1663862598509704400,11.286704345703125,1.0000152587890625,-0.9364013671875,2.820404052734375
1663862598519592200,11.29659228515625,0.2479400634765625,-1.2645111083984375,3.2017669677734375
1663862598529480000,11.30647998046875,-0.51904296875,-0.7041778564453125,3.915496826171875
1663862598539367700,11.31636767578125,-1.4170684814453125,0.636993408203125,4.92962646484375
1663862598549224700,11.326224609375,-2.3353271484375,2.0101165771484375,5.8755950927734375
1663862598559112400,11.336112548828124,-3.2162933349609375,1.4178314208984375,6.59783935546875
1663862598569000200,11.346000244140624,-4.34014892578125,-0.9683685302734375,7.2433929443359375
1663862598578888000,11.355887939453124,-5.5449676513671875,-3.287445068359375,7.5746917724609375
1663862598588775700,11.365775634765624,-6.6698760986328125,-5.0270233154296875,7.648193359375
1663862598598663200,11.3756630859375,-7.8597869873046875,-6.376708984375,7.52142333984375
1663862598608551000,11.385551025390624,-9.079513549804688,-7.3077545166015625,7.055908203125
1663862598618408200,11.395408203125,-10.330123901367188,-7.7061614990234375,6.264404296875
1663862598628296000,11.4052958984375,-11.714981079101562,-7.348236083984375,5.3727874755859375
1663862598638153000,11.415153076171874,-12.964523315429688,-6.4076080322265625,4.4566497802734375
1663862598648010200,11.42501025390625,-13.718734741210938,-5.191070556640625,3.4744873046875
1663862598657898000,11.43489794921875,-13.831649780273438,-4.072540283203125,2.6435699462890625
1663862598667785700,11.44478564453125,-13.334182739257812,-3.1851806640625,2.1556854248046875
1663862598677673200,11.454673095703125,-12.446807861328125,-2.2754364013671875,1.9820404052734375
1663862598687530500,11.464530517578124,-11.433746337890625,-1.4434661865234375,2.101348876953125
1663862598697418200,11.474418212890624,-10.176727294921875,-1.861053466796875,2.3399810791015625
1663862598707336400,11.48433642578125,-8.590560913085938,-2.810211181640625,2.7650146484375
1663862598717224200,11.49422412109375,-7.1045074462890625,-3.19476318359375,3.6140289306640625
1663862598727111700,11.504111572265625,-5.9412384033203125,-2.41180419921875,4.9860992431640625
1663862598736999400,11.51399951171875,-4.83123779296875,-1.4935455322265625,6.5232696533203125
1663862598746887200,11.52388720703125,-3.50604248046875,-1.1398773193359375,7.79412841796875
1663862598756775000,11.53377490234375,-2.207489013671875,-0.3419952392578125,8.55792236328125
1663862598766662700,11.54366259765625,-1.3648681640625,1.6916046142578125,8.874313354492188
1663862598776550100,11.553550048828125,-0.8801727294921875,3.6048126220703125,8.678298950195312
1663862598786438000,11.56343798828125,-0.4796295166015625,2.1486053466796875,7.487335205078125
1663862598796295200,11.573295166015624,-0.4902801513671875,-0.8874053955078125,6.2260589599609375
1663862598806183000,11.583182861328124,-0.6309051513671875,-2.1763763427734375,5.5091400146484375
1663862598816070400,11.5930703125,-0.68096923828125,-1.9942169189453125,5.036163330078125
1663862598825927700,11.602927734375,-0.6532745361328125,-1.5585174560546875,4.5514678955078125
1663862598835815400,11.6128154296875,-0.414642333984375,-1.313507080078125,3.964508056640625
1663862598845703200,11.622703125,-0.1025238037109375,-1.062103271484375,3.2848663330078125
1663862598855590700,11.632590576171875,0.1914825439453125,-0.6924591064453125,2.51361083984375
1663862598865478400,11.642478515625,0.4524688720703125,-0.0831298828125,1.668853759765625
1663862598875335700,11.652335693359374,0.6729888916015625,0.818084716796875,0.8997344970703125
1663862598885223400,11.662223388671874,0.8487548828125,1.96856689453125,0.2509918212890625
1663862598895080400,11.67208056640625,0.892425537109375,3.5270538330078125,-0.199615478515625
1663862598904968200,11.68196826171875,1.043701171875,4.434661865234375,-0.6033477783203125
1663862598914825500,11.691825439453124,1.176849365234375,4.5763397216796875,-1.055023193359375
1663862598924743700,11.70174365234375,1.1843109130859375,4.4879150390625,-1.55462646484375
1663862598934600700,11.7116005859375,1.1044158935546875,4.0959014892578125,-2.013763427734375
1663862598944519000,11.721518798828125,0.94036865234375,3.358734130859375,-2.260894775390625
1663862598954376200,11.731376220703124,0.789093017578125,2.1571197509765625,-2.220428466796875
1663862598964233500,11.7412333984375,0.8540802001953125,0.8585662841796875,-1.900848388671875
1663862598974121000,11.751120849609375,1.1214599609375,0.3909149169921875,-1.32879638671875
1663862598984008700,11.7610087890625,1.26953125,0.81915283203125,-0.6736602783203125
1663862598993896400,11.770896484375,1.212005615234375,1.47003173828125,-0.0664520263671875
1663862599003784200,11.7807841796875,1.13531494140625,1.880157470703125,0.4683074951171875
1663862599013672000,11.790671875,1.108673095703125,1.9312896728515625,0.87310791015625
1663862599023559400,11.800559326171875,1.089508056640625,1.6884002685546875,1.1309051513671875
1663862599033468000,11.810468017578126,1.0586090087890625,1.48175048828125,1.291748046875
1663862599043325200,11.8203251953125,1.031982421875,1.457244873046875,1.3918914794921875
1663862599053243400,11.830243408203126,1.0000152587890625,1.4838714599609375,1.410003662109375
1663862599063131100,11.840131103515626,0.9318389892578125,1.4029083251953125,1.315185546875
1663862599072979000,11.84997900390625,0.871124267578125,1.2814788818359375,1.1415557861328125
1663862599082866700,11.85986669921875,0.8860321044921875,1.205841064453125,0.9018707275390625
1663862599092754200,11.869754150390625,0.9201202392578125,1.207977294921875,0.55352783203125
1663862599102642000,11.879641845703125,0.9222564697265625,1.332611083984375,0.117828369140625
1663862599112529700,11.88952978515625,0.8988189697265625,1.568023681640625,-0.2763214111328125
1663862599122417400,11.89941748046875,0.8785858154296875,1.821563720703125,-0.56500244140625
1663862599132305200,11.90930517578125,0.8977508544921875,1.9323577880859375,-0.745025634765625
1663862599142192600,11.919192626953125,0.9467620849609375,1.8290252685546875,-0.8185272216796875
1663862599152080400,11.929080322265625,1.02984619140625,1.548858642578125,-0.7844390869140625
1663862599161968000,11.938968017578125,1.155548095703125,1.23779296875,-0.6587371826171875
1663862599171856000,11.94885595703125,1.3014984130859375,0.99810791015625,-0.4893646240234375
1663862599181713200,11.958713134765626,1.4037628173828125,0.8585662841796875,-0.349822998046875
1663862599191600600,11.9686005859375,1.430389404296875,0.8106231689453125,-0.2869720458984375
1663862599201458000,11.9784580078125,1.406951904296875,0.862823486328125,-0.305084228515625
1663862599211345700,11.988345703125,1.3473052978515625,0.9949188232421875,-0.3977508544921875
1663862599221233400,11.9982333984375,1.2524871826171875,1.1302032470703125,-0.5703277587890625
1663862599231121000,12.008120849609375,1.1512908935546875,1.2910614013671875,-0.7780609130859375
1663862599241008600,12.018008544921875,1.0841827392578125,1.435943603515625,-0.9474334716796875
1663862599250896400,12.027896484375,1.031982421875,1.50091552734375,-1.041168212890625
1663862599260784000,12.0377841796875,0.9446258544921875,1.466827392578125,-1.052886962890625
1663862599270672000,12.047671875,0.81573486328125,1.3688201904296875,-1.0230712890625
1663862599280559400,12.057559326171875,0.67724609375,1.2559051513671875,-1.007080078125
1663862599290447000,12.067447021484375,0.5898895263671875,1.2090301513671875,-0.9996337890625
1663862599300304400,12.077304443359376,0.5696563720703125,1.238861083984375,-0.99749755859375
1663862599310192000,12.087192138671876,0.586700439453125,1.2346038818359375,-1.010284423828125
1663862599320079600,12.09707958984375,0.6112060546875,1.123809814453125,-1.05609130859375
1663862599329967400,12.10696728515625,0.6399688720703125,0.968292236328125,-1.1434326171875
1663862599339855000,12.116855224609376,0.6953582763671875,0.864959716796875,-1.247833251953125
1663862599349742800,12.126742919921876,0.7550048828125,0.862823486328125,-1.3074951171875
1663862599359599900,12.136599853515625,0.802947998046875,0.9224853515625,-1.34051513671875
1663862599369487600,12.146487548828125,0.8455657958984375,0.9459228515625,-1.365020751953125
1663862599379375400,12.156375244140625,0.8764495849609375,0.9469757080078125,-1.384185791015625
1663862599389232600,12.166232666015626,0.8988189697265625,0.88519287109375,-1.395904541015625
1663862599399120100,12.1761201171875,0.9339752197265625,0.7317962646484375,-1.3543548583984375
1663862599409007900,12.1860078125,0.995758056640625,0.7072906494140625,-1.1967010498046875
1663862599418895600,12.1958955078125,1.0511474609375,0.8585662841796875,-0.9485015869140625
1663862599428783400,12.205783447265626,1.063934326171875,1.010894775390625,-0.6715240478515625
1663862599438640600,12.215640625,1.01068115234375,1.0620269775390625,-0.413726806640625
1663862599448497700,12.22549755859375,0.929718017578125,1.0748138427734375,-0.178314208984375
1663862599458415900,12.235415771484375,0.87005615234375,1.013031005859375,0.030487060546875
1663862599468273200,12.245273193359376,0.83917236328125,0.7989044189453125,0.2147674560546875
1663862599478130200,12.255130126953125,0.8423614501953125,0.6636199951171875,0.4150390625
1663862599488018000,12.265017822265625,0.85089111328125,0.6412506103515625,0.6185150146484375
1663862599497936100,12.27493603515625,0.828521728515625,0.5954437255859375,0.77935791015625
1663862599507823900,12.284823974609376,0.7667236328125,0.5261993408203125,0.8432769775390625
1663862599517711600,12.294711669921876,0.666595458984375,0.498504638671875,0.74847412109375
1663862599527599400,12.304599365234376,0.5920257568359375,0.5709381103515625,0.5631103515625
1663862599537486800,12.31448681640625,0.551544189453125,0.6774749755859375,0.338348388671875
1663862599547374600,12.32437451171875,0.5099945068359375,0.736053466796875,0.096527099609375
1663862599557262300,12.334262451171876,0.4705810546875,0.7211456298828125,-0.105865478515625
1663862599567119600,12.34411962890625,0.426910400390625,0.6029052734375,-0.2486114501953125
1663862599577007000,12.354007080078125,0.370452880859375,0.4612274169921875,-0.34661865234375
1663862599586864400,12.363864501953126,0.313995361328125,0.33978271484375,-0.41693115234375
1663862599596752100,12.373752197265626,0.245819091796875,0.291839599609375,-0.47552490234375
1663862599606639900,12.383639892578126,0.2064056396484375,0.260955810546875,-0.47552490234375
1663862599616527400,12.39352734375,0.1573944091796875,0.1938323974609375,-0.4584808349609375
1663862599626415000,12.4034150390625,0.1147918701171875,0.06707763671875,-0.402008056640625
1663862599636302800,12.413302734375,0.0924224853515625,-0.0117645263671875,-0.2954864501953125
1663862599646190600,12.423190673828126,0.0924224853515625,-0.084197998046875,-0.15380859375
1663862599656078300,12.433078369140626,0.107330322265625,-0.196044921875,0.0251617431640625
1663862599665966000,12.442966064453126,0.116912841796875,-0.231201171875,0.2275543212890625
1663862599675853600,12.452853515625,0.093475341796875,-0.184326171875,0.404388427734375
1663862599685710800,12.4627109375,0.0455474853515625,-0.138519287109375,0.5236968994140625
1663862599695568100,12.472568115234376,0.006134033203125,-0.10443115234375,0.5918731689453125
1663862599705455600,12.48245556640625,-0.0098419189453125,-0.046905517578125,0.630218505859375
1663862599715343400,12.49234326171875,-0.0162353515625,0.0159454345703125,0.6451416015625
1663862599725200600,12.50220068359375,-0.0322265625,0.019134521484375,0.608917236328125
1663862599735088400,12.51208837890625,-0.054595947265625,-0.070343017578125,0.5141143798828125
1663862599744976000,12.521975830078125,-0.0695037841796875,-0.2269439697265625,0.383087158203125
1663862599754863600,12.531863525390625,-0.08868408203125,-0.38140869140625,0.2179718017578125
1663862599764721000,12.541720947265626,-0.11212158203125,-0.4772796630859375,0.0336761474609375
1663862599774608600,12.551608642578126,-0.1366119384765625,-0.4666290283203125,-0.1346282958984375
1663862599784526800,12.56152685546875,-0.1600494384765625,-0.3142852783203125,-0.244354248046875
1663862599794384000,12.5713837890625,-0.16644287109375,-0.0746002197265625,-0.2635345458984375
1663862599804271600,12.581271728515626,-0.1472625732421875,0.155487060546875,-0.178314208984375
1663862599814159400,12.591159423828126,-0.11956787109375,0.3216705322265625,-0.01531982421875
1663862599824047000,12.601047119140626,-0.10784912109375,0.38665771484375,0.1721649169921875
1663862599833904000,12.610904052734375,-0.10784912109375,0.3440399169921875,0.336212158203125
1663862599843822300,12.620822265625,-0.108917236328125,0.2087554931640625,0.449127197265625
1663862599853679600,12.6306796875,-0.106781005859375,0.02020263671875,0.4928131103515625
1663862599863567400,12.6405673828125,-0.1014556884765625,-0.164093017578125,0.48321533203125
1663862599873424400,12.65042431640625,-0.08441162109375,-0.2834014892578125,0.439544677734375
1663862599883342600,12.660342529296875,-0.054595947265625,-0.3079071044921875,0.3756256103515625
1663862599893230300,12.670230224609375,-0.0162353515625,-0.2695465087890625,0.2957305908203125
1663862599903118000,12.6801181640625,0.01678466796875,-0.2045745849609375,0.1956024169921875
1663862599913005800,12.690005859375,0.050872802734375,-0.1417236328125,0.0773468017578125
1663862599922862800,12.69986279296875,0.08709716796875,-0.1012420654296875,-0.0366363525390625
1663862599932750600,12.70975048828125,0.1083984375,-0.082061767578125,-0.13250732421875
1663862599942638300,12.719638427734376,0.0881500244140625,-0.09698486328125,-0.223052978515625
1663862599952495600,12.72949560546875,0.017852783203125,-0.1140289306640625,-0.3199920654296875
1663862599962413800,12.739413818359376,-0.0705718994140625,-0.0106964111328125,-0.4190673828125
1663862599972270800,12.749270751953125,-0.141937255859375,0.2321929931640625,-0.5234527587890625
1663862599982158600,12.75915869140625,-0.200531005859375,0.599700927734375,-0.63104248046875
1663862599992046300,12.76904638671875,-0.23675537109375,0.8212738037109375,-0.7407684326171875
1663862600001903400,12.7789033203125,-0.222900390625,0.7648162841796875,-0.8206634521484375
1663862600011821600,12.788821533203125,-0.1824188232421875,0.6657562255859375,-0.848358154296875
1663862600021709300,12.798709228515625,-0.155792236328125,0.6891937255859375,-0.80682373046875
1663862600031566600,12.808566650390626,-0.132354736328125,0.8287353515625,-0.690704345703125
1663862600041454300,12.818454345703126,-0.1483306884765625,0.9480438232421875,-0.5745849609375
1663862600051341800,12.828341796875,-0.199462890625,0.98638916015625,-0.4765777587890625
1663862600061229600,12.8382294921875,-0.2314300537109375,0.919281005859375,-0.361541748046875
1663862600071086800,12.8480869140625,-0.2495269775390625,0.6977081298828125,-0.2507476806640625
1663862600081005000,12.858005126953126,-0.254852294921875,0.3696136474609375,-0.1591339111328125
1663862600090892800,12.867892822265626,-0.23248291015625,0.075592041015625,-0.0909576416015625
1663862600100780300,12.8777802734375,-0.1472625732421875,-0.0778045654296875,-0.0099945068359375
1663862600110637600,12.887637451171875,-0.038604736328125,0.06280517578125,0.0880126953125
1663862600120494800,12.897494873046876,0.0380859375,0.325927734375,0.1710968017578125
1663862600130413000,12.9074130859375,0.0700531005859375,0.512359619140625,0.2190399169921875
1663862600140300800,12.91730078125,0.00506591796875,0.6838531494140625,0.33514404296875
1663862600150188300,12.927188232421875,-0.152587890625,0.5741424560546875,0.3330230712890625
1663862600160076000,12.937075927734375,-0.304931640625,0.282257080078125,0.186004638671875
1663862600169963800,12.9469638671875,-0.3475341796875,0.2641448974609375,0.0688323974609375
1663862600179821000,12.956821044921876,-0.3070526123046875,0.3419036865234375,0.0091705322265625
1663862600189708500,12.96670849609375,-0.2644500732421875,0.3099517822265625,-0.03131103515625
1663862600199596300,12.97659619140625,-0.222900390625,0.22686767578125,-0.061126708984375
1663862600209453600,12.98645361328125,-0.1834869384765625,0.225799560546875,-0.1154632568359375
1663862600219341300,12.99634130859375,-0.1291656494140625,0.1938323974609375,-0.2432861328125
1663862600229228800,13.006228759765625,-0.06524658203125,0.0457611083984375,-0.3519439697265625
1663862600239086000,13.016086181640626,0.0466156005859375,0.04364013671875,-0.24755859375
1663862600248973800,13.025973876953126,0.20001220703125,0.1831817626953125,-0.039825439453125
1663862600258892000,13.03589208984375,0.2585906982421875,0.2098236083984375,0.0091705322265625
