time,seconds_elapsed,z,y,x
1663862587471078400,0.248078369140625,-0.7673797607421875,0.240997314453125,0.1720733642578125
1663862587480996600,0.25799658203125,-0.796142578125,0.1866607666015625,0.061279296875
1663862587490914800,0.267914794921875,-0.84832763671875,-0.01361083984375,0.0069580078125
1663862587500772000,0.277772216796875,-0.9048004150390625,-0.2138824462890625,0.050628662109375
1663862587510629400,0.28762939453125,-0.8920135498046875,-0.341705322265625,0.15289306640625
1663862587520486400,0.297486328125,-0.736480712890625,-0.4492950439453125,0.28924560546875
1663862587530404600,0.307404541015625,-0.5138397216796875,-0.4503631591796875,0.4660797119140625
1663862587540262000,0.317261962890625,-0.2624359130859375,-0.3374481201171875,0.621612548828125
1663862587550149600,0.327149658203125,0.0496826171875,-0.2682037353515625,0.6833953857421875
1663862587560037000,0.337037109375,0.356475830078125,-0.2799224853515625,0.6503753662109375
1663862587569924900,0.3469248046875,0.5002899169921875,-0.2895050048828125,0.588592529296875
1663862587579812600,0.3568125,0.3863067626953125,-0.35662841796875,0.5150909423828125
1663862587589670000,0.366669921875,0.0848388671875,-0.3704681396484375,0.407501220703125
1663862587599588000,0.376588134765625,-0.1388702392578125,-0.217071533203125,0.292449951171875
1663862587609475600,0.3864755859375,-0.0834808349609375,-0.023193359375,0.213623046875
1663862587619363300,0.39636328125,0.2297210693359375,0.112091064453125,0.175262451171875
1663862587629251000,0.4062509765625,0.5120086669921875,-0.151031494140625,0.1827239990234375
1663862587639138800,0.416138916015625,0.47259521484375,-0.6346588134765625,0.2391815185546875
1663862587649026600,0.426026611328125,0.1562042236328125,-0.96807861328125,0.302032470703125
1663862587658883600,0.435883544921875,-0.146331787109375,-0.9180145263671875,0.3542327880859375
1663862587668771300,0.445771240234375,-0.1995849609375,-0.4205322265625,0.31268310546875
1663862587678659000,0.4556591796875,-0.031280517578125,0.0780029296875,0.1390533447265625
1663862587688546800,0.465546875,0.1498260498046875,0.1760101318359375,-0.0228729248046875
1663862587698434600,0.4754345703125,0.16259765625,-0.226654052734375,-0.0100860595703125
1663862587708322000,0.485322021484375,0.0656585693359375,-0.957427978515625,0.1848602294921875
1663862587718179300,0.495179443359375,0.06353759765625,-1.768096923828125,0.4660797119140625
1663862587728067000,0.505067138671875,0.121063232421875,-2.257049560546875,0.6578369140625
1663862587737954800,0.514954833984375,0.0848388671875,-2.3305511474609375,0.6844635009765625
1663862587747842300,0.52484228515625,0.0560760498046875,-2.2751617431640625,0.5832672119140625
1663862587757730000,0.53472998046875,0.1157379150390625,-2.009918212890625,0.44158935546875
1663862587767617800,0.54461767578125,0.2638092041015625,-1.6807403564453125,0.2881927490234375
1663862587777475000,0.55447509765625,0.46087646484375,-1.803253173828125,0.22320556640625
1663862587787368000,0.564367919921875,0.7122802734375,-2.454132080078125,0.1145477294921875
1663862587797225200,0.57422509765625,1.0723419189453125,-3.5193939208984375,-0.024993896484375
1663862587807113000,0.584113037109375,1.408966064453125,-4.69012451171875,-0.15283203125
1663862587817000700,0.594000732421875,1.6731414794921875,-5.9801483154296875,-0.2391204833984375
1663862587826888200,0.60388818359375,1.772216796875,-7.47259521484375,-0.1453704833984375
1663862587836745500,0.613745361328125,1.5634307861328125,-8.702972412109375,0.1007080078125
1663862587846633200,0.62363330078125,1.0840606689453125,-9.235595703125,0.4085693359375
1663862587856521000,0.63352099609375,0.619598388671875,-8.741317749023438,0.898590087890625
1663862587866408400,0.643408447265625,0.57379150390625,-6.7684478759765625,1.671966552734375
1663862587876296200,0.653296142578125,1.3546295166015625,-4.1244659423828125,2.753204345703125
1663862587886184000,0.663183837890625,2.8726348876953125,-2.14306640625,3.848297119140625
1663862587896071700,0.67307177734375,4.293701171875,-0.6548919677734375,4.4927825927734375
1663862587905959400,0.68295947265625,5.2247314453125,0.0939788818359375,4.65789794921875
1663862587915847200,0.69284716796875,5.6338043212890625,-0.3949737548828125,4.3787994384765625
1663862587925734700,0.702734619140625,5.1672210693359375,-3.1742401123046875,3.0003509521484375
1663862587935622400,0.712622314453125,4.3895721435546875,-5.9364776611328125,1.2693023681640625
1663862587945479700,0.722479736328125,4.4705352783203125,-6.035552978515625,0.9603729248046875
1663862587955367400,0.732367431640625,5.1320648193359375,-4.425933837890625,1.4706268310546875
1663862587965255000,0.7422548828125,5.7104949951171875,-2.828033447265625,1.4951324462890625
1663862587975142700,0.752142578125,6.0758819580078125,-2.259185791015625,0.96356201171875
1663862587985030400,0.762030517578125,6.33154296875,-2.280487060546875,0.7313385009765625
1663862587994887700,0.7718876953125,6.3528594970703125,-2.16436767578125,1.159576416015625
1663862588004775200,0.781775146484375,6.1131744384765625,-2.0589141845703125,1.714569091796875
1663862588014663000,0.791662841796875,5.8255462646484375,-2.029083251953125,1.99261474609375
1663862588024550700,0.801550537109375,5.63592529296875,-1.930023193359375,2.0767669677734375
1663862588034438400,0.8114384765625,5.48785400390625,-1.7606353759765625,2.20672607421875
1663862588044326100,0.821326171875,5.29718017578125,-1.70098876953125,2.437896728515625
1663862588054183200,0.83118310546875,4.88385009765625,-1.7989959716796875,2.7255096435546875
1663862588064071000,0.84107080078125,4.1733245849609375,-1.96197509765625,2.95135498046875
1663862588073958700,0.850958740234375,3.3232421875,-1.8906097412109375,3.0035400390625
1663862588083846400,0.860846435546875,2.4848785400390625,-1.3430633544921875,2.962005615234375
1663862588093734000,0.87073388671875,1.6742095947265625,-0.4514312744140625,2.7968902587890625
1663862588103591200,0.880591064453125,0.917877197265625,0.28680419921875,2.548675537109375
1663862588113479000,0.89047900390625,0.231842041015625,0.546722412109375,2.311126708984375
1663862588123366700,0.90036669921875,-0.4254302978515625,0.3272857666015625,2.0991363525390625
1663862588133254100,0.910254150390625,-0.96337890625,-0.0753936767578125,1.7923431396484375
1663862588143142000,0.920141845703125,-1.248870849609375,-0.128662109375,1.2330780029296875
1663862588153029600,0.930029541015625,-1.3351593017578125,0.0311279296875,0.5715484619140625
1663862588162887000,0.939886962890625,-1.354339599609375,0.100372314453125,0.177398681640625
1663862588172774700,0.949774658203125,-1.237152099609375,-0.1797943115234375,0.008026123046875
1663862588182662100,0.959662109375,-0.783355712890625,-0.7720794677734375,-0.24444580078125
1663862588192519400,0.96951953125,-0.118621826171875,-1.38140869140625,-0.64178466796875
1663862588202407200,0.9794072265625,0.25421142578125,-1.8511810302734375,-0.68865966796875
1663862588212295000,0.989294921875,0.208404541015625,-1.9790191650390625,-0.4202117919921875
1663862588222182400,0.999182373046875,0.041168212890625,-1.528411865234375,-0.189056396484375
1663862588232070100,1.009070068359375,-0.1580352783203125,-0.9403839111328125,-0.1933135986328125
1663862588241958000,1.0189580078125,-0.1516571044921875,-0.914825439453125,-0.7419281005859375
1663862588251845600,1.028845703125,0.151947021484375,-0.7252044677734375,-1.225555419921875
1663862588261733400,1.0387333984375,0.3415679931640625,-0.650634765625,-1.4119720458984375
1663862588271620900,1.048620849609375,0.2936248779296875,-0.433319091796875,-0.348846435546875
1663862588281478100,1.05847802734375,-0.2933349609375,-0.7571563720703125,1.295928955078125
1663862588291366000,1.068365966796875,-0.9015960693359375,-1.65411376953125,2.037353515625
1663862588301253600,1.078253662109375,-1.0134429931640625,-1.7457275390625,1.8498687744140625
1663862588311141000,1.08814111328125,-0.8547210693359375,-1.1225433349609375,1.1158905029296875
1663862588321028900,1.09802880859375,-0.814239501953125,-0.62506103515625,0.47247314453125
1663862588330886100,1.10788623046875,-0.8440704345703125,-0.5899200439453125,0.2647552490234375
1663862588340743200,1.1177431640625,-0.5372772216796875,-0.8690185546875,0.1518402099609375
1663862588350631000,1.127630859375,0.3202667236328125,-1.1417236328125,0.0122833251953125
1663862588360518700,1.1375185546875,1.7295989990234375,-1.1768798828125,0.07513427734375
1663862588370376000,1.1473759765625,2.683013916015625,-2.428558349609375,0.6173553466796875
1663862588380263400,1.157263427734375,3.439361572265625,-3.3606719970703125,0.9486541748046875
1663862588390151200,1.167151123046875,4.2628021240234375,-3.124176025390625,0.6152191162109375
1663862588400039000,1.177038818359375,4.87213134765625,-2.2772979736328125,0.119873046875
1663862588409926700,1.1869267578125,5.0489654541015625,-1.0767364501953125,-0.3062286376953125
1663862588419783700,1.19678369140625,4.896636962890625,-0.7241363525390625,-0.61090087890625
1663862588429671400,1.20667138671875,4.473724365234375,-1.4304046630859375,-0.541656494140625
1663862588439589600,1.216589599609375,3.8889007568359375,-2.666107177734375,-0.372283935546875
1663862588449477400,1.226477294921875,3.951751708984375,-3.67279052734375,0.3553009033203125
1663862588459365000,1.236365234375,4.393829345703125,-2.3550567626953125,1.05303955078125
1663862588469222400,1.246222412109375,4.4236602783203125,0.617034912109375,0.990203857421875
1663862588479079400,1.256079345703125,3.99755859375,1.435150146484375,1.089263916015625
1663862588488967200,1.26596728515625,2.67236328125,-0.86688232421875,0.99871826171875
1663862588498855000,1.27585498046875,1.247039794921875,-2.144134521484375,0.163543701171875
1663862588508742700,1.28574267578125,1.3003082275390625,-0.412017822265625,-0.4223480224609375
1663862588518630100,1.295630126953125,1.90643310546875,0.3347320556640625,0.1241302490234375
1663862588528518000,1.305517822265625,2.238800048828125,0.3816070556640625,0.3872528076171875
1663862588538405600,1.315405517578125,1.4100341796875,-0.2490234375,-0.03778076171875
1663862588548293400,1.32529345703125,0.3106689453125,-1.0298614501953125,0.16888427734375
1663862588558181000,1.33518115234375,-0.0131683349609375,-2.22509765625,0.8666229248046875
1663862588568068600,1.345068603515625,0.0379638671875,-2.8834228515625,1.1095123291015625
1663862588577956400,1.354956298828125,0.0550079345703125,-2.70233154296875,0.9933929443359375
1663862588587844000,1.364843994140625,0.052886962890625,-1.883148193359375,0.7079010009765625
1663862588597701400,1.374701416015625,-0.09625244140625,-0.7252044677734375,0.1720733642578125
1663862588607558400,1.384558349609375,-0.30291748046875,0.3741455078125,-0.4223480224609375
1663862588617446100,1.394446044921875,-0.6011962890625,0.9291534423828125,-0.8857269287109375
1663862588627334000,1.404333984375,-0.5852203369140625,0.7704315185546875,-0.9933319091796875
1663862588637221600,1.4142216796875,-0.290130615234375,0.54779052734375,-0.7280731201171875
1663862588647109000,1.424109130859375,-0.0355377197265625,0.3240814208984375,-0.3083648681640625
1663862588656996900,1.433996826171875,0.11785888671875,-0.53558349609375,0.1976470947265625
1663862588666884600,1.443884521484375,0.5322418212890625,-1.360107421875,0.6865997314453125
1663862588676742000,1.453741943359375,1.1991119384765625,-1.3537139892578125,0.9347991943359375
1663862588686629600,1.463629638671875,1.6316070556640625,-1.5656890869140625,1.0008544921875
1663862588696517000,1.47351708984375,2.02362060546875,-1.9193572998046875,1.0818023681640625
1663862588706404900,1.48340478515625,2.2867431640625,-2.5819549560546875,0.9252166748046875
1663862588716292600,1.493292724609375,2.523223876953125,-3.274383544921875,0.7782135009765625
1663862588726180400,1.503180419921875,2.8268280029296875,-3.9071502685546875,0.31695556640625
1663862588736068000,1.513068115234375,2.68194580078125,-4.7742767333984375,-0.492645263671875
1663862588745955600,1.52295556640625,2.2569122314453125,-3.8389739990234375,-0.4692230224609375
1663862588755843300,1.53284326171875,1.9597015380859375,-2.188873291015625,0.1060333251953125
1663862588765731000,1.54273095703125,1.818023681640625,-1.62109375,0.4245452880859375
1663862588775618800,1.552618896484375,2.0150909423828125,-1.6935272216796875,0.61309814453125
1663862588785475800,1.562475830078125,2.7234954833984375,-1.914031982421875,1.034942626953125
1663862588795363600,1.572363525390625,3.7866363525390625,-2.122833251953125,1.455718994140625
1663862588805251300,1.582251220703125,4.2521514892578125,-2.17822265625,1.681549072265625
1663862588815139000,1.59213916015625,4.041229248046875,-2.2069854736328125,1.5462646484375
1663862588825026800,1.60202685546875,3.8292388916015625,-2.1153717041015625,1.398193359375
1663862588834914300,1.611914306640625,3.8889007568359375,-1.869293212890625,1.4056549072265625
1663862588844771600,1.621771484375,3.679046630859375,-1.793670654296875,1.47808837890625
1663862588854659300,1.631659423828125,3.251861572265625,-1.779815673828125,1.7902069091796875
1663862588864547000,1.641547119140625,2.720306396484375,-1.7158966064453125,1.9276275634765625
1663862588874434600,1.6514345703125,2.3250885009765625,-1.5369415283203125,1.991546630859375
1663862588884322300,1.661322265625,2.112030029296875,-1.6519775390625,2.141754150390625
1663862588894179600,1.6711796875,2.2984619140625,-1.493255615234375,2.3153839111328125
1663862588904067300,1.6810673828125,2.271820068359375,-0.8519744873046875,2.3132476806640625
1663862588913955000,1.690955078125,1.6358642578125,-0.1222686767578125,2.1151123046875
1663862588923842600,1.700842529296875,0.983917236328125,0.365631103515625,1.6591796875
1663862588933730300,1.710730224609375,0.5673980712890625,0.340057373046875,1.12335205078125
1663862588943618000,1.7206181640625,0.302154541015625,-0.0636749267578125,0.509765625
1663862588953475300,1.730475341796875,0.1796417236328125,-0.2447662353515625,-0.14324951171875
1663862588963362800,1.74036279296875,0.093353271484375,-0.217071533203125,-0.5693511962890625
1663862588973220000,1.75022021484375,0.0081329345703125,-0.127593994140625,-0.859100341796875
1663862588983077400,1.760077392578125,-0.052581787109375,-0.047698974609375,-1.13287353515625
1663862588992995600,1.76999560546875,-0.1015777587890625,-0.0775146484375,-1.38214111328125
1663862589002883000,1.779883056640625,-0.1388702392578125,-0.170196533203125,-1.601593017578125
1663862589012770800,1.789770751953125,-0.1612396240234375,-0.2415771484375,-1.7933349609375
1663862589022658600,1.799658447265625,-0.1356658935546875,-0.3576812744140625,-2.0074615478515625
1663862589032546300,1.80954638671875,-0.0834808349609375,-0.513214111328125,-2.2482147216796875
1663862589042434000,1.81943408203125,-0.1473846435546875,-0.5622100830078125,-2.4985504150390625
1663862589052321500,1.829321533203125,-0.44140625,-0.602691650390625,-2.5507354736328125
1663862589062178800,1.8391787109375,-0.438201904296875,-0.674072265625,-2.379241943359375
1663862589072066600,1.849066650390625,-0.110107421875,-0.614410400390625,-2.284423828125
1663862589081954300,1.858954345703125,0.1934967041015625,-0.3662109375,-2.3153228759765625
1663862589091841800,1.868841796875,0.4544830322265625,-0.1670074462890625,-2.3739013671875
1663862589101729500,1.8787294921875,0.654754638671875,-0.071136474609375,-2.4761810302734375
1663862589111586800,1.8885869140625,0.7729949951171875,0.008758544921875,-2.6210479736328125
1663862589121474600,1.898474609375,0.8784637451171875,-0.2809906005859375,-2.7030792236328125
1663862589131331600,1.90833154296875,0.97540283203125,-0.579254150390625,-2.729705810546875
1663862589141219300,1.91821923828125,1.062744140625,-0.534515380859375,-2.753143310546875
1663862589151107000,1.928107177734375,1.0552978515625,-0.34063720703125,-2.7606048583984375
1663862589160994800,1.937994873046875,0.9562225341796875,-0.29803466796875,-2.7840423583984375
1663862589170882600,1.947882568359375,0.892303466796875,-0.44610595703125,-2.8298492431640625
1663862589180770000,1.95777001953125,0.8337249755859375,-0.639984130859375,-2.8287811279296875
1663862589190657800,1.96765771484375,0.8326568603515625,-1.0692901611328125,-2.833038330078125
1663862589200515000,1.97751513671875,0.94024658203125,-1.6402587890625,-2.90228271484375
1663862589210402800,1.98740283203125,1.096832275390625,-2.073822021484375,-2.959808349609375
1663862589220290300,1.997290283203125,1.204437255859375,-2.0951385498046875,-2.93743896484375
1663862589230178000,2.007177978515625,1.250244140625,-1.765960693359375,-2.879913330078125
1663862589240035300,2.017035400390625,1.1937713623046875,-1.2727508544921875,-2.8181304931640625
1663862589249923000,2.026923095703125,1.1479644775390625,-0.8636932373046875,-2.6540679931640625
1663862589259810600,2.036810546875,1.13519287109375,-0.710296630859375,-2.196014404296875
1663862589269698300,2.0466982421875,1.1501007080078125,-0.7837982177734375,-1.83807373046875
1663862589279555600,2.0565556640625,1.223602294921875,-0.8690185546875,-1.827423095703125
1663862589289443300,2.066443359375,1.2672882080078125,-0.752899169921875,-1.8338165283203125
1663862589299300400,2.07630029296875,1.280059814453125,-0.50042724609375,-1.7336883544921875
1663862589309218600,2.086218505859375,1.2811279296875,-0.3267974853515625,-1.580291748046875
1663862589319075800,2.096075927734375,1.249176025390625,-0.2724609375,-1.408782958984375
1663862589328994000,2.105994140625,1.191650390625,-0.2532958984375,-1.23834228515625
1663862589338881800,2.1158818359375,1.1266632080078125,-0.2884368896484375,-1.0593719482421875
1663862589348769300,2.125769287109375,1.0489044189453125,-0.3353118896484375,-0.8623046875
1663862589358626600,2.13562646484375,0.976470947265625,-0.3939056396484375,-0.6950531005859375
1663862589368514300,2.145514404296875,0.9189453125,-0.4727325439453125,-0.5384521484375
1663862589378402000,2.155402099609375,0.8422393798828125,-0.5409088134765625,-0.3477783203125
1663862589388259000,2.165259033203125,0.7314605712890625,-0.5313262939453125,-0.1560211181640625
1663862589398177300,2.17517724609375,0.565277099609375,-0.4492950439453125,0.0122833251953125
1663862589408065000,2.18506494140625,0.3628692626953125,-0.2958984375,0.143310546875
1663862589417922300,2.19492236328125,0.1381072998046875,-0.1105499267578125,0.2615509033203125
1663862589427779300,2.204779296875,-0.073883056640625,0.100372314453125,0.3766021728515625
1663862589437667000,2.2146669921875,-0.266693115234375,0.3720245361328125,0.442657470703125
1663862589447554800,2.224554931640625,-0.430755615234375,0.6010589599609375,0.518280029296875
1663862589457442600,2.234442626953125,-0.6129150390625,0.78533935546875,0.63653564453125
1663862589467330300,2.244330322265625,-0.830230712890625,0.8939971923828125,0.7664947509765625
1663862589477217800,2.2542177734375,-1.0592498779296875,0.8620452880859375,0.8794097900390625
1663862589487105500,2.26410546875,-1.274444580078125,0.7001190185546875,1.0146942138671875
1663862589496993300,2.2739931640625,-1.4587249755859375,0.498779296875,1.21710205078125
1663862589506850600,2.2838505859375,-1.5961456298828125,0.4849395751953125,1.4280242919921875
1663862589516738000,2.293738037109375,-1.65899658203125,0.75445556640625,1.4929962158203125
1663862589526595300,2.30359521484375,-1.5993499755859375,1.0718994140625,1.292724609375
1663862589536513500,2.313513427734375,-1.4661865234375,1.0314178466796875,1.0860748291015625
1663862589546401300,2.3234013671875,-1.3713836669921875,0.297454833984375,0.896453857421875
1663862589556289000,2.3332890625,-1.361785888671875,-0.226654052734375,0.5385284423828125
1663862589566176500,2.343176513671875,-1.340484619140625,0.9611053466796875,0.92095947265625
1663862589576064300,2.353064208984375,-1.31597900390625,2.1829681396484375,1.6538543701171875
1663862589585952000,2.362951904296875,-1.533294677734375,1.7611236572265625,1.6123046875
1663862589595839700,2.37283984375,-1.8486175537109375,1.0569915771484375,1.39605712890625
1663862589605727500,2.3827275390625,-1.923187255859375,0.7938690185546875,1.5430755615234375
1663862589615615200,2.392615234375,-1.8837738037109375,0.6873321533203125,1.798736572265625
1663862589625472300,2.40247216796875,-1.9072113037109375,0.412506103515625,1.9521331787109375
1663862589635360000,2.412360107421875,-1.840087890625,0.058837890625,2.014984130859375
1663862589645247700,2.422247802734375,-1.6195831298828125,-0.172332763671875,2.0799560546875
1663862589655135500,2.432135498046875,-1.35113525390625,-0.2213287353515625,2.198211669921875
1663862589664992500,2.441992431640625,-1.09228515625,-0.104156494140625,2.3249664306640625
1663862589674880300,2.45188037109375,-0.8536529541015625,0.0897216796875,2.3409576416015625
1663862589684737500,2.461737548828125,-0.6501922607421875,0.3144989013671875,2.2376251220703125
1663862589694594600,2.471594482421875,-0.498931884765625,0.593597412109375,2.11724853515625
1663862589704512800,2.4815126953125,-0.4009246826171875,0.876953125,2.038421630859375
1663862589714400500,2.491400390625,-0.32635498046875,1.1347503662109375,2.026702880859375
1663862589724288300,2.501288330078125,-0.2848052978515625,1.3744354248046875,2.0650482177734375
1663862589734176000,2.511176025390625,-0.29119873046875,1.564056396484375,2.1087188720703125
1663862589744063500,2.5210634765625,-0.3455352783203125,1.66632080078125,2.1215057373046875
1663862589753951200,2.530951171875,-0.4211578369140625,1.7717742919921875,2.0906219482421875
1663862589763839000,2.5408388671875,-0.43927001953125,2.0561981201171875,2.01605224609375
1663862589773696300,2.5506962890625,-0.39239501953125,2.369384765625,1.9361572265625
1663862589783583700,2.560583740234375,-0.2720184326171875,2.498291015625,1.87542724609375
1663862589793441000,2.57044091796875,-0.0674896240234375,2.404541015625,1.8051300048828125
1663862589803328800,2.580328857421875,0.184967041015625,2.1478118896484375,1.7028656005859375
1663862589813185800,2.590185791015625,0.4310455322265625,1.7526092529296875,1.582489013671875
1663862589823104000,2.60010400390625,0.588714599609375,1.3595123291015625,1.4578399658203125
1663862589832991700,2.60999169921875,0.6281280517578125,1.06976318359375,1.3342742919921875
1663862589842879500,2.61987939453125,0.5780487060546875,0.831146240234375,1.2309417724609375
1663862589852767200,2.629767333984375,0.4789886474609375,0.5967864990234375,1.17022705078125
1663862589862655000,2.639655029296875,0.3575439453125,0.4593658447265625,1.1531829833984375
1663862589872542700,2.649542724609375,0.2265167236328125,0.52435302734375,1.1872711181640625
1663862589882430200,2.65943017578125,0.0763092041015625,0.680938720703125,1.274627685546875
1663862589892318000,2.66931787109375,-0.0930633544921875,0.76617431640625,1.3790130615234375
1663862589902175200,2.67917529296875,-0.2496490478515625,0.831146240234375,1.4610443115234375
1663862589912063000,2.68906298828125,-0.3668365478515625,0.87481689453125,1.5057830810546875
1663862589921950500,2.698950439453125,-0.4477996826171875,0.9089202880859375,1.5047149658203125
1663862589931838200,2.708838134765625,-0.4925384521484375,0.935546875,1.43121337890625
1663862589941726000,2.718725830078125,-0.5053253173828125,0.8822784423828125,1.304443359375
1663862589951613700,2.72861376953125,-0.482940673828125,0.7363433837890625,1.1627655029296875
1663862589961470700,2.738470703125,-0.42755126953125,0.5552520751953125,1.0509185791015625
1663862589971358500,2.7483583984375,-0.3519134521484375,0.3858642578125,0.988067626953125
1663862589981246200,2.75824609375,-0.2752227783203125,0.1770782470703125,0.9795379638671875
1663862589991134000,2.768134033203125,-0.168701171875,0.0300750732421875,0.9838104248046875
1663862590001021700,2.778021728515625,-0.066436767578125,0.0300750732421875,0.985931396484375
1663862590010909200,2.7879091796875,-0.0121002197265625,0.1547088623046875,0.997650146484375
1663862590020766500,2.797766357421875,0.003875732421875,0.3560333251953125,1.03173828125
1663862590030654200,2.807654296875,-0.004638671875,0.5211639404296875,1.09033203125
1663862590040542000,2.8175419921875,-0.0206298828125,0.615966796875,1.1201629638671875
1663862590050429400,2.827429443359375,-0.0216827392578125,0.751251220703125,1.0605010986328125
1663862590060317200,2.837317138671875,0.027313232421875,0.912109375,0.9273529052734375
1663862590070174500,2.847174560546875,0.1253204345703125,0.970703125,0.77288818359375
1663862590080062200,2.857062255859375,0.2478179931640625,0.901458740234375,0.5960540771484375
1663862590089949700,2.86694970703125,0.3458251953125,0.7587127685546875,0.3563690185546875
1663862590099807000,2.876806884765625,0.3873748779296875,0.54779052734375,0.050628662109375
1663862590109694700,2.88669482421875,0.39483642578125,0.2207489013671875,-0.2625579833984375
1663862590119552000,2.896552001953125,0.3958892822265625,-0.1084136962890625,-0.55230712890625
1663862590129470200,2.90647021484375,0.4438323974609375,-0.318267822265625,-0.8463134765625
1663862590139357700,2.916357666015625,0.549285888671875,-0.4173431396484375,-1.180816650390625
1663862590149245400,2.926245361328125,0.66754150390625,-0.5515594482421875,-1.57708740234375
1663862590159102700,2.936102783203125,0.7857818603515625,-0.8359832763671875,-2.0703125
1663862590168959700,2.945959716796875,0.906158447265625,-1.2013702392578125,-2.7115936279296875
1663862590178847500,2.955847412109375,1.0030975341796875,-1.6487884521484375,-3.4988250732421875
1663862590188735200,2.9657353515625,1.089385986328125,-2.19207763671875,-4.3318634033203125
1663862590198623000,2.975623046875,1.155426025390625,-2.7353515625,-4.9816741943359375
1663862590208510700,2.9855107421875,1.144775390625,-3.0964813232421875,-5.2554473876953125
1663862590218398200,2.995398193359375,1.052093505859375,-2.9537353515625,-5.1627655029296875
1663862590228286000,3.005285888671875,0.7623443603515625,-2.169708251953125,-4.762237548828125
1663862590238173700,3.015173583984375,0.1572723388671875,-0.89990234375,-4.0943145751953125
1663862590248061400,3.0250615234375,-0.5500640869140625,0.4327392578125,-3.335845947265625
1663862590257949200,3.03494921875,-0.98895263671875,1.172027587890625,-2.821319580078125
1663862590267806200,3.04480615234375,-1.046478271484375,0.6990509033203125,-2.602935791015625
1663862590277694000,3.05469384765625,-0.929290771484375,-0.731597900390625,-2.58270263671875
1663862590287551200,3.06455126953125,-0.7055816650390625,-2.1515960693359375,-2.7158660888671875
1663862590297438700,3.074438720703125,-0.4296875,-3.1092681884765625,-2.9736480712890625
1663862590307326500,3.084326416015625,-0.1271514892578125,-3.6003570556640625,-3.2975006103515625
1663862590317214200,3.094214111328125,0.212677001953125,-3.799560546875,-3.6245269775390625
1663862590327102000,3.10410205078125,0.549285888671875,-3.6184539794921875,-3.972869873046875
1663862590336959000,3.113958984375,0.847564697265625,-2.9611968994140625,-4.33612060546875
1663862590346846700,3.1238466796875,1.021209716796875,-2.0919342041015625,-4.6290740966796875
1663862590356734500,3.133734375,1.1415863037109375,-1.1885986328125,-4.6620941162109375
1663862590366622200,3.143622314453125,1.24810791015625,-0.661285400390625,-4.3212127685546875
1663862590376479500,3.1534794921875,1.3311920166015625,-0.685791015625,-3.65435791015625
1663862590386367000,3.163366943359375,1.3567657470703125,-0.9851226806640625,-2.994964599609375
1663862590396254700,3.173254638671875,1.3887176513671875,-1.1683502197265625,-2.6934814453125
1663862590406142500,3.183142578125,1.4590301513671875,-1.058624267578125,-2.7052001953125
1663862590416030200,3.1930302734375,1.453704833984375,-0.821075439453125,-2.729705810546875
1663862590425887200,3.20288720703125,1.3567657470703125,-0.832794189453125,-2.5773773193359375
1663862590435775000,3.21277490234375,1.204437255859375,-1.0916595458984375,-2.250335693359375
1663862590445662700,3.222662841796875,1.0158843994140625,-1.2972564697265625,-1.876434326171875
1663862590455550500,3.232550537109375,0.8092193603515625,-1.378204345703125,-1.535552978515625
1663862590465438200,3.242438232421875,0.62066650390625,-1.4218902587890625,-1.2298126220703125
1663862590475295200,3.252295166015625,0.4076080322265625,-1.46875,-0.908111572265625
1663862590485183000,3.262182861328125,0.15087890625,-1.44744873046875,-0.5214080810546875
1663862590495070700,3.27207080078125,-0.145263671875,-1.3760833740234375,-0.0686798095703125
1663862590504958500,3.28195849609375,-0.4765625,-1.2695465087890625,0.3435821533203125
1663862590514846000,3.291845947265625,-0.814239501953125,-1.0202789306640625,0.61309814453125
1663862590524733700,3.301733642578125,-1.1423492431640625,-0.6815338134765625,0.759033203125
1663862590534621400,3.311621337890625,-1.457672119140625,-0.4045562744140625,0.839996337890625
1663862590544509200,3.32150927734375,-1.7335662841796875,-0.2564849853515625,0.90924072265625
1663862590554397000,3.33139697265625,-1.9412994384765625,-0.2010955810546875,1.009368896484375
1663862590564254000,3.34125390625,-2.0978851318359375,-0.203216552734375,1.2384033203125
1663862590574141700,3.3511416015625,-2.23211669921875,-0.1084136962890625,1.615509033203125
1663862590584029400,3.361029541015625,-2.3855133056640625,0.30810546875,1.9595794677734375
1663862590593886500,3.370886474609375,-2.515472412109375,0.9621734619140625,2.1097869873046875
1663862590603774200,3.380774169921875,-2.459014892578125,1.5118560791015625,1.85626220703125
1663862590613692400,3.3906923828125,-2.0670013427734375,1.5235748291015625,1.1318817138671875
1663862590623549700,3.4005498046875,-1.613189697265625,0.0833282470703125,0.543853759765625
1663862590633468000,3.410468017578125,-1.32025146484375,-0.2767333984375,1.136138916015625
1663862590643355600,3.420355712890625,-0.98895263671875,1.9209136962890625,2.0991363525390625
1663862590653243400,3.430243408203125,-0.647003173828125,2.1829681396484375,1.8935394287109375
1663862590663131000,3.440130859375,-0.9133148193359375,0.891876220703125,1.30657958984375
1663862590672988200,3.44998828125,-1.6217193603515625,0.6649627685546875,1.526031494140625
1663862590682876000,3.4598759765625,-1.8209228515625,0.990936279296875,2.151336669921875
1663862590692763600,3.469763671875,-1.7122650146484375,0.7757568359375,2.31219482421875
1663862590702651100,3.479651123046875,-1.6302337646484375,0.3038482666015625,2.09381103515625
1663862590712539000,3.489538818359375,-1.443817138671875,-0.1552886962890625,1.9361572265625
1663862590722426600,3.499426513671875,-1.1167755126953125,-0.3949737548828125,2.002197265625
1663862590732284000,3.509283935546875,-0.7876129150390625,-0.2415771484375,2.1811676025390625
1663862590742171400,3.51917138671875,-0.49786376953125,0.102508544921875,2.3846282958984375
1663862590752059100,3.52905908203125,-0.2070465087890625,0.5062408447265625,2.569976806640625
1663862590761947000,3.53894677734375,0.0795135498046875,0.8726959228515625,2.7052764892578125
1663862590771834600,3.548834716796875,0.26593017578125,1.0196990966796875,2.764923095703125
1663862590781722400,3.558722412109375,0.269134521484375,0.9270172119140625,2.7425537109375
1663862590791609900,3.56860986328125,0.06353759765625,0.6447296142578125,2.63922119140625
1663862590801467100,3.578467041015625,-0.282684326171875,0.2313995361328125,2.40380859375
1663862590811355000,3.58835498046875,-0.613983154296875,-0.1062774658203125,2.084228515625
1663862590821242600,3.59824267578125,-0.8217010498046875,-0.3001556396484375,1.8392181396484375
1663862590831130400,3.60813037109375,-0.8696441650390625,-0.3832550048828125,1.7486572265625
1663862590841017900,3.618017822265625,-0.7684326171875,-0.1883087158203125,1.7923431396484375
1663862590850905600,3.627905517578125,-0.5809478759765625,0.1877288818359375,1.886077880859375
1663862590860793300,3.63779345703125,-0.38067626953125,0.4721527099609375,1.9638519287109375
1663862590870650600,3.647650634765625,-0.165496826171875,0.533935546875,1.9830169677734375
1663862590880538000,3.6575380859375,0.07098388671875,0.4817352294921875,1.9393463134765625
1663862590890425900,3.66742578125,0.2606048583984375,0.396514892578125,1.86370849609375
1663862590900313600,3.677313720703125,0.335174560546875,0.29852294921875,1.7998046875
1663862590910201300,3.687201416015625,0.290435791015625,0.24951171875,1.7838134765625
1663862590920058400,3.697058349609375,0.18603515625,0.225006103515625,1.7934112548828125
1663862590929946000,3.706946044921875,0.060333251953125,0.1419219970703125,1.7880859375
1663862590939833900,3.716833740234375,-0.0483245849609375,-0.0498199462890625,1.7241668701171875
1663862590949721600,3.7267216796875,-0.130340576171875,-0.3150787353515625,1.6112518310546875
1663862590959609300,3.736609375,-0.20172119140625,-0.5313262939453125,1.5196380615234375
1663862590969496800,3.746496826171875,-0.26776123046875,-0.6208038330078125,1.4823455810546875
1663862590979354000,3.75635400390625,-0.3338165283203125,-0.5877838134765625,1.468505859375
1663862590989241900,3.766241943359375,-0.39453125,-0.454620361328125,1.453582763671875
1663862590999099000,3.776098876953125,-0.4456634521484375,-0.203216552734375,1.4280242919921875
1663862591008986600,3.785986572265625,-0.4957275390625,0.0939788818359375,1.385406494140625
1663862591018874400,3.795874267578125,-0.5244903564453125,0.2889251708984375,1.34173583984375
1663862591028762000,3.80576220703125,-0.5117034912109375,0.30810546875,1.3119049072265625
1663862591038619100,3.815619140625,-0.4445953369140625,0.168548583984375,1.2799530029296875
1663862591048507000,3.8255068359375,-0.34979248046875,-0.0636749267578125,1.227752685546875
1663862591058364200,3.8353642578125,-0.25604248046875,-0.3193359375,1.1616973876953125
1663862591068282400,3.845282470703125,-0.1633758544921875,-0.581390380859375,1.1276092529296875
1663862591078170000,3.855170166015625,-0.1026458740234375,-0.7582244873046875,1.1095123291015625
1663862591088057900,3.865057861328125,-0.0706939697265625,-0.75396728515625,1.0967254638671875
1663862591097915000,3.874914794921875,-0.07281494140625,-0.592041015625,1.06903076171875
1663862591107802600,3.884802734375,-0.111175537109375,-0.3736724853515625,1.0136260986328125
1663862591117660000,3.894659912109375,-0.144195556640625,-0.1883087158203125,0.9273529052734375
1663862591127578000,3.904578125,-0.1580352783203125,-0.01361083984375,0.804840087890625
1663862591137465600,3.914465576171875,-0.1527099609375,0.1866607666015625,0.670623779296875
1663862591147353300,3.924353271484375,-0.0909271240234375,0.3709564208984375,0.5481109619140625
1663862591157241000,3.934240966796875,0.0560760498046875,0.468963623046875,0.4096221923828125
1663862591167128800,3.94412890625,0.2062835693359375,0.4295501708984375,0.2082977294921875
1663862591177016600,3.9540166015625,0.288299560546875,0.1408538818359375,-0.0686798095703125
1663862591186873600,3.96387353515625,0.356475830078125,-0.3587493896484375,-0.381866455078125
1663862591196761300,3.97376123046875,0.4203948974609375,-0.8381195068359375,-0.6918487548828125
1663862591206649000,3.983649169921875,0.459808349609375,-1.1939239501953125,-0.976287841796875
1663862591216536800,3.993536865234375,0.497100830078125,-1.347320556640625,-1.24578857421875
1663862591226424300,4.00342431640625,0.575927734375,-1.267425537109375,-1.56536865234375
1663862591236312000,4.01331201171875,0.6835174560546875,-1.166229248046875,-1.96697998046875
1663862591246199800,4.02319970703125,0.82305908203125,-1.26422119140625,-2.41119384765625
1663862591256087600,4.033087646484375,0.9775238037109375,-1.4794158935546875,-2.8958892822265625
1663862591265944600,4.042944580078125,1.089385986328125,-1.6605072021484375,-3.4445037841796875
1663862591275801900,4.0528017578125,1.1383819580078125,-1.88421630859375,-3.972869873046875
1663862591285689600,4.062689697265625,1.1298675537109375,-2.2506561279296875,-4.37127685546875
1663862591295577300,4.072577392578125,1.04144287109375,-2.5808868408203125,-4.600311279296875
1663862591305464800,4.08246484375,0.873138427734375,-2.5989990234375,-4.6152191162109375
1663862591315352600,4.0923525390625,0.54290771484375,-2.23681640625,-4.3499755859375
1663862591325240300,4.102240234375,-0.050445556640625,-1.610443115234375,-3.8066864013671875
1663862591335128000,4.112128173828125,-0.8238372802734375,-1.0831298828125,-3.1419677734375
1663862591345015800,4.122015869140625,-1.4810943603515625,-0.8636932373046875,-2.5848388671875
1663862591354903600,4.131903564453125,-1.7889556884765625,-0.903106689453125,-2.3227691650390625
1663862591364791000,4.141791015625,-1.7857666015625,-1.2248077392578125,-2.4388885498046875
1663862591374617900,4.151617919921875,-1.6632537841796875,-1.8192291259765625,-2.78509521484375
1663862591384505600,4.161505615234375,-1.4257049560546875,-2.4445343017578125,-3.173919677734375
1663862591394362600,4.171362548828125,-1.0027923583984375,-2.9260406494140625,-3.56060791015625
1663862591404280800,4.18128076171875,-0.50958251953125,-3.365997314453125,-3.9345245361328125
1663862591414168600,4.19116845703125,-0.2422027587890625,-3.8038177490234375,-4.0793914794921875
1663862591424056300,4.201056396484375,-0.268829345703125,-4.0786590576171875,-3.914276123046875
1663862591433944000,4.210944091796875,-0.4350128173828125,-4.057342529296875,-3.6692657470703125
1663862591443831600,4.22083154296875,-0.58734130859375,-3.7452239990234375,-3.5211944580078125
1663862591453719300,4.23071923828125,-0.5830841064453125,-3.1561431884765625,-3.5329132080078125
1663862591463576600,4.24057666015625,-0.4232940673828125,-2.37103271484375,-3.674591064453125
1663862591473464300,4.25046435546875,-0.2166290283203125,-1.598724365234375,-3.7278594970703125
1663862591483321300,4.2603212890625,-0.0227508544921875,-1.0692901611328125,-3.49456787109375
1663862591493209000,4.270208984375,0.1359710693359375,-0.9084320068359375,-3.0109405517578125
1663862591503096800,4.280096923828125,0.2488861083984375,-0.9531707763671875,-2.5379638671875
1663862591512984600,4.289984619140625,0.288299560546875,-1.062896728515625,-2.27484130859375
1663862591522872000,4.2998720703125,0.269134521484375,-1.1800689697265625,-2.1363525390625
1663862591532759800,4.309759765625,0.2382354736328125,-1.2855377197265625,-1.99786376953125
1663862591542647600,4.3196474609375,0.2180023193359375,-1.405914306640625,-1.796539306640625
1663862591552535300,4.329535400390625,0.1668701171875,-1.52947998046875,-1.5493927001953125
1663862591562423000,4.339423095703125,0.0773773193359375,-1.6871337890625,-1.31610107421875
1663862591572310800,4.349310791015625,-0.0451202392578125,-1.845855712890625,-1.0828094482421875
1663862591582198300,4.3591982421875,-0.2198333740234375,-2.005645751953125,-0.8186187744140625
1663862591592086000,4.3690859375,-0.4296875,-2.0812835693359375,-0.5672149658203125
1663862591601943300,4.378943359375,-0.668304443359375,-1.9353485107421875,-0.3744049072265625
1663862591611831000,4.3888310546875,-0.9111785888671875,-1.5774078369140625,-0.2050323486328125
1663862591621718500,4.398718505859375,-1.0848236083984375,-1.15130615234375,-0.048431396484375
1663862591631606300,4.408606201171875,-1.1977386474609375,-0.83172607421875,0.09857177734375
1663862591641494000,4.418493896484375,-1.284027099609375,-0.6474456787109375,0.233856201171875
1663862591651351300,4.428351318359375,-1.36285400390625,-0.51641845703125,0.346771240234375
1663862591661238800,4.43823876953125,-1.453399658203125,-0.3832550048828125,0.4788665771484375
1663862591671126500,4.44812646484375,-1.5599365234375,-0.238372802734375,0.6343994140625
1663862591681014300,4.45801416015625,-1.6664581298828125,-0.0658111572265625,0.8090972900390625
1663862591690902000,4.467902099609375,-1.7388916015625,0.123809814453125,0.9678192138671875
1663862591700789800,4.477789794921875,-1.7740478515625,0.377349853515625,0.9827423095703125
1663862591710646800,4.487646728515625,-1.728240966796875,0.6447296142578125,0.8485107421875
1663862591720534500,4.497534423828125,-1.63555908203125,0.4732208251953125,0.841064453125
1663862591730422300,4.50742236328125,-1.52264404296875,-0.13824462890625,0.9305419921875
1663862591740310000,4.51731005859375,-1.43316650390625,-0.4152069091796875,0.83892822265625
1663862591750167000,4.5271669921875,-1.4619293212890625,0.19091796875,0.81549072265625
1663862591760024300,4.5370244140625,-1.4832305908203125,1.3946685791015625,1.1414642333984375
1663862591769912000,4.546912109375,-1.4384918212890625,1.8761749267578125,1.54840087890625
1663862591779799600,4.556799560546875,-1.4129180908203125,1.3382110595703125,1.6112518310546875
1663862591789656800,4.56665673828125,-1.4278411865234375,1.01544189453125,1.5633087158203125
1663862591799575000,4.576574951171875,-1.432098388671875,0.9983978271484375,1.66876220703125
1663862591809462800,4.586462890625,-1.4363555908203125,0.891876220703125,1.810455322265625
1663862591819350500,4.5963505859375,-1.44488525390625,0.704376220703125,1.909515380859375
1663862591829238300,4.60623828125,-1.4289093017578125,0.464691162109375,1.979827880859375
1663862591839125800,4.616125732421875,-1.376708984375,0.2196807861328125,2.003265380859375
1663862591848983000,4.625983154296875,-1.2797698974609375,0.090789794921875,2.0181732177734375
1663862591858840300,4.63584033203125,-1.1391448974609375,0.0268707275390625,2.0437469482421875
1663862591868758500,4.645758544921875,-0.9463348388671875,-0.0040130615234375,2.0298919677734375
1663862591878615600,4.655615478515625,-0.736480712890625,0.0865325927734375,2.01605224609375
1663862591888503300,4.66550341796875,-0.5362091064453125,0.2772064208984375,2.02349853515625
1663862591898391000,4.67539111328125,-0.334869384765625,0.4508514404296875,2.0203094482421875
1663862591908278800,4.68527880859375,-0.1282196044921875,0.5861358642578125,2.01605224609375
1663862591918135800,4.6951357421875,0.0092010498046875,0.60211181640625,2.036285400390625
1663862591928054000,4.705053955078125,0.0102691650390625,0.5083770751953125,2.081024169921875
1663862591937911300,4.714911376953125,-0.111175537109375,0.3560333251953125,2.1545257568359375
1663862591947799000,4.724799072265625,-0.24432373046875,0.264434814453125,2.2120513916015625
1663862591957686500,4.7346865234375,-0.294403076171875,0.2079620361328125,2.1907501220703125
1663862591967543800,4.744543701171875,-0.2613677978515625,0.1557769775390625,2.1342926025390625
1663862591977431600,4.754431640625,-0.1878662109375,0.22821044921875,2.083160400390625
1663862591987349800,4.764349853515625,-0.09625244140625,0.3624267578125,2.0405426025390625
1663862591997206800,4.774206787109375,0.018798828125,0.4625701904296875,1.9958038330078125
1663862592007080000,4.784079833984375,0.16473388671875,0.4977264404296875,1.9286956787109375
1663862592016967700,4.7939677734375,0.3085479736328125,0.4838714599609375,1.8264312744140625
1663862592026825000,4.803824951171875,0.4076080322265625,0.4732208251953125,1.6996612548828125
1663862592036743200,4.8137431640625,0.4662017822265625,0.424224853515625,1.556915283203125
1663862592046631000,4.823630859375,0.4651336669921875,0.3560333251953125,1.441864013671875
1663862592056518400,4.833518310546875,0.3927001953125,0.389068603515625,1.4024505615234375
1663862592066406100,4.84340625,0.3170623779296875,0.5158233642578125,1.433349609375
1663862592076294000,4.8532939453125,0.24249267578125,0.638336181640625,1.488739013671875
1663862592086181600,4.863181640625,0.154083251953125,0.6638946533203125,1.5068511962890625
1663862592096069400,4.8730693359375,0.0645904541015625,0.59466552734375,1.455718994140625
1663862592105926400,4.882926513671875,-0.028076171875,0.487060546875,1.35345458984375
1663862592115814100,4.892814208984375,-0.110107421875,0.3603057861328125,1.2266845703125
1663862592125702000,4.902701904296875,-0.1591033935546875,0.2324676513671875,1.0871429443359375
1663862592135589600,4.912589599609375,-0.1814727783203125,0.1664276123046875,0.9497222900390625
1663862592145477400,4.922477294921875,-0.1921234130859375,0.1536407470703125,0.8346710205078125
1663862592155334400,4.93233447265625,-0.202789306640625,0.1973114013671875,0.760101318359375
1663862592165222100,4.94222216796875,-0.198516845703125,0.2686920166015625,0.736663818359375
1663862592175110000,4.95210986328125,-0.1495208740234375,0.2804107666015625,0.738800048828125
1663862592184997600,4.96199755859375,-0.0706939697265625,0.1781463623046875,0.701507568359375
1663862592194885000,4.971885009765625,0.0209197998046875,0.035400390625,0.6301422119140625
1663862592204772900,4.98177294921875,0.109344482421875,-0.05621337890625,0.57794189453125
1663862592214660600,4.99166064453125,0.2030792236328125,-0.1712646484375,0.5491790771484375
1663862592224518000,5.001517822265625,0.2829742431640625,-0.35235595703125,0.5129547119140625
1663862592234405400,5.0114052734375,0.30108642578125,-0.409881591796875,0.4937896728515625
1663862592244293000,5.021293212890625,0.245697021484375,-0.2351837158203125,0.5385284423828125
1663862592254150400,5.031150390625,0.154083251953125,0.0066375732421875,0.63653564453125
1663862592264038100,5.0410380859375,0.0656585693359375,0.137664794921875,0.71429443359375
1663862592273925600,5.050925537109375,0.0145263671875,0.1184844970703125,0.724945068359375
1663862592283813400,5.0608134765625,0.017730712890625,-0.033843994140625,0.703643798828125
1663862592293701000,5.070701171875,0.074188232421875,-0.214935302734375,0.701507568359375
1663862592303588900,5.0805888671875,0.1455535888671875,-0.3044281005859375,0.6951141357421875
1663862592313476600,5.0904765625,0.1945648193359375,-0.21600341796875,0.656768798828125
1663862592323333600,5.100333740234375,0.2254486083984375,-0.034912109375,0.6045684814453125
1663862592333191000,5.11019091796875,0.2499542236328125,0.112091064453125,0.544921875
1663862592343078700,5.12007861328125,0.27764892578125,0.236724853515625,0.439453125
1663862592352935700,5.129935791015625,0.3298492431640625,0.3571014404296875,0.2626190185546875
1663862592362854000,5.13985400390625,0.415069580078125,0.4039764404296875,0.0218658447265625
1663862592372741600,5.14974169921875,0.508819580078125,0.3571014404296875,-0.2401885986328125
1663862592382629400,5.15962939453125,0.5567474365234375,0.28680419921875,-0.50543212890625
1663862592392517000,5.16951708984375,0.564208984375,0.2005157470703125,-0.77069091796875
1663862592402404900,5.17940478515625,0.563140869140625,0.070556640625,-1.052978515625
1663862592412262000,5.189261962890625,0.575927734375,-0.1712646484375,-1.37469482421875
1663862592422149600,5.199149658203125,0.6014862060546875,-0.534515380859375,-1.740081787109375
1663862592432037400,5.209037353515625,0.6536865234375,-0.910552978515625,-2.1299591064453125
1663862592441925000,5.218925048828125,0.7197418212890625,-1.175811767578125,-2.53369140625
1663862592451812600,5.2288125,0.7602081298828125,-1.3760833740234375,-2.9203948974609375
1663862592461700400,5.238700439453125,0.788970947265625,-1.6242828369140625,-3.26873779296875
1663862592471588000,5.248588134765625,0.814544677734375,-1.894866943359375,-3.5904388427734375
1663862592481475800,5.258475830078125,0.828399658203125,-1.99713134765625,-3.8759307861328125
1663862592491363600,5.268363525390625,0.7900390625,-1.73187255859375,-4.04425048828125
1663862592501220600,5.278220703125,0.6132049560546875,-1.082061767578125,-3.970733642578125
1663862592511108400,5.2881083984375,0.2297210693359375,-0.3054962158203125,-3.618133544921875
1663862592520996000,5.29799609375,-0.327423095703125,0.271881103515625,-3.1227874755859375
1663862592530883800,5.3078837890625,-0.86431884765625,0.5520477294921875,-2.6892242431640625
1663862592540771300,5.317771240234375,-1.1625823974609375,0.511566162109375,-2.457000732421875
1663862592550659000,5.3276591796875,-1.2233123779296875,0.032196044921875,-2.4442138671875
1663862592560516400,5.337516357421875,-1.1519317626953125,-0.8157501220703125,-2.5848388671875
1663862592570404000,5.347404052734375,-0.8770904541015625,-1.777679443359375,-2.823455810546875
1663862592580291600,5.35729150390625,-0.449920654296875,-2.63629150390625,-3.1227874755859375
1663862592590148900,5.36714892578125,-0.08880615234375,-3.218994140625,-3.4029541015625
1663862592600036600,5.37703662109375,0.050750732421875,-3.4735870361328125,-3.5020294189453125
1663862592609894000,5.386893798828125,0.0699310302734375,-3.47998046875,-3.4306488037109375
1663862592619781400,5.396781494140625,0.109344482421875,-3.135894775390625,-3.371002197265625
1663862592629669000,5.406669189453125,0.1828460693359375,-2.42962646484375,-3.4263916015625
1663862592639556900,5.416556884765625,0.313873291015625,-1.549713134765625,-3.563812255859375
1663862592649444600,5.426444580078125,0.520538330078125,-0.7816619873046875,-3.6735382080078125
1663862592659332400,5.436332275390625,0.7303924560546875,-0.287384033203125,-3.6575469970703125
1663862592669219800,5.4462197265625,0.8997650146484375,-0.092437744140625,-3.401885986328125
1663862592679107600,5.456107666015625,0.9924468994140625,-0.1425018310546875,-2.9299774169921875
1663862592688995300,5.465995361328125,1.0158843994140625,-0.26287841796875,-2.4825592041015625
1663862592698883000,5.475883056640625,1.06488037109375,-0.3949737548828125,-2.275909423828125
1663862592708770800,5.485770751953125,1.131988525390625,-0.5867156982421875,-2.1981353759765625
1663862592718658300,5.495658203125,1.1181488037109375,-0.7347869873046875,-2.02130126953125
1663862592728515600,5.505515625,1.0233306884765625,-0.8146820068359375,-1.7784271240234375
1663862592738372900,5.515372802734375,0.8955078125,-0.8711395263671875,-1.5376739501953125
1663862592748260400,5.52526025390625,0.7602081298828125,-0.933990478515625,-1.29052734375
1663862592758117600,5.53511767578125,0.6153411865234375,-1.02880859375,-1.03167724609375
1663862592768035800,5.545035888671875,0.44915771484375,-1.172607421875,-0.7866668701171875
1663862592777893000,5.55489306640625,0.23291015625,-1.2706146240234375,-0.5832061767578125
1663862592787780600,5.564780517578125,-0.040863037109375,-1.1790008544921875,-0.391448974609375
1663862592797668400,5.57466845703125,-0.3444671630859375,-0.8370513916015625,-0.2039642333984375
1663862592807556000,5.58455615234375,-0.6363525390625,-0.3235931396484375,-0.0164794921875
1663862592817413400,5.594413330078125,-0.8888092041015625,0.1738739013671875,0.1955108642578125
1663862592827331600,5.60433154296875,-1.0965423583984375,0.499847412109375,0.4597015380859375
1663862592837188600,5.614188720703125,-1.2520751953125,0.603179931640625,0.7888641357421875
1663862592847046000,5.6240458984375,-1.3692474365234375,0.5158233642578125,1.159576416015625
1663862592856933600,5.63393359375,-1.467254638671875,0.3453826904296875,1.4962005615234375
1663862592866851800,5.643851806640625,-1.558868408203125,0.2452545166015625,1.7220306396484375
1663862592876739600,5.653739501953125,-1.648345947265625,0.4018402099609375,1.7955322265625
1663862592886627000,5.663626953125,-1.7314453125,0.800262451171875,1.796600341796875
1663862592896514800,5.673514892578125,-1.8443603515625,1.1070556640625,1.798736572265625
1663862592906402600,5.683402587890625,-1.910400390625,0.89080810546875,1.3012542724609375
1663862592916290300,5.693290283203125,-1.805999755859375,0.4615020751953125,0.689788818359375
1663862592926147300,5.703147216796875,-1.5886993408203125,1.3179779052734375,1.2543792724609375
1663862592936004600,5.713004638671875,-1.467254638671875,2.357666015625,2.1097869873046875
1663862592945922800,5.7229228515625,-1.5396881103515625,1.60772705078125,1.9521331787109375
1663862592955810600,5.732810546875,-1.662200927734375,0.5318145751953125,1.47808837890625
1663862592965698300,5.7426982421875,-1.6685943603515625,0.22607421875,1.510040283203125
1663862592975585800,5.752585693359375,-1.617462158203125,0.30596923828125,1.8051300048828125
1663862592985473500,5.7624736328125,-1.5439453125,0.3507080078125,2.0096588134765625
1663862592995361300,5.772361328125,-1.3958740234375,0.2303466796875,2.07037353515625
1663862593005218600,5.782218505859375,-1.168975830078125,0.1099700927734375,2.0288238525390625
1663862593015106000,5.79210595703125,-0.8557891845703125,0.196258544921875,2.0203094482421875
1663862593024993800,5.801993896484375,-0.5117034912109375,0.4497833251953125,2.069305419921875
1663862593034881500,5.811881591796875,-0.1942596435546875,0.786407470703125,2.13641357421875
1663862593044769300,5.821769287109375,0.050750732421875,1.0484619140625,2.2482757568359375
1663862593054657000,5.831656982421875,0.2020111083984375,1.1539306640625,2.4048614501953125
1663862593064514000,5.84151416015625,0.2627410888671875,1.1251678466796875,2.5199127197265625
1663862593074401800,5.85140185546875,0.15301513671875,0.9866790771484375,2.536956787109375
1663862593084289500,5.86128955078125,-0.1367340087890625,0.7693634033203125,2.4666595458984375
1663862593094146800,5.871146728515625,-0.4701690673828125,0.5744171142578125,2.308990478515625
1663862593104034300,5.881034423828125,-0.69281005859375,0.54779052734375,2.1012725830078125
1663862593113891600,5.8908916015625,-0.781219482421875,0.5776214599609375,1.9361572265625
1663862593123748900,5.900748779296875,-0.7322235107421875,0.513702392578125,1.8807525634765625
1663862593133636400,5.91063623046875,-0.562835693359375,0.37628173828125,1.935089111328125
1663862593143554600,5.920554443359375,-0.32421875,0.3677520751953125,1.991546630859375
1663862593153411800,5.930411865234375,-0.086669921875,0.5296783447265625,1.9830169677734375
1663862593163330000,5.940330078125,0.109344482421875,0.7576446533203125,1.923370361328125
1663862593173217800,5.9502177734375,0.25634765625,0.901458740234375,1.853057861328125
1663862593183105500,5.96010546875,0.3618011474609375,0.9270172119140625,1.8168487548828125
1663862593192993000,5.969992919921875,0.417205810546875,0.84393310546875,1.8274993896484375
1663862593202880800,5.979880859375,0.4555511474609375,0.751251220703125,1.8264312744140625
1663862593212768500,5.9897685546875,0.4683380126953125,0.6788177490234375,1.7241668701171875
1663862593222656300,5.99965625,0.4789886474609375,0.591461181640625,1.5814208984375
1663862593232544000,6.0095439453125,0.4875030517578125,0.5520477294921875,1.4290924072265625
1663862593242401000,6.019401123046875,0.4885711669921875,0.5637664794921875,1.3097686767578125
1663862593252288800,6.029288818359375,0.4534149169921875,0.546722412109375,1.2330780029296875
1663862593262176500,6.039176513671875,0.3724517822265625,0.558441162109375,1.167022705078125
1663862593272033500,6.049033447265625,0.2723236083984375,0.59466552734375,1.098846435546875
1663862593281890800,6.058890869140625,0.1700592041015625,0.56695556640625,1.0605010986328125
1663862593291778600,6.068778564453125,0.1029510498046875,0.5307464599609375,1.03387451171875
1663862593301666300,6.078666259765625,0.0773773193359375,0.522216796875,0.9923248291015625
1663862593311553800,6.0885537109375,0.0667266845703125,0.4732208251953125,0.9422607421875
1663862593321441500,6.098441650390625,0.062469482421875,0.3613739013671875,0.882598876953125
1663862593331298800,6.108298828125,0.07098388671875,0.1536407470703125,0.828277587890625
1663862593341217000,6.118217041015625,0.097625732421875,-0.0871124267578125,0.795257568359375
1663862593351104800,6.128104736328125,0.118927001953125,-0.1947021484375,0.804840087890625
1663862593360992500,6.137992431640625,0.0923004150390625,-0.162750244140625,0.8815460205078125
1663862593370849500,6.147849609375,0.0102691650390625,-0.0391693115234375,0.9891357421875
1663862593380706800,6.157706787109375,-0.0717620849609375,0.1738739013671875,1.065826416015625
1663862593390625000,6.167625,-0.109039306640625,0.342193603515625,1.07647705078125
1663862593400482000,6.17748193359375,-0.106903076171875,0.3272857666015625,1.0242919921875
1663862593410339300,6.18733935546875,-0.0792083740234375,0.217559814453125,0.9252166748046875
1663862593420257500,6.197257568359375,-0.0440521240234375,0.147247314453125,0.8080291748046875
1663862593430145300,6.207145263671875,0.0081329345703125,0.1738739013671875,0.7089691162109375
1663862593440033000,6.217032958984375,0.085906982421875,0.316619873046875,0.635467529296875
1663862593449920500,6.22692041015625,0.1902923583984375,0.48919677734375,0.576873779296875
1663862593459808300,6.236808349609375,0.2840423583984375,0.5872039794921875,0.498046875
1663862593469696000,6.246696044921875,0.3522186279296875,0.5765533447265625,0.3531646728515625
1663862593479553300,6.25655322265625,0.41400146484375,0.4615020751953125,0.1592864990234375
1663862593489410300,6.266410400390625,0.51947021484375,0.2995758056640625,-0.0452423095703125
1663862593499328500,6.27632861328125,0.633453369140625,0.1866607666015625,-0.2614898681640625
1663862593509216300,6.28621630859375,0.689910888671875,0.17919921875,-0.4883880615234375
1663862593519104000,6.29610400390625,0.6611480712890625,0.22607421875,-0.7046356201171875
1663862593528961000,6.3059609375,0.576995849609375,0.1440582275390625,-0.9091644287109375
1663862593538848800,6.315848876953125,0.527984619140625,-0.0881805419921875,-1.1286163330078125
1663862593548736500,6.325736572265625,0.5354461669921875,-0.329986572265625,-1.408782958984375
1663862593558593800,6.33559375,0.572723388671875,-0.52386474609375,-1.7677764892578125
1663862593568512000,6.345511962890625,0.6249237060546875,-0.778472900390625,-2.1768341064453125
1663862593578399700,6.355399658203125,0.6707305908203125,-1.187530517578125,-2.5880279541015625
1663862593588287200,6.365287353515625,0.6920318603515625,-1.6328125,-3.0109405517578125
1663862593598175000,6.375175048828125,0.67926025390625,-1.928955078125,-3.4445037841796875
1663862593608032300,6.3850322265625,0.6398468017578125,-1.9587860107421875,-3.7960357666015625
1663862593617889300,6.39488916015625,0.5706024169921875,-1.6754150390625,-3.9451751708984375
1663862593627777000,6.404777099609375,0.4086761474609375,-1.072479248046875,-3.850372314453125
1663862593637664800,6.414664794921875,0.1136016845703125,-0.20428466796875,-3.5222625732421875
1663862593647552500,6.424552490234375,-0.2816162109375,0.7097015380859375,-3.0780487060546875
1663862593657440300,6.434440185546875,-0.562835693359375,1.3531341552734375,-2.7286376953125
1663862593667327700,6.44432763671875,-0.5958709716796875,1.35845947265625,-2.58056640625
1663862593677185000,6.45418505859375,-0.510650634765625,0.73101806640625,-2.628509521484375
1663862593687072800,6.46407275390625,-0.3753509521484375,-0.263946533203125,-2.833038330078125
1663862593696929800,6.4739296875,-0.153778076171875,-1.368621826171875,-3.1068115234375
1663862593706848000,6.483847900390625,0.095489501953125,-2.3007354736328125,-3.3486328125
1663862593716735700,6.49373583984375,0.23504638671875,-2.7875518798828125,-3.4114837646484375
1663862593726593000,6.503593017578125,0.243560791015625,-2.7279052734375,-3.2942962646484375
1663862593736511200,6.51351123046875,0.208404541015625,-2.4136505126953125,-3.1334381103515625
1663862593746399000,6.52339892578125,0.2616729736328125,-1.984344482421875,-3.1142730712890625
1663862593756286500,6.533286376953125,0.39483642578125,-1.4527740478515625,-3.3369140625
1663862593766143700,6.543143798828125,0.5578155517578125,-0.9542388916015625,-3.700164794921875
1663862593776001000,6.5530009765625,0.7943115234375,-0.556884765625,-3.982452392578125
1663862593785888500,6.562888427734375,1.108551025390625,-0.3363800048828125,-3.9419708251953125
1663862593795806700,6.572806640625,1.418548583984375,-0.29803466796875,-3.514801025390625
1663862593805694500,6.582694580078125,1.62628173828125,-0.4045562744140625,-2.9097442626953125
1663862593815582200,6.592582275390625,1.6880645751953125,-0.595245361328125,-2.4165191650390625
1663862593825470000,6.602469970703125,1.7115020751953125,-0.659149169921875,-2.2002716064453125
1663862593835357700,6.612357666015625,1.7573089599609375,-0.650634765625,-2.170440673828125
1663862593845245400,6.622245361328125,1.77008056640625,-0.6538238525390625,-2.1075897216796875
1663862593855102500,6.6321025390625,1.7008514404296875,-0.590972900390625,-1.9477996826171875
1663862593864990200,6.641990234375,1.5655517578125,-0.5749969482421875,-1.71343994140625
1663862593874847500,6.651847412109375,1.4025726318359375,-0.639984130859375,-1.4023895263671875
1663862593884735000,6.66173486328125,1.1948394775390625,-0.7571563720703125,-1.021026611328125
1663862593894622700,6.671622802734375,0.97113037109375,-0.922271728515625,-0.6588287353515625
1663862593904480000,6.68147998046875,0.699493408203125,-1.0362548828125,-0.3413848876953125
1663862593914367700,6.69136767578125,0.32452392578125,-0.9212188720703125,-0.0239410400390625
1663862593924255200,6.701255126953125,-0.0706939697265625,-0.616546630859375,0.2743377685546875
1663862593934112500,6.711112548828125,-0.37322998046875,-0.2469024658203125,0.5161590576171875
1663862593944000300,6.721000244140625,-0.608642578125,0.0737457275390625,0.736663818359375
1663862593953888000,6.730887939453125,-0.8217010498046875,0.3006439208984375,0.9827423095703125
1663862593963806200,6.74080615234375,-0.98681640625,0.3975830078125,1.22454833984375
1663862593973663200,6.750663330078125,-1.0933380126953125,0.45404052734375,1.4482574462890625
1663862593983551000,6.760551025390625,-1.171112060546875,0.704376220703125,1.613372802734375
1663862593993438700,6.770438720703125,-1.2318267822265625,1.1187744140625,1.685821533203125
1663862594003326500,6.780326416015625,-1.3117218017578125,1.35845947265625,1.7220306396484375
1663862594013214000,6.7902138671875,-1.399078369140625,1.218902587890625,1.6325531005859375
1663862594023071200,6.8000712890625,-1.3671112060546875,0.7757568359375,1.2075042724609375
1663862594032959000,6.809958984375,-1.2201080322265625,0.8034515380859375,1.01043701171875
1663862594042846700,6.8198466796875,-1.03582763671875,1.8165130615234375,1.6219024658203125
1663862594052734500,6.829734375,-0.985748291015625,2.08709716796875,2.083160400390625
1663862594062622000,6.8396220703125,-1.1199798583984375,1.3382110595703125,1.8157806396484375
1663862594072509700,6.849509765625,-1.3479461669921875,0.800262451171875,1.7007293701171875
1663862594082397400,6.8593974609375,-1.514129638671875,0.6415252685546875,1.965972900390625
1663862594092285200,6.86928515625,-1.5759124755859375,0.548858642578125,2.1534576416015625
1663862594102173000,6.8791728515625,-1.5854949951171875,0.35498046875,2.1087188720703125
1663862594112060400,6.889060302734375,-1.5045318603515625,0.22821044921875,2.0096588134765625
1663862594121948200,6.8989482421875,-1.293609619140625,0.0822601318359375,2.025634765625
1663862594131836000,6.9088359375,-1.05712890625,0.0833282470703125,2.1151123046875
1663862594141662500,6.918662353515625,-0.8536529541015625,0.2686920166015625,2.21844482421875
1663862594151550200,6.92855029296875,-0.6714935302734375,0.499847412109375,2.3185882568359375
1663862594161438000,6.93843798828125,-0.534088134765625,0.6777496337890625,2.4282989501953125
1663862594171295200,6.948295166015625,-0.4105072021484375,0.7693634033203125,2.529510498046875
1663862594181182700,6.9581826171875,-0.2858734130859375,0.7597808837890625,2.6125946044921875
1663862594191101000,6.968100830078125,-0.2389984130859375,0.7224884033203125,2.675445556640625
1663862594200988700,6.97798876953125,-0.2933349609375,0.6532440185546875,2.6829071044921875
1663862594210876400,6.98787646484375,-0.393463134765625,0.511566162109375,2.597686767578125
1663862594220764200,6.99776416015625,-0.4552459716796875,0.3368682861328125,2.4410858154296875
1663862594230652000,7.00765185546875,-0.4456634521484375,0.1557769775390625,2.2610626220703125
1663862594240539400,7.017539306640625,-0.381744384765625,0.067352294921875,2.1119232177734375
1663862594250427100,7.02742724609375,-0.278411865234375,0.12701416015625,2.0437469482421875
1663862594260284400,7.037284423828125,-0.1612396240234375,0.31768798828125,2.057586669921875
1663862594270172200,7.047172119140625,-0.0451202392578125,0.5850677490234375,2.1012725830078125
1663862594280060000,7.057059814453125,0.0784454345703125,0.7374114990234375,2.1097869873046875
1663862594289917000,7.0669169921875,0.2243804931640625,0.683074951171875,2.038421630859375
1663862594299804700,7.0768046875,0.3511505126953125,0.4934539794921875,1.886077880859375
1663862594309692400,7.0866923828125,0.4278564453125,0.2793426513671875,1.6900787353515625
1663862594319580200,7.096580078125,0.4449005126953125,0.12701416015625,1.512176513671875
1663862594329467600,7.106467529296875,0.4086761474609375,0.0503082275390625,1.4035186767578125
1663862594339325000,7.116324951171875,0.3618011474609375,0.0258026123046875,1.37261962890625
1663862594349212700,7.126212646484375,0.2946929931640625,0.0151519775390625,1.37689208984375
1663862594359100400,7.136100341796875,0.1945648193359375,0.0407257080078125,1.37261962890625
1663862594368988000,7.14598779296875,0.095489501953125,0.0503082275390625,1.3470611572265625
1663862594378875600,7.155875732421875,0.007080078125,0.0524444580078125,1.31829833984375
1663862594388733000,7.16573291015625,-0.0834808349609375,0.092926025390625,1.3119049072265625
1663862594398590000,7.17558984375,-0.17828369140625,0.1621551513671875,1.319366455078125
1663862594408508200,7.185508056640625,-0.2613677978515625,0.238861083984375,1.3236236572265625
1663862594418396000,7.19539599609375,-0.3327484130859375,0.2686920166015625,1.3033905029296875
1663862594428253200,7.205253173828125,-0.3828125,0.26336669921875,1.258636474609375
1663862594438141000,7.215140869140625,-0.3913421630859375,0.22821044921875,1.2149658203125
1663862594448028400,7.2250283203125,-0.36895751953125,0.1483154296875,1.1755523681640625
1663862594457916200,7.234916259765625,-0.3167724609375,0.0183563232421875,1.13507080078125
1663862594467804000,7.244803955078125,-0.221954345703125,-0.158477783203125,1.079681396484375
1663862594477691600,7.254691650390625,-0.11224365234375,-0.285247802734375,0.999786376953125
1663862594487579400,7.264579345703125,-0.0483245849609375,-0.31719970703125,0.92095947265625
1663862594497436400,7.2744365234375,-0.0483245849609375,-0.285247802734375,0.8676910400390625
1663862594507324200,7.28432421875,-0.073883056640625,-0.1744537353515625,0.8442535400390625
1663862594517181400,7.294181396484375,-0.106903076171875,-0.0285186767578125,0.8367919921875
1663862594527099600,7.304099609375,-0.145263671875,0.0481719970703125,0.82720947265625
1663862594536987400,7.3139873046875,-0.1718902587890625,0.1280670166015625,0.771820068359375
1663862594546875000,7.323875,-0.1623077392578125,0.238861083984375,0.6716766357421875
1663862594556732200,7.333732177734375,-0.120758056640625,0.3826751708984375,0.574737548828125
1663862594566620000,7.343619873046875,-0.0483245849609375,0.511566162109375,0.5150909423828125
1663862594576477000,7.353476806640625,0.0315704345703125,0.522216796875,0.4788665771484375
1663862594586395100,7.36339501953125,0.1018829345703125,0.4252777099609375,0.4351959228515625
1663862594596283000,7.373282958984375,0.17431640625,0.316619873046875,0.3553009033203125
1663862594606170600,7.383170654296875,0.2616729736328125,0.1877288818359375,0.23492431640625
1663862594616058400,7.393058349609375,0.3394317626953125,0.046051025390625,0.076202392578125
1663862594625946000,7.402946044921875,0.4001617431640625,-0.023193359375,-0.1347198486328125
1663862594635833600,7.41283349609375,0.448089599609375,-0.02532958984375,-0.3882598876953125
1663862594645691000,7.42269091796875,0.461944580078125,-0.0200042724609375,-0.652435302734375
1663862594655548200,7.432548095703125,0.436370849609375,-0.0636749267578125,-0.905975341796875
1663862594665435600,7.442435546875,0.4108123779296875,-0.2181396484375,-1.1754913330078125
1663862594675293000,7.45229296875,0.42572021484375,-0.470611572265625,-1.5035858154296875
1663862594685180700,7.4621806640625,0.4800567626953125,-0.7560882568359375,-1.8945465087890625
1663862594695099000,7.472098876953125,0.5833740234375,-1.0192108154296875,-2.3483428955078125
1663862594704986600,7.481986572265625,0.7048187255859375,-1.232269287109375,-2.8745880126953125
1663862594714874000,7.4918740234375,0.7996368408203125,-1.427215576171875,-3.4178619384765625
1663862594724761900,7.501761962890625,0.83477783203125,-1.629608154296875,-3.88232421875
1663862594734619100,7.511619140625,0.8177337646484375,-1.7957916259765625,-4.1859283447265625
1663862594744507000,7.5215068359375,0.7548828125,-1.7510528564453125,-4.2679443359375
1663862594754364000,7.531364013671875,0.6259918212890625,-1.3526458740234375,-4.0932464599609375
1663862594764251600,7.541251708984375,0.356475830078125,-0.70709228515625,-3.7108154296875
1663862594774139400,7.551139404296875,-0.1037139892578125,-0.0295867919921875,-3.2016143798828125
1663862594784027100,7.561027099609375,-0.6310272216796875,0.504119873046875,-2.7563323974609375
1663862594793915000,7.570914794921875,-0.96337890625,0.704376220703125,-2.5614013671875
1663862594803802400,7.58080224609375,-1.0496673583984375,0.38800048828125,-2.593353271484375
1663862594813659600,7.59065966796875,-0.99853515625,-0.3544921875,-2.7637939453125
1663862594823547400,7.60054736328125,-0.804656982421875,-1.2812652587890625,-3.0439605712890625
1663862594833435100,7.61043505859375,-0.4328765869140625,-2.130279541015625,-3.3614044189453125
1663862594843322600,7.620322509765625,-0.027008056640625,-2.7321624755859375,-3.629852294921875
1663862594853210400,7.63021044921875,0.1604766845703125,-3.2232513427734375,-3.70123291015625
1663862594863098000,7.64009814453125,0.107208251953125,-3.5502777099609375,-3.5702056884765625
1663862594872985900,7.64998583984375,0.0358428955078125,-3.45654296875,-3.3986968994140625
1663862594882873600,7.65987353515625,0.1040191650390625,-2.997406005859375,-3.267669677734375
1663862594892761000,7.669760986328125,0.266998291015625,-2.3337554931640625,-3.28790283203125
1663862594902648800,7.67964892578125,0.459808349609375,-1.617889404296875,-3.4796600341796875
1663862594912536600,7.68953662109375,0.70269775390625,-0.983001708984375,-3.6831207275390625
1663862594922393900,7.699393798828125,0.9817962646484375,-0.51214599609375,-3.70867919921875
1663862594932281300,7.70928125,1.200164794921875,-0.320404052734375,-3.4178619384765625
1663862594942169000,7.719169189453125,1.2896575927734375,-0.445037841796875,-2.8969573974609375
1663862594952026400,7.7290263671875,1.3194732666015625,-0.5962982177734375,-2.421844482421875
1663862594961914000,7.7389140625,1.31842041015625,-0.6090850830078125,-2.1949462890625
1663862594971771100,7.748771240234375,1.291778564453125,-0.6325225830078125,-2.1246337890625
1663862594981689300,7.758689453125,1.2395782470703125,-0.670867919921875,-2.0159759521484375
1663862594991577000,7.7685771484375,1.1746063232421875,-0.7497100830078125,-1.8167724609375
1663862595001464800,7.77846484375,1.0734100341796875,-0.86474609375,-1.6186370849609375
1663862595011352600,7.7883525390625,0.929595947265625,-0.971282958984375,-1.408782958984375
1663862595021240300,7.798240234375,0.7591552734375,-1.0831298828125,-1.14459228515625
1663862595031097300,7.808097412109375,0.530120849609375,-1.2045745849609375,-0.8548431396484375
1663862595040954600,7.81795458984375,0.2520904541015625,-1.3622283935546875,-0.5437774658203125
1663862595050842400,7.82784228515625,-0.1058502197265625,-1.4889984130859375,-0.22314453125
1663862595060729900,7.837729736328125,-0.508514404296875,-1.354766845703125,0.0687408447265625
1663862595070617600,7.84761767578125,-0.861114501953125,-0.912689208984375,0.31695556640625
1663862595080505300,7.85750537109375,-1.145538330078125,-0.3374481201171875,0.5704803466796875
1663862595090393000,7.86739306640625,-1.3692474365234375,0.123809814453125,0.8836669921875
1663862595100280800,7.87728076171875,-1.5301055908203125,0.2346038818359375,1.1744842529296875
1663862595110137900,7.887137939453125,-1.615325927734375,0.070556640625,1.3790130615234375
1663862595120025600,7.897025634765625,-1.61639404296875,0.0151519775390625,1.387542724609375
1663862595129883000,7.9068828125,-1.5439453125,0.3379364013671875,1.2426605224609375
1663862595139801000,7.916801025390625,-1.5524749755859375,0.7597808837890625,1.375823974609375
1663862595149688600,7.9266884765625,-1.6195831298828125,0.92169189453125,1.422698974609375
1663862595159576300,7.936576416015625,-1.52264404296875,0.98028564453125,1.0136260986328125
1663862595169464000,7.946464111328125,-1.387359619140625,1.290283203125,1.237335205078125
1663862595179351800,7.956351806640625,-1.2541961669921875,2.1605987548828125,1.93402099609375
1663862595189239600,7.966239501953125,-1.1775054931640625,1.8644561767578125,1.968109130859375
1663862595199127000,7.976126953125,-1.3138580322265625,0.5893402099609375,1.5846099853515625
1663862595209014800,7.986014892578125,-1.5844268798828125,0.12701416015625,1.455718994140625
1663862595218872000,7.9958720703125,-1.716522216796875,0.1248779296875,1.714569091796875
1663862595228759800,8.005759765625,-1.749542236328125,0.1621551513671875,1.886077880859375
1663862595238647300,8.015647216796875,-1.6909637451171875,0.2889251708984375,1.8828887939453125
1663862595248535000,8.02553515625,-1.490692138671875,0.26123046875,1.9041900634765625
1663862595258422800,8.0354228515625,-1.194549560546875,0.170684814453125,1.9830169677734375
1663862595268280000,8.045280029296874,-0.8696441650390625,0.2069091796875,2.104461669921875
1663862595278167800,8.055167724609374,-0.5841522216796875,0.330474853515625,2.250396728515625
1663862595288055300,8.06505517578125,-0.3444671630859375,0.4732208251953125,2.400604248046875
1663862595297943000,8.074943115234374,-0.165496826171875,0.615966796875,2.5412139892578125
1663862595307830800,8.084830810546874,-0.073883056640625,0.729949951171875,2.6786346435546875
1663862595317718500,8.094718505859374,-0.0568389892578125,0.7587127685546875,2.7862396240234375
1663862595327575600,8.104575439453125,-0.0941314697265625,0.6649627685546875,2.80328369140625
1663862595337463300,8.11446337890625,-0.202789306640625,0.4359283447265625,2.699951171875
1663862595347351000,8.12435107421875,-0.3668365478515625,0.104644775390625,2.517791748046875
1663862595357238800,8.13423876953125,-0.49786376953125,-0.2436981201171875,2.3185882568359375
1663862595367126500,8.14412646484375,-0.534088134765625,-0.501495361328125,2.1545257568359375
1663862595376983600,8.153983642578124,-0.4999847412109375,-0.5845947265625,2.0416107177734375
1663862595386871300,8.163871337890624,-0.42010498046875,-0.4492950439453125,1.989410400390625
1663862595396728600,8.173728515625,-0.3178253173828125,-0.1883087158203125,1.9840850830078125
1663862595406616000,8.183615966796875,-0.21343994140625,0.0726776123046875,1.990478515625
1663862595416503800,8.19350390625,-0.098388671875,0.2122344970703125,1.9830169677734375
1663862595426391600,8.2033916015625,0.0113372802734375,0.2079620361328125,1.9499969482421875
1663862595436248800,8.213248779296874,0.0912322998046875,0.0982513427734375,1.8892822265625
1663862595446136300,8.22313623046875,0.140228271484375,0.0077056884765625,1.8051300048828125
1663862595456024000,8.233024169921874,0.165802001953125,-0.0167999267578125,1.704986572265625
1663862595465911800,8.242911865234374,0.16473388671875,-0.03704833984375,1.6123046875
1663862595475799600,8.252799560546874,0.1242523193359375,-0.071136474609375,1.5494537353515625
1663862595485656600,8.262656494140625,0.04010009765625,-0.0956268310546875,1.512176513671875
1663862595495575000,8.272574951171874,-0.0781402587890625,-0.0775146484375,1.4727630615234375
1663862595505462500,8.282462646484374,-0.2070465087890625,-0.024261474609375,1.4131011962890625
1663862595515350300,8.292350341796874,-0.3210296630859375,0.0055694580078125,1.339599609375
1663862595525207600,8.30220751953125,-0.39453125,-0.0178680419921875,1.2735595703125
1663862595535064600,8.312064697265624,-0.42010498046875,-0.082855224609375,1.2202911376953125
1663862595544982800,8.321982666015625,-0.41583251953125,-0.1243896484375,1.1872711181640625
1663862595554870500,8.33187060546875,-0.4137115478515625,-0.123321533203125,1.1659698486328125
1663862595564758300,8.34175830078125,-0.407318115234375,-0.1084136962890625,1.14892578125
1663862595574646000,8.35164599609375,-0.3785552978515625,-0.0892333984375,1.1286773681640625
1663862595584533800,8.36153369140625,-0.32635498046875,-0.07965087890625,1.103118896484375
1663862595594421200,8.371421142578125,-0.2496490478515625,-0.1190643310546875,1.0626373291015625
1663862595604309000,8.38130908203125,-0.1601715087890625,-0.21600341796875,0.985931396484375
1663862595614166300,8.391166259765624,-0.0706939697265625,-0.275665283203125,0.8719482421875
1663862595624023300,8.401023193359375,-0.0003814697265625,-0.2809906005859375,0.7622222900390625
1663862595633911000,8.4109111328125,0.039031982421875,-0.343841552734375,0.69085693359375
1663862595643798800,8.420798828125,0.048614501953125,-0.4439697265625,0.6578369140625
1663862595653686500,8.4306865234375,0.0337066650390625,-0.4535675048828125,0.6461181640625
1663862595663574300,8.44057421875,0.017730712890625,-0.35235595703125,0.631195068359375
1663862595673461800,8.450461669921875,-0.0121002197265625,-0.207489013671875,0.58538818359375
1663862595683349500,8.460349609375,-0.0717620849609375,-0.081787109375,0.5055084228515625
1663862595693237200,8.4702373046875,-0.111175537109375,0.0503082275390625,0.427734375
1663862595703125000,8.480125,-0.1132965087890625,0.1738739013671875,0.362762451171875
1663862595713012700,8.4900126953125,-0.086669921875,0.1515045166015625,0.3073577880859375
1663862595722900500,8.499900390625,-0.0440521240234375,-0.0519561767578125,0.2327880859375
1663862595732757500,8.509757568359374,0.027313232421875,-0.2777862548828125,0.1241302490234375
1663862595742645200,8.519645263671874,0.151947021484375,-0.44610595703125,-0.0335235595703125
1663862595752533000,8.529532958984374,0.2989501953125,-0.579254150390625,-0.2167510986328125
1663862595762420700,8.539420654296874,0.393768310546875,-0.6559600830078125,-0.3765411376953125
1663862595772308200,8.54930810546875,0.438507080078125,-0.649566650390625,-0.5235443115234375
1663862595782165500,8.55916552734375,0.4789886474609375,-0.57073974609375,-0.7099609375
1663862595792053200,8.56905322265625,0.55035400390625,-0.503631591796875,-0.9677581787109375
1663862595801941000,8.57894091796875,0.6387786865234375,-0.5877838134765625,-1.2862701416015625
1663862595811828500,8.588828369140625,0.7378387451171875,-0.8370513916015625,-1.6516571044921875
1663862595821716200,8.59871630859375,0.847564697265625,-1.126800537109375,-2.07989501953125
1663862595831604000,8.60860400390625,0.9551544189453125,-1.3387908935546875,-2.5645904541015625
1663862595841461200,8.618461181640624,1.0148162841796875,-1.4517059326171875,-3.040771484375
1663862595851348700,8.6283486328125,1.0020294189453125,-1.55291748046875,-3.439178466796875
1663862595861236500,8.638236572265624,0.950897216796875,-1.678619384765625,-3.7257232666015625
1663862595871124200,8.648124267578124,0.871002197265625,-1.7169647216796875,-3.87060546875
1663862595881012000,8.658011962890624,0.71014404296875,-1.617889404296875,-3.801361083984375
1663862595890899700,8.667899658203124,0.389495849609375,-1.3494415283203125,-3.4892425537109375
1663862595900756700,8.6777568359375,-0.1250152587890625,-0.9201507568359375,-3.0311737060546875
1663862595910644500,8.68764453125,-0.7311553955078125,-0.4716644287109375,-2.62530517578125
1663862595920532200,8.6975322265625,-1.1988067626953125,-0.158477783203125,-2.4186553955078125
1663862595930420000,8.707419921875,-1.366058349609375,-0.162750244140625,-2.4378204345703125
1663862595940307500,8.717307373046875,-1.329833984375,-0.630401611328125,-2.6359710693359375
1663862595950164700,8.727164794921874,-1.190277099609375,-1.356903076171875,-2.936370849609375
1663862595960052500,8.737052490234374,-0.93035888671875,-2.1239013671875,-3.265533447265625
1663862595969940200,8.746940185546874,-0.609710693359375,-2.828033447265625,-3.5659332275390625
1663862595979828000,8.756827880859374,-0.3753509521484375,-3.34149169921875,-3.780059814453125
1663862595989715500,8.766715576171874,-0.303985595703125,-3.6078033447265625,-3.850372314453125
1663862595999603200,8.776603271484374,-0.395599365234375,-3.8964996337890625,-3.67779541015625
1663862596009460500,8.78646044921875,-0.48614501953125,-4.0179290771484375,-3.35821533203125
1663862596019348200,8.79634814453125,-0.4701690673828125,-3.70794677734375,-3.1323699951171875
1663862596029235700,8.806235595703125,-0.3433990478515625,-3.0357666015625,-3.09295654296875
1663862596039123500,8.81612353515625,-0.155914306640625,-2.2059173583984375,-3.22186279296875
1663862596049011200,8.82601123046875,0.0347747802734375,-1.4091033935546875,-3.4732666015625
1663862596058899000,8.83589892578125,0.2403717041015625,-0.846649169921875,-3.665008544921875
1663862596068756000,8.845755859375,0.4310455322265625,-0.7006988525390625,-3.57659912109375
1663862596078643700,8.855643798828124,0.539703369140625,-0.877532958984375,-3.1419677734375
1663862596088531500,8.865531494140624,0.540771484375,-1.0341339111328125,-2.6125335693359375
1663862596098419200,8.875419189453124,0.53118896484375,-0.99365234375,-2.331298828125
1663862596108307000,8.885306884765624,0.5588836669921875,-1.0085601806640625,-2.25140380859375
1663862596118164000,8.8951640625,0.576995849609375,-1.1470489501953125,-2.2332916259765625
1663862596128021200,8.905021240234374,0.5578155517578125,-1.242919921875,-2.1779022216796875
1663862596137878300,8.914878173828125,0.5098724365234375,-1.255706787109375,-2.0287628173828125
1663862596147766000,8.92476611328125,0.44915771484375,-1.300445556640625,-1.817840576171875
1663862596157684200,8.934684326171874,0.3319854736328125,-1.4421234130859375,-1.5248870849609375
1663862596167572000,8.944572021484374,0.1807098388671875,-1.5710296630859375,-1.22235107421875
1663862596177459700,8.954459716796874,0.0081329345703125,-1.6487884521484375,-0.9688262939453125
1663862596187316700,8.964316650390625,-0.2049102783203125,-1.58807373046875,-0.734466552734375
1663862596197174000,8.974174072265624,-0.4488525390625,-1.3409271240234375,-0.504364013671875
1663862596207061800,8.984061767578124,-0.6959991455078125,-1.037322998046875,-0.264678955078125
1663862596216949500,8.993949462890624,-0.91864013671875,-0.7678070068359375,-0.08251953125
1663862596226867700,9.00386767578125,-1.1178436279296875,-0.5654144287109375,0.0666046142578125
1663862596236724700,9.013724853515624,-1.3032073974609375,-0.3715362548828125,0.2178802490234375
1663862596246612500,9.023612548828124,-1.486419677734375,-0.1520843505859375,0.392578125
1663862596256469800,9.0334697265625,-1.6494140625,0.0524444580078125,0.621612548828125
1663862596266388000,9.043387939453124,-1.772979736328125,0.14617919921875,0.8996429443359375
1663862596276245000,9.053244873046875,-1.86566162109375,0.1547088623046875,1.147857666015625
1663862596286163200,9.0631630859375,-1.91253662109375,0.2100982666015625,1.24798583984375
1663862596296020500,9.0730205078125,-1.8582000732421875,0.373077392578125,1.2149658203125
1663862596305877800,9.082877685546874,-1.7772369384765625,0.33154296875,1.3577117919921875
1663862596315765200,9.09276513671875,-1.695220947265625,0.0726776123046875,1.52496337890625
1663862596325683500,9.102683349609375,-1.5556640625,0.0407257080078125,1.194732666015625
1663862596335540700,9.112540771484374,-1.4171905517578125,0.5659027099609375,0.9188232421875
1663862596345428500,9.122428466796874,-1.294677734375,1.4383544921875,1.4152374267578125
1663862596355316200,9.132316162109374,-1.342620849609375,1.4404754638671875,1.7561187744140625
1663862596365203700,9.14220361328125,-1.5386199951171875,0.8822784423828125,1.533477783203125
1663862596375091500,9.152091552734374,-1.660064697265625,0.6425933837890625,1.47808837890625
1663862596384979200,9.161979248046874,-1.704803466796875,0.548858642578125,1.685821533203125
1663862596394836500,9.17183642578125,-1.7335662841796875,0.3453826904296875,1.88714599609375
1663862596404724000,9.181723876953125,-1.7111968994140625,-0.012542724609375,2.0075225830078125
1663862596414611700,9.19161181640625,-1.6345062255859375,-0.29803466796875,2.107666015625
1663862596424469000,9.201468994140624,-1.5301055908203125,-0.4674072265625,2.22802734375
1663862596434387200,9.21138720703125,-1.377777099609375,-0.54730224609375,2.334564208984375
1663862596444275000,9.22127490234375,-1.17962646484375,-0.5281219482421875,2.3878173828125
1663862596454162400,9.231162353515625,-0.9591217041015625,-0.3960418701171875,2.3984832763671875
1663862596464050200,9.24105029296875,-0.7450103759765625,-0.1638031005859375,2.3611907958984375
1663862596473938000,9.25093798828125,-0.5468597412109375,0.1440582275390625,2.30792236328125
1663862596483795200,9.260795166015624,-0.3796234130859375,0.422088623046875,2.3377532958984375
1663862596493683000,9.270682861328124,-0.2698974609375,0.568023681640625,2.4517364501953125
1663862596503570400,9.2805703125,-0.2730865478515625,0.523284912109375,2.571044921875
1663862596513458200,9.290458251953124,-0.393463134765625,0.37628173828125,2.618988037109375
1663862596523346000,9.300345947265624,-0.564971923828125,0.28253173828125,2.536956787109375
1663862596533233700,9.310233642578124,-0.7173004150390625,0.2133026123046875,2.3494720458984375
1663862596543121400,9.320121337890624,-0.75885009765625,0.1216888427734375,2.1428070068359375
1663862596553009000,9.3300087890625,-0.6970672607421875,-0.0519561767578125,2.01605224609375
1663862596562896600,9.339896728515624,-0.5692291259765625,-0.2202606201171875,1.93402099609375
1663862596572754000,9.34975390625,-0.39453125,-0.1893768310546875,1.84454345703125
1663862596582641700,9.3596416015625,-0.2198333740234375,-0.002960205078125,1.7593231201171875
1663862596592498700,9.369498779296874,-0.0674896240234375,0.1887969970703125,1.6890106201171875
1663862596602386400,9.379386474609374,0.0731201171875,0.3144989013671875,1.6357421875
1663862596612274200,9.389274169921874,0.19775390625,0.37841796875,1.57928466796875
1663862596622162000,9.399161865234374,0.2957611083984375,0.3347320556640625,1.5057830810546875
1663862596632049400,9.40904931640625,0.37884521484375,0.2133026123046875,1.433349609375
1663862596641937200,9.418937255859374,0.4044189453125,0.1334075927734375,1.386474609375
1663862596651825000,9.428824951171874,0.3522186279296875,0.1674957275390625,1.373687744140625
1663862596661712600,9.438712646484374,0.2946929931640625,0.2441864013671875,1.385406494140625
1663862596671600400,9.448600341796874,0.2744598388671875,0.3230133056640625,1.3950042724609375
1663862596681488000,9.45848779296875,0.2371673583984375,0.351776123046875,1.4045867919921875
1663862596691345200,9.46834521484375,0.1476898193359375,0.340057373046875,1.37261962890625
1663862596701233000,9.47823291015625,0.04754638671875,0.23992919921875,1.2852783203125
1663862596711120600,9.48812060546875,-0.028076171875,0.1078338623046875,1.1766204833984375
1663862596721008400,9.49800830078125,-0.0781402587890625,0.013031005859375,1.067962646484375
1663862596730896000,9.507895751953125,-0.1367340087890625,-0.0167999267578125,0.964630126953125
1663862596740783600,9.51778369140625,-0.2294158935546875,-0.0540924072265625,0.9134979248046875
1663862596750641000,9.527640869140624,-0.3316802978515625,-0.06793212890625,0.9305419921875
1663862596760498000,9.537497802734375,-0.374298095703125,-0.02532958984375,0.966766357421875
1663862596770385700,9.5473857421875,-0.327423095703125,0.020477294921875,0.9891357421875
1663862596780273400,9.5572734375,-0.2315521240234375,0.0598907470703125,0.9816741943359375
1663862596790161200,9.5671611328125,-0.1399383544921875,0.0716094970703125,0.9454498291015625
1663862596800049000,9.577048828125,-0.050445556640625,0.024749755859375,0.898590087890625
1663862596809936400,9.586936279296875,0.0432891845703125,-0.137176513671875,0.8879241943359375
1663862596819824000,9.59682421875,0.109344482421875,-0.2788543701171875,0.8932647705078125
1663862596829681400,9.606681396484374,0.1125335693359375,-0.2106781005859375,0.8474578857421875
1663862596839569200,9.616569091796874,0.0688629150390625,-0.03277587890625,0.7632904052734375
1663862596849456600,9.62645654296875,0.01666259765625,0.0971832275390625,0.7174835205078125
1663862596859344400,9.636344482421874,-0.0014495849609375,0.112091064453125,0.735595703125
1663862596869232000,9.646232177734374,0.0113372802734375,-0.00933837890625,0.769683837890625
1663862596879120000,9.656119873046874,0.0582122802734375,-0.1648712158203125,0.79205322265625
1663862596889007600,9.666007568359374,0.13916015625,-0.2777862548828125,0.805908203125
1663862596898895000,9.67589501953125,0.19775390625,-0.2916412353515625,0.8016510009765625
1663862596908782800,9.685782958984374,0.21160888671875,-0.18511962890625,0.7877960205078125
1663862596918640000,9.69564013671875,0.208404541015625,0.0034332275390625,0.781402587890625
1663862596928497200,9.7054970703125,0.208404541015625,0.2069091796875,0.7760772705078125
1663862596938385000,9.715385009765624,0.2243804931640625,0.431671142578125,0.7281341552734375
1663862596948272600,9.725272705078124,0.264862060546875,0.6553802490234375,0.6226806640625
1663862596958160400,9.735160400390624,0.33624267578125,0.7810821533203125,0.487396240234375
1663862596968048000,9.745048095703124,0.3927001953125,0.7097015380859375,0.31268310546875
1663862596977936000,9.754935791015624,0.4044189453125,0.4412689208984375,0.0666046142578125
1663862596987793000,9.76479296875,0.401214599609375,0.1291351318359375,-0.2423095703125
1663862596997680600,9.7746806640625,0.412933349609375,-0.1116180419921875,-0.5810699462890625
1663862597007568400,9.784568359375,0.4576873779296875,-0.271392822265625,-0.919830322265625
1663862597017456000,9.7944560546875,0.504547119140625,-0.3576812744140625,-1.2766876220703125
1663862597027343600,9.804343505859375,0.5365142822265625,-0.4013671875,-1.6548614501953125
1663862597037231400,9.8142314453125,0.600433349609375,-0.4173431396484375,-2.0404815673828125
1663862597047119000,9.824119140625,0.6920318603515625,-0.3076171875,-2.459136962890625
1663862597057006800,9.8340068359375,0.7836456298828125,-0.1414337158203125,-2.8735198974609375
1663862597066894600,9.84389453125,0.857147216796875,-0.0892333984375,-3.2080078125
1663862597076782000,9.853781982421875,0.91680908203125,-0.20428466796875,-3.41680908203125
1663862597086639400,9.863639404296874,0.9306640625,-0.4024200439453125,-3.5009613037109375
1663862597096527000,9.873527099609374,0.8859100341796875,-0.602691650390625,-3.4892425537109375
1663862597106414800,9.883414794921874,0.746368408203125,-0.762481689453125,-3.4104156494140625
1663862597116302300,9.89330224609375,0.492828369140625,-0.8572998046875,-3.279388427734375
1663862597126159600,9.90315966796875,0.142364501953125,-0.84344482421875,-3.107879638671875
1663862597136017000,9.913016845703124,-0.3071746826171875,-0.6101531982421875,-2.92572021484375
1663862597145904400,9.922904296875,-0.7886810302734375,-0.35662841796875,-2.70947265625
1663862597155761700,9.93276171875,-1.1849517822265625,-0.28631591796875,-2.478302001953125
1663862597165679900,9.942679931640624,-1.441680908203125,-0.3598175048828125,-2.3366241455078125
1663862597175537200,9.952537109375,-1.52264404296875,-0.5782012939453125,-2.390960693359375
1663862597185424600,9.962424560546875,-1.3894805908203125,-1.0948486328125,-2.6434173583984375
1663862597195312400,9.9723125,-1.1082611083984375,-1.9214935302734375,-3.0247802734375
1663862597205200100,9.9822001953125,-0.746063232421875,-2.7225799560546875,-3.427459716796875
1663862597215057400,9.992057373046874,-0.381744384765625,-3.2434844970703125,-3.7225341796875
1663862597224975600,10.0019755859375,-0.1058502197265625,-3.4480133056640625,-3.8301239013671875
1663862597234832600,10.01183251953125,0.0358428955078125,-3.3042144775390625,-3.7491607666015625
1663862597244720400,10.021720458984374,0.06353759765625,-2.8919525146484375,-3.528656005859375
1663862597254608100,10.031608154296874,0.041168212890625,-2.4445343017578125,-3.2463531494140625
1663862597264495900,10.041495849609374,0.0496826171875,-1.9768829345703125,-3.014129638671875
1663862597274383600,10.051383544921874,0.105072021484375,-1.413360595703125,-2.969390869140625
1663862597284240600,10.06124072265625,0.1796417236328125,-0.8860626220703125,-3.107879638671875
1663862597294128400,10.07112841796875,0.264862060546875,-0.4983062744140625,-3.3294525146484375
1663862597304016100,10.08101611328125,0.37139892578125,-0.191497802734375,-3.552093505859375
1663862597313903900,10.09090380859375,0.4662017822265625,-0.057281494140625,-3.6160125732421875
1663862597323791400,10.100791259765625,0.5322418212890625,-0.275665283203125,-3.3177337646484375
1663862597333679000,10.11067919921875,0.6185302734375,-0.651702880859375,-2.7371673583984375
1663862597343566800,10.12056689453125,0.67498779296875,-0.7816619873046875,-2.353668212890625
1663862597353454600,10.13045458984375,0.7431640625,-0.83172607421875,-2.2663116455078125
1663862597363342300,10.14034228515625,0.83905029296875,-0.969146728515625,-2.2322235107421875
1663862597373199400,10.150199462890624,0.894439697265625,-1.142791748046875,-2.1438140869140625
1663862597383056600,10.160056640625,0.8901824951171875,-1.28765869140625,-1.998931884765625
1663862597392944400,10.1699443359375,0.8603515625,-1.3654327392578125,-1.8146514892578125
1663862597402862600,10.179862548828124,0.81561279296875,-1.3771514892578125,-1.6207733154296875
1663862597412750000,10.18975,0.7378387451171875,-1.3867340087890625,-1.3800201416015625
1663862597422607400,10.199607421875,0.599365234375,-1.462371826171875,-1.0338134765625
1663862597432464600,10.209464599609374,0.440643310546875,-1.4634246826171875,-0.7099609375
1663862597442382800,10.2193828125,0.2723236083984375,-1.3835296630859375,-0.45855712890625
1663862597452270600,10.2292705078125,0.052886962890625,-1.26422119140625,-0.2401885986328125
1663862597462158000,10.239157958984375,-0.191070556640625,-1.0916595458984375,-0.0537567138671875
1663862597472015400,10.249015380859374,-0.4350128173828125,-0.8381195068359375,0.12945556640625
1663862597481903000,10.258903076171874,-0.6278228759765625,-0.6090850830078125,0.30523681640625
1663862597491760000,10.268760009765625,-0.762054443359375,-0.3736724853515625,0.4224090576171875
1663862597501648000,10.27864794921875,-0.8792266845703125,-0.0391693115234375,0.5150909423828125
1663862597511535600,10.28853564453125,-1.0251617431640625,0.3794708251953125,0.6418609619140625
1663862597521453800,10.298453857421874,-1.1988067626953125,0.716094970703125,0.8016510009765625
1663862597531341600,10.308341552734374,-1.340484619140625,0.83221435546875,0.978485107421875
1663862597541229300,10.318229248046874,-1.423583984375,0.6937255859375,1.1521148681640625
1663862597551086300,10.32808642578125,-1.48004150390625,0.468963623046875,1.2298736572265625
1663862597560943600,10.337943603515624,-1.45660400390625,0.4636383056640625,1.134002685546875
1663862597570831400,10.347831298828124,-1.42144775390625,0.686279296875,0.9028472900390625
1663862597580718800,10.35771875,-1.5311737060546875,0.6905364990234375,0.8655548095703125
1663862597590606600,10.367606689453124,-1.6558074951171875,0.3144989013671875,0.8996429443359375
1663862597600494300,10.377494384765624,-1.5151824951171875,0.4945220947265625,0.917755126953125
1663862597610382000,10.387382080078124,-1.229705810546875,1.4330291748046875,1.4258880615234375
1663862597620269800,10.397269775390624,-1.2233123779296875,1.63116455078125,1.8498687744140625
1663862597630126800,10.407126953125,-1.5769805908203125,1.1560516357421875,1.7135162353515625
1663862597640045000,10.417045166015624,-1.61639404296875,0.864166259765625,1.5462646484375
1663862597649932800,10.426932861328124,-1.3553924560546875,0.911041259765625,1.6101837158203125
1663862597659820500,10.436820556640624,-0.8206329345703125,0.845001220703125,1.5963287353515625
1663862597669677600,10.446677490234375,-0.0919952392578125,0.5733489990234375,1.342803955078125
1663862597679534800,10.456534912109374,-0.074951171875,0.21435546875,1.1649017333984375
1663862597689453000,10.466453125,-0.073883056640625,-0.1989593505859375,1.2202911376953125
1663862597699340800,10.4763408203125,0.1040191650390625,-0.2554168701171875,1.3374786376953125
1663862597709228500,10.486228515625,0.241424560546875,-0.0082855224609375,1.5057830810546875
1663862597719116300,10.4961162109375,0.4342498779296875,0.2580413818359375,1.6826171875
1663862597728973300,10.505973388671874,0.689910888671875,0.3933258056640625,1.84027099609375
1663862597738861000,10.515861083984374,0.835845947265625,0.3688201904296875,2.0320281982421875
1663862597748718300,10.52571826171875,0.6835174560546875,0.1056976318359375,2.44854736328125
1663862597758636500,10.535636474609374,0.4662017822265625,0.00238037109375,2.83416748046875
1663862597768524000,10.54552392578125,0.09869384765625,-0.00933837890625,2.7936859130859375
1663862597778411800,10.555411865234374,-0.1282196044921875,0.2921295166015625,2.2344207763671875
1663862597788299500,10.565299560546874,-0.0802764892578125,0.4412689208984375,1.73907470703125
1663862597798187300,10.575187255859374,-0.07708740234375,0.340057373046875,1.70391845703125
1663862597808075000,10.585074951171874,-0.2198333740234375,0.3464508056640625,1.9361572265625
1663862597817962500,10.59496240234375,-0.2816162109375,0.4625701904296875,2.0639801025390625
1663862597827819800,10.60481982421875,-0.2422027587890625,0.478546142578125,2.072509765625
1663862597837707500,10.61470751953125,-0.2059783935546875,0.2761383056640625,2.15240478515625
1663862597847595300,10.62459521484375,-0.1878662109375,0.0311279296875,2.3846282958984375
1663862597857482800,10.634482666015625,-0.1058502197265625,0.0290069580078125,2.595550537109375
1663862597867340000,10.644340087890624,-0.0919952392578125,0.28680419921875,2.6605377197265625
1663862597877227800,10.654227783203124,-0.1388702392578125,0.6660308837890625,2.5337677001953125
1663862597887115500,10.664115478515624,0.109344482421875,0.7406005859375,2.1555938720703125
1663862597897003000,10.6740029296875,0.575927734375,0.1131591796875,2.0298919677734375
1663862597906890800,10.683890869140624,0.74530029296875,-0.2234649658203125,2.037353515625
1663862597916778500,10.693778564453124,0.52691650390625,-0.2234649658203125,1.9510650634765625
1663862597926635800,10.7036357421875,0.2701873779296875,-0.5217437744140625,2.1310882568359375
1663862597936523500,10.7135234375,-0.142059326171875,-0.8050994873046875,2.5103302001953125
1663862597946411000,10.723410888671875,-0.6374053955078125,-0.8338623046875,2.79156494140625
1663862597956298800,10.733298828125,-0.9239654541015625,-0.515350341796875,2.84588623046875
1663862597966186500,10.7431865234375,-0.882415771484375,0.1877288818359375,2.6019439697265625
1663862597976074200,10.75307421875,-0.395599365234375,0.994140625,2.012847900390625
1663862597985962000,10.7629619140625,-0.0035858154296875,1.096405029296875,1.4141693115234375
1663862597995819000,10.772819091796874,-0.186798095703125,0.4508514404296875,1.2000579833984375
1663862598005706800,10.782706787109374,-0.4904022216796875,-0.0743255615234375,1.2916717529296875
1663862598015594500,10.792594482421874,-0.6501922607421875,-0.1765899658203125,1.406707763671875
1663862598025482200,10.802482177734374,-0.796142578125,-0.2000274658203125,1.4024505615234375
1663862598035369700,10.81236962890625,-0.9463348388671875,-0.3619537353515625,1.327880859375
1663862598045257500,10.822257568359374,-1.01983642578125,-0.60589599609375,1.2202911376953125
1663862598055114800,10.83211474609375,-0.99639892578125,-0.7923126220703125,1.0615692138671875
1663862598064971800,10.8419716796875,-1.04327392578125,-0.614410400390625,0.7760772705078125
1663862598074829000,10.8518291015625,-1.229705810546875,-0.329986572265625,0.588592529296875
1663862598084747300,10.861747314453124,-1.5609893798828125,0.11529541015625,0.520416259765625
1663862598094604500,10.8716044921875,-1.921051025390625,0.776824951171875,0.475677490234375
1663862598104522800,10.881522705078124,-2.2821807861328125,1.5917510986328125,0.4351959228515625
1663862598114410200,10.89141015625,-2.6156005859375,2.3757781982421875,0.3542327880859375
1663862598124298000,10.901298095703124,-2.7967071533203125,2.9030914306640625,0.0783233642578125
1663862598134185700,10.911185791015624,-2.9319915771484375,2.826385498046875,-0.311553955078125
1663862598144073500,10.921073486328124,-3.106689453125,2.3683319091796875,-0.6513824462890625
1663862598153961200,10.930961181640624,-3.1461029052734375,2.0359649658203125,-0.905975341796875
1663862598163818200,10.940818359375,-2.845703125,2.26605224609375,-0.9315338134765625
1663862598173675500,10.950675537109374,-2.4526214599609375,3.102294921875,-0.7419281005859375
1663862598183563300,10.960563232421874,-2.26513671875,3.543304443359375,-0.542724609375
1663862598193451000,10.970450927734374,-2.193756103515625,3.36541748046875,-0.31475830078125
1663862598203308000,10.98030810546875,-2.0201263427734375,3.169403076171875,0.041046142578125
1663862598213226200,10.990226318359374,-1.9040069580078125,3.4708709716796875,0.621612548828125
1663862598223083500,11.00008349609375,-1.8507537841796875,4.276214599609375,1.1627655029296875
1663862598232971300,11.00997119140625,-1.4736480712890625,4.433868408203125,1.54412841796875
1663862598242858800,11.019858642578125,-0.576690673828125,3.328125,1.46636962890625
1663862598252746500,11.02974658203125,0.4299774169921875,1.12835693359375,0.9710235595703125
1663862598262634200,11.03963427734375,0.7975006103515625,-0.2128143310546875,0.828277587890625
1663862598272522000,11.04952197265625,0.8859100341796875,2.6964263916015625,2.00433349609375
1663862598282409700,11.05940966796875,1.2885894775390625,7.025665283203125,3.6054229736328125
1663862598292297200,11.069297119140625,0.99884033203125,7.892791748046875,4.6280670166015625
1663862598302185000,11.07918505859375,0.3202667236328125,7.0277862548828125,4.9039764404296875
1663862598312072700,11.08907275390625,0.4044189453125,5.714324951171875,4.6056976318359375
1663862598321960400,11.09896044921875,1.3791351318359375,5.794219970703125,4.1689453125
1663862598331848200,11.10884814453125,1.8712921142578125,7.36761474609375,3.7630767822265625
1663862598341705200,11.118705322265624,2.196197509765625,7.0203399658203125,2.905548095703125
1663862598351593000,11.128593017578124,2.4859466552734375,4.438140869140625,1.695404052734375
1663862598361480700,11.138480712890624,2.8843536376953125,2.224517822265625,1.1755523681640625
1663862598371368400,11.148368408203124,3.1783599853515625,1.208251953125,1.3236236572265625
1663862598381225500,11.1582255859375,3.33709716796875,1.3850860595703125,1.4951324462890625
1663862598391113200,11.16811328125,3.300872802734375,2.2426300048828125,2.0970001220703125
1663862598400970500,11.177970458984374,3.063323974609375,2.6644744873046875,3.1793212890625
1663862598410827500,11.18782763671875,2.9503936767578125,3.0586090087890625,4.2296600341796875
1663862598420715300,11.19771533203125,3.13043212890625,3.1619415283203125,4.88800048828125
1663862598430603000,11.20760302734375,3.232696533203125,2.65380859375,5.2406005859375
1663862598440521200,11.217521240234374,3.0697021484375,2.2522125244140625,5.46856689453125
1663862598450409000,11.227408935546874,2.7234954833984375,2.9499664306640625,5.695465087890625
1663862598460266000,11.237265869140625,2.69580078125,4.036529541015625,5.5186309814453125
1663862598470153700,11.24715380859375,2.63934326171875,4.1036376953125,4.9742889404296875
1663862598480011000,11.257010986328124,2.3687591552734375,3.1448974609375,4.1955718994140625
1663862598489929200,11.26692919921875,2.056640625,1.776031494140625,3.3646697998046875
1663862598499817000,11.27681689453125,1.6539764404296875,0.27294921875,2.85546875
1663862598509704400,11.286704345703125,0.9998931884765625,-0.9393157958984375,2.821380615234375
1663862598519592200,11.29659228515625,0.2478179931640625,-1.267425537109375,3.2027435302734375
1663862598529480000,11.30647998046875,-0.5191650390625,-0.70709228515625,3.916473388671875
1663862598539367700,11.31636767578125,-1.4171905517578125,0.6340789794921875,4.93060302734375
1663862598549224700,11.326224609375,-2.33544921875,2.0072021484375,5.8765716552734375
1663862598559112400,11.336112548828124,-3.2164154052734375,1.4149169921875,6.59881591796875
1663862598569000200,11.346000244140624,-4.34027099609375,-0.971282958984375,7.2443695068359375
1663862598578888000,11.355887939453124,-5.5450897216796875,-3.2903594970703125,7.5756683349609375
1663862598588775700,11.365775634765624,-6.6699981689453125,-5.029937744140625,7.649169921875
1663862598598663200,11.3756630859375,-7.8599090576171875,-6.3796234130859375,7.52239990234375
1663862598608551000,11.385551025390624,-9.079635620117188,-7.3106689453125,7.056884765625
1663862598618408200,11.395408203125,-10.330245971679688,-7.709075927734375,6.265380859375
1663862598628296000,11.4052958984375,-11.715103149414062,-7.3511505126953125,5.3737640380859375
1663862598638153000,11.415153076171874,-12.964645385742188,-6.4105224609375,4.4576263427734375
1663862598648010200,11.42501025390625,-13.718856811523438,-5.1939849853515625,3.4754638671875
1663862598657898000,11.43489794921875,-13.831771850585938,-4.0754547119140625,2.6445465087890625
1663862598667785700,11.44478564453125,-13.334304809570312,-3.1880950927734375,2.1566619873046875
1663862598677673200,11.454673095703125,-12.446929931640625,-2.278350830078125,1.9830169677734375
1663862598687530500,11.464530517578124,-11.433868408203125,-1.446380615234375,2.102325439453125
1663862598697418200,11.474418212890624,-10.176849365234375,-1.8639678955078125,2.3409576416015625
1663862598707336400,11.48433642578125,-8.590682983398438,-2.8131256103515625,2.7659912109375
1663862598717224200,11.49422412109375,-7.1046295166015625,-3.1976776123046875,3.6150054931640625
1663862598727111700,11.504111572265625,-5.9413604736328125,-2.4147186279296875,4.9870758056640625
1663862598736999400,11.51399951171875,-4.83135986328125,-1.4964599609375,6.5242462158203125
1663862598746887200,11.52388720703125,-3.50616455078125,-1.142791748046875,7.79510498046875
1663862598756775000,11.53377490234375,-2.207611083984375,-0.34490966796875,8.55889892578125
1663862598766662700,11.54366259765625,-1.364990234375,1.688690185546875,8.875289916992188
1663862598776550100,11.553550048828125,-0.8802947998046875,3.601898193359375,8.679275512695312
1663862598786438000,11.56343798828125,-0.4797515869140625,2.14569091796875,7.488311767578125
1663862598796295200,11.573295166015624,-0.4904022216796875,-0.89031982421875,6.2270355224609375
1663862598806183000,11.583182861328124,-0.6310272216796875,-2.179290771484375,5.5101165771484375
1663862598816070400,11.5930703125,-0.68109130859375,-1.99713134765625,5.037139892578125
1663862598825927700,11.602927734375,-0.6533966064453125,-1.561431884765625,4.5524444580078125
1663862598835815400,11.6128154296875,-0.414764404296875,-1.3164215087890625,3.965484619140625
1663862598845703200,11.622703125,-0.1026458740234375,-1.0650177001953125,3.2858428955078125
1663862598855590700,11.632590576171875,0.1913604736328125,-0.69537353515625,2.51458740234375
1663862598865478400,11.642478515625,0.4523468017578125,-0.0860443115234375,1.669830322265625
1663862598875335700,11.652335693359374,0.6728668212890625,0.8151702880859375,0.9007110595703125
1663862598885223400,11.662223388671874,0.8486328125,1.9656524658203125,0.2519683837890625
1663862598895080400,11.67208056640625,0.892303466796875,3.524139404296875,-0.198638916015625
1663862598904968200,11.68196826171875,1.0435791015625,4.4317474365234375,-0.6023712158203125
1663862598914825500,11.691825439453124,1.176727294921875,4.57342529296875,-1.054046630859375
1663862598924743700,11.70174365234375,1.1841888427734375,4.4850006103515625,-1.55364990234375
1663862598934600700,11.7116005859375,1.1042938232421875,4.092987060546875,-2.012786865234375
1663862598944519000,11.721518798828125,0.94024658203125,3.3558197021484375,-2.259918212890625
1663862598954376200,11.731376220703124,0.788970947265625,2.154205322265625,-2.219451904296875
1663862598964233500,11.7412333984375,0.8539581298828125,0.85565185546875,-1.899871826171875
1663862598974121000,11.751120849609375,1.121337890625,0.38800048828125,-1.32781982421875
1663862598984008700,11.7610087890625,1.2694091796875,0.8162384033203125,-0.6726837158203125
1663862598993896400,11.770896484375,1.211883544921875,1.4671173095703125,-0.0654754638671875
1663862599003784200,11.7807841796875,1.13519287109375,1.8772430419921875,0.4692840576171875
1663862599013672000,11.790671875,1.108551025390625,1.928375244140625,0.87408447265625
1663862599023559400,11.800559326171875,1.089385986328125,1.68548583984375,1.1318817138671875
1663862599033468000,11.810468017578126,1.0584869384765625,1.4788360595703125,1.292724609375
1663862599043325200,11.8203251953125,1.0318603515625,1.4543304443359375,1.3928680419921875
1663862599053243400,11.830243408203126,0.9998931884765625,1.48095703125,1.410980224609375
1663862599063131100,11.840131103515626,0.9317169189453125,1.399993896484375,1.316162109375
1663862599072979000,11.84997900390625,0.871002197265625,1.278564453125,1.1425323486328125
1663862599082866700,11.85986669921875,0.8859100341796875,1.2029266357421875,0.9028472900390625
1663862599092754200,11.869754150390625,0.9199981689453125,1.2050628662109375,0.55450439453125
1663862599102642000,11.879641845703125,0.9221343994140625,1.3296966552734375,0.118804931640625
1663862599112529700,11.88952978515625,0.8986968994140625,1.5651092529296875,-0.2753448486328125
1663862599122417400,11.89941748046875,0.8784637451171875,1.8186492919921875,-0.56402587890625
1663862599132305200,11.90930517578125,0.8976287841796875,1.929443359375,-0.744049072265625
1663862599142192600,11.919192626953125,0.9466400146484375,1.82611083984375,-0.8175506591796875
1663862599152080400,11.929080322265625,1.02972412109375,1.5459442138671875,-0.7834625244140625
1663862599161968000,11.938968017578125,1.155426025390625,1.2348785400390625,-0.6577606201171875
1663862599171856000,11.94885595703125,1.3013763427734375,0.9951934814453125,-0.4883880615234375
1663862599181713200,11.958713134765626,1.4036407470703125,0.85565185546875,-0.348846435546875
1663862599191600600,11.9686005859375,1.430267333984375,0.807708740234375,-0.2859954833984375
1663862599201458000,11.9784580078125,1.406829833984375,0.8599090576171875,-0.304107666015625
1663862599211345700,11.988345703125,1.3471832275390625,0.99200439453125,-0.3967742919921875
1663862599221233400,11.9982333984375,1.2523651123046875,1.127288818359375,-0.5693511962890625
1663862599231121000,12.008120849609375,1.1511688232421875,1.28814697265625,-0.7770843505859375
1663862599241008600,12.018008544921875,1.0840606689453125,1.4330291748046875,-0.9464569091796875
1663862599250896400,12.027896484375,1.0318603515625,1.4980010986328125,-1.040191650390625
1663862599260784000,12.0377841796875,0.9445037841796875,1.4639129638671875,-1.051910400390625
1663862599270672000,12.047671875,0.81561279296875,1.36590576171875,-1.0220947265625
1663862599280559400,12.057559326171875,0.6771240234375,1.25299072265625,-1.006103515625
1663862599290447000,12.067447021484375,0.5897674560546875,1.20611572265625,-0.9986572265625
1663862599300304400,12.077304443359376,0.5695343017578125,1.2359466552734375,-0.99652099609375
1663862599310192000,12.087192138671876,0.586578369140625,1.231689453125,-1.009307861328125
1663862599320079600,12.09707958984375,0.611083984375,1.1208953857421875,-1.05511474609375
1663862599329967400,12.10696728515625,0.6398468017578125,0.9653778076171875,-1.1424560546875
1663862599339855000,12.116855224609376,0.6952362060546875,0.8620452880859375,-1.246856689453125
1663862599349742800,12.126742919921876,0.7548828125,0.8599090576171875,-1.3065185546875
1663862599359599900,12.136599853515625,0.802825927734375,0.9195709228515625,-1.33953857421875
1663862599369487600,12.146487548828125,0.8454437255859375,0.9430084228515625,-1.364044189453125
1663862599379375400,12.156375244140625,0.8763275146484375,0.944061279296875,-1.383209228515625
1663862599389232600,12.166232666015626,0.8986968994140625,0.8822784423828125,-1.394927978515625
1663862599399120100,12.1761201171875,0.9338531494140625,0.7288818359375,-1.3533782958984375
1663862599409007900,12.1860078125,0.995635986328125,0.704376220703125,-1.1957244873046875
1663862599418895600,12.1958955078125,1.051025390625,0.85565185546875,-0.9475250244140625
1663862599428783400,12.205783447265626,1.063812255859375,1.0079803466796875,-0.6705474853515625
1663862599438640600,12.215640625,1.01055908203125,1.059112548828125,-0.412750244140625
1663862599448497700,12.22549755859375,0.929595947265625,1.0718994140625,-0.177337646484375
1663862599458415900,12.235415771484375,0.86993408203125,1.0101165771484375,0.031463623046875
1663862599468273200,12.245273193359376,0.83905029296875,0.795989990234375,0.2157440185546875
1663862599478130200,12.255130126953125,0.8422393798828125,0.66070556640625,0.416015625
1663862599488018000,12.265017822265625,0.85076904296875,0.638336181640625,0.6194915771484375
1663862599497936100,12.27493603515625,0.828399658203125,0.592529296875,0.78033447265625
1663862599507823900,12.284823974609376,0.7666015625,0.523284912109375,0.8442535400390625
1663862599517711600,12.294711669921876,0.666473388671875,0.4955902099609375,0.74945068359375
1663862599527599400,12.304599365234376,0.5919036865234375,0.568023681640625,0.5640869140625
1663862599537486800,12.31448681640625,0.551422119140625,0.674560546875,0.339324951171875
1663862599547374600,12.32437451171875,0.5098724365234375,0.7331390380859375,0.097503662109375
1663862599557262300,12.334262451171876,0.470458984375,0.718231201171875,-0.104888916015625
1663862599567119600,12.34411962890625,0.426788330078125,0.5999908447265625,-0.2476348876953125
1663862599577007000,12.354007080078125,0.370330810546875,0.45831298828125,-0.34564208984375
1663862599586864400,12.363864501953126,0.313873291015625,0.3368682861328125,-0.41595458984375
1663862599596752100,12.373752197265626,0.245697021484375,0.2889251708984375,-0.47454833984375
1663862599606639900,12.383639892578126,0.2062835693359375,0.2580413818359375,-0.47454833984375
1663862599616527400,12.39352734375,0.1572723388671875,0.19091796875,-0.4575042724609375
1663862599626415000,12.4034150390625,0.1146697998046875,0.0641632080078125,-0.401031494140625
1663862599636302800,12.413302734375,0.0923004150390625,-0.014678955078125,-0.2945098876953125
1663862599646190600,12.423190673828126,0.0923004150390625,-0.0871124267578125,-0.15283203125
1663862599656078300,12.433078369140626,0.107208251953125,-0.1989593505859375,0.0261383056640625
1663862599665966000,12.442966064453126,0.116790771484375,-0.2341156005859375,0.2285308837890625
1663862599675853600,12.452853515625,0.093353271484375,-0.1872406005859375,0.405364990234375
1663862599685710800,12.4627109375,0.0454254150390625,-0.1414337158203125,0.5246734619140625
1663862599695568100,12.472568115234376,0.006011962890625,-0.1073455810546875,0.5928497314453125
1663862599705455600,12.48245556640625,-0.0099639892578125,-0.0498199462890625,0.631195068359375
1663862599715343400,12.49234326171875,-0.016357421875,0.013031005859375,0.6461181640625
1663862599725200600,12.50220068359375,-0.0323486328125,0.0162200927734375,0.609893798828125
1663862599735088400,12.51208837890625,-0.054718017578125,-0.0732574462890625,0.5150909423828125
1663862599744976000,12.521975830078125,-0.0696258544921875,-0.2298583984375,0.384063720703125
1663862599754863600,12.531863525390625,-0.08880615234375,-0.3843231201171875,0.2189483642578125
1663862599764721000,12.541720947265626,-0.11224365234375,-0.480194091796875,0.0346527099609375
1663862599774608600,12.551608642578126,-0.1367340087890625,-0.46954345703125,-0.1336517333984375
1663862599784526800,12.56152685546875,-0.1601715087890625,-0.31719970703125,-0.243377685546875
1663862599794384000,12.5713837890625,-0.16656494140625,-0.0775146484375,-0.2625579833984375
1663862599804271600,12.581271728515626,-0.1473846435546875,0.1525726318359375,-0.177337646484375
1663862599814159400,12.591159423828126,-0.11968994140625,0.318756103515625,-0.01434326171875
1663862599824047000,12.601047119140626,-0.10797119140625,0.3837432861328125,0.1731414794921875
1663862599833904000,12.610904052734375,-0.10797119140625,0.34112548828125,0.337188720703125
1663862599843822300,12.620822265625,-0.109039306640625,0.205841064453125,0.450103759765625
1663862599853679600,12.6306796875,-0.106903076171875,0.0172882080078125,0.4937896728515625
1663862599863567400,12.6405673828125,-0.1015777587890625,-0.1670074462890625,0.48419189453125
1663862599873424400,12.65042431640625,-0.08453369140625,-0.28631591796875,0.440521240234375
1663862599883342600,12.660342529296875,-0.054718017578125,-0.310821533203125,0.3766021728515625
1663862599893230300,12.670230224609375,-0.016357421875,-0.2724609375,0.2967071533203125
1663862599903118000,12.6801181640625,0.01666259765625,-0.207489013671875,0.1965789794921875
1663862599913005800,12.690005859375,0.050750732421875,-0.1446380615234375,0.0783233642578125
1663862599922862800,12.69986279296875,0.08697509765625,-0.104156494140625,-0.0356597900390625
1663862599932750600,12.70975048828125,0.1082763671875,-0.0849761962890625,-0.13153076171875
1663862599942638300,12.719638427734376,0.0880279541015625,-0.0998992919921875,-0.222076416015625
1663862599952495600,12.72949560546875,0.017730712890625,-0.116943359375,-0.3190155029296875
1663862599962413800,12.739413818359376,-0.0706939697265625,-0.01361083984375,-0.4180908203125
1663862599972270800,12.749270751953125,-0.142059326171875,0.229278564453125,-0.5224761962890625
1663862599982158600,12.75915869140625,-0.200653076171875,0.5967864990234375,-0.63006591796875
1663862599992046300,12.76904638671875,-0.23687744140625,0.818359375,-0.7397918701171875
1663862600001903400,12.7789033203125,-0.2230224609375,0.76190185546875,-0.8196868896484375
1663862600011821600,12.788821533203125,-0.1825408935546875,0.662841796875,-0.847381591796875
1663862600021709300,12.798709228515625,-0.155914306640625,0.686279296875,-0.80584716796875
1663862600031566600,12.808566650390626,-0.132476806640625,0.8258209228515625,-0.689727783203125
1663862600041454300,12.818454345703126,-0.1484527587890625,0.94512939453125,-0.5736083984375
1663862600051341800,12.828341796875,-0.1995849609375,0.9834747314453125,-0.4756011962890625
1663862600061229600,12.8382294921875,-0.2315521240234375,0.9163665771484375,-0.360565185546875
1663862600071086800,12.8480869140625,-0.2496490478515625,0.694793701171875,-0.2497711181640625
1663862600081005000,12.858005126953126,-0.254974365234375,0.36669921875,-0.1581573486328125
1663862600090892800,12.867892822265626,-0.23260498046875,0.0726776123046875,-0.0899810791015625
1663862600100780300,12.8777802734375,-0.1473846435546875,-0.080718994140625,-0.0090179443359375
1663862600110637600,12.887637451171875,-0.038726806640625,0.0598907470703125,0.0889892578125
1663862600120494800,12.897494873046876,0.0379638671875,0.3230133056640625,0.1720733642578125
1663862600130413000,12.9074130859375,0.0699310302734375,0.5094451904296875,0.2200164794921875
1663862600140300800,12.91730078125,0.00494384765625,0.680938720703125,0.33612060546875
1663862600150188300,12.927188232421875,-0.1527099609375,0.57122802734375,0.3339996337890625
1663862600160076000,12.937075927734375,-0.3050537109375,0.2793426513671875,0.186981201171875
1663862600169963800,12.9469638671875,-0.34765625,0.26123046875,0.0698089599609375
1663862600179821000,12.956821044921876,-0.3071746826171875,0.3389892578125,0.0101470947265625
1663862600189708500,12.96670849609375,-0.2645721435546875,0.307037353515625,-0.03033447265625
1663862600199596300,12.97659619140625,-0.2230224609375,0.2239532470703125,-0.060150146484375
1663862600209453600,12.98645361328125,-0.1836090087890625,0.2228851318359375,-0.1144866943359375
1663862600219341300,12.99634130859375,-0.1292877197265625,0.19091796875,-0.2423095703125
1663862600229228800,13.006228759765625,-0.06536865234375,0.0428466796875,-0.3509674072265625
1663862600239086000,13.016086181640626,0.0464935302734375,0.0407257080078125,-0.24658203125
1663862600248973800,13.025973876953126,0.19989013671875,0.180267333984375,-0.038848876953125
1663862600258892000,13.03589208984375,0.2584686279296875,0.2069091796875,0.0101470947265625
1663862600268779800,13.04577978515625,0.16259765625,0.088653564453125,-0.0910491943359375
