time,seconds_elapsed,z,y,x
1663862587424722200,0.20172216796875,-84.5306396484375,-64.55078125,43.6309814453125
1663862587444711400,0.22171142578125,-83.28704833984375,-63.48876953125,43.02825927734375
1663862587464669700,0.241669677734375,-83.15887451171875,-64.68505859375,45.30792236328125
1663862587484689400,0.261689453125,-81.805419921875,-65.4510498046875,44.23980712890625
1663862587504678400,0.281678466796875,-83.758544921875,-64.23492431640625,44.85321044921875
1663862587524972500,0.30197265625,-82.06939697265625,-63.63525390625,43.48602294921875
1663862587544748000,0.321748046875,-80.8624267578125,-64.23187255859375,44.39849853515625
1663862587564645400,0.341645263671875,-82.733154296875,-66.05682373046875,44.8455810546875
1663862587584634400,0.36163427734375,-82.110595703125,-65.45257568359375,44.23980712890625
1663862587604653800,0.38165380859375,-81.81610107421875,-65.91644287109375,43.170166015625
1663862587624612400,0.4016123046875,-80.2978515625,-66.2139892578125,43.475341796875
1663862587644601300,0.421601318359375,-81.2164306640625,-66.36962890625,43.32122802734375
1663862587664590300,0.44159033203125,-79.71343994140625,-67.28057861328125,43.16558837890625
1663862587684579600,0.46157958984375,-79.72564697265625,-67.755126953125,40.8782958984375
1663862587704568600,0.481568603515625,-80.3253173828125,-67.303466796875,40.57464599609375
1663862587724557600,0.5015576171875,-80.120849609375,-65.0177001953125,41.1956787109375
1663862587744546600,0.521546630859375,-78.0426025390625,-67.45758056640625,39.66217041015625
1663862587764535600,0.54153564453125,-78.0364990234375,-67.1600341796875,38.9007568359375
1663862587784524500,0.561524658203125,-77.28271484375,-67.474365234375,37.52899169921875
1663862587804519000,0.581518798828125,-75.921630859375,-67.938232421875,36.309814453125
1663862587824508000,0.6015078125,-74.48883056640625,-65.21148681640625,34.80072021484375
1663862587844497000,0.621496826171875,-72.34954833984375,-64.801025390625,28.8604736328125
1663862587864455400,0.641455322265625,-67.181396484375,-65.41900634765625,26.4251708984375
1663862587884475000,0.661474853515625,-59.55352783203125,-65.12603759765625,23.23455810546875
1663862587904433400,0.681433349609375,-54.6173095703125,-62.41607666015625,18.98651123046875
1663862587924453000,0.701453125,-50.5889892578125,-59.5367431640625,16.87164306640625
1663862587944442000,0.721442138671875,-46.05865478515625,-54.68597412109375,14.3096923828125
1663862587964431000,0.74143115234375,-41.253662109375,-51.1932373046875,12.8082275390625
1663862587984420000,0.761420166015625,-40.6829833984375,-46.1761474609375,12.98675537109375
1663862588004409000,0.7814091796875,-38.2293701171875,-38.88092041015625,12.41455078125
1663862588024398000,0.801398193359375,-35.69183349609375,-34.60845947265625,13.81072998046875
1663862588044387000,0.821386962890625,-36.75994873046875,-27.92205810546875,13.99383544921875
1663862588064376000,0.8413759765625,-32.41729736328125,-24.847412109375,17.0623779296875
1663862588084365000,0.861364990234375,-33.54339599609375,-20.733642578125,18.60504150390625
1663862588104354000,0.88135400390625,-35.20050048828125,-19.8272705078125,18.45550537109375
1663862588124343000,0.901343017578125,-36.7218017578125,-19.68231201171875,17.99774169921875
1663862588144332000,0.92133203125,-37.7655029296875,-18.62640380859375,17.2393798828125
1663862588164290600,0.94129052734375,-38.116455078125,-20.611572265625,16.314697265625
1663862588184310300,0.961310302734375,-37.85552978515625,-22.57843017578125,17.21954345703125
1663862588204299300,0.98129931640625,-35.3912353515625,-21.5087890625,17.22869873046875
1663862588224257800,1.0012578125,-33.740234375,-22.7142333984375,18.13812255859375
1663862588244277200,1.02127734375,-32.379150390625,-23.16741943359375,18.13812255859375
1663862588264266200,1.041266357421875,-32.8155517578125,-22.25494384765625,18.29376220703125
1663862588284255200,1.061255126953125,-31.63909912109375,-24.22027587890625,19.20013427734375
1663862588304244200,1.081244140625,-31.0089111328125,-23.3123779296875,18.59588623046875
1663862588324202800,1.10120263671875,-31.158447265625,-23.15826416015625,18.90106201171875
1663862588344191700,1.121191650390625,-29.1778564453125,-23.29864501953125,19.81658935546875
1663862588364211200,1.141211181640625,-30.88226318359375,-24.51324462890625,20.2667236328125
1663862588384200200,1.1612001953125,-28.1829833984375,-19.793701171875,20.75042724609375
1663862588404525000,1.181525146484375,-28.155517578125,-18.7042236328125,23.651123046875
1663862588424269800,1.201269775390625,-26.82952880859375,-14.12200927734375,26.1138916015625
1663862588444167400,1.22116748046875,-25.14495849609375,-13.9404296875,29.16412353515625
1663862588464156400,1.241156494140625,-23.83880615234375,-10.38818359375,35.58349609375
1663862588484145400,1.2611455078125,-24.07684326171875,-7.4920654296875,36.66534423828125
1663862588504164900,1.281164794921875,-23.57330322265625,-5.5023193359375,38.3514404296875
1663862588524123400,1.301123291015625,-23.895263671875,-6.2591552734375,38.80462646484375
1663862588544112400,1.3211123046875,-24.00665283203125,-4.56390380859375,41.5557861328125
1663862588564101400,1.341101318359375,-23.4130859375,-5.3131103515625,42.61932373046875
1663862588584090400,1.36109033203125,-24.90692138671875,-3.95355224609375,42.01507568359375
1663862588604079400,1.381079345703125,-24.46136474609375,-4.5440673828125,43.994140625
1663862588624068400,1.401068359375,-23.68927001953125,-4.08935546875,43.6920166015625
1663862588644057600,1.4210576171875,-22.65625,-5.609130859375,43.3807373046875
1663862588664046600,1.441046630859375,-22.30377197265625,-3.485107421875,42.9351806640625
1663862588684035600,1.46103564453125,-24.9237060546875,-4.70733642578125,42.7734375
1663862588704024600,1.481024658203125,-24.871826171875,-2.54974365234375,46.441650390625
1663862588724013600,1.501013671875,-25.335693359375,-2.850341796875,46.8963623046875
1663862588744002600,1.52100244140625,-25.43792724609375,-0.8331298828125,51.78375244140625
1663862588763991600,1.540991455078125,-21.32568359375,-1.24053955078125,56.66351318359375
1663862588783980500,1.56098046875,-23.47259521484375,-1.7120361328125,55.28717041015625
1663862588803939000,1.58093896484375,-24.8382568359375,-1.6693115234375,60.77117919921875
1663862588823958500,1.60095849609375,-25.604248046875,-1.94091796875,64.73236083984375
1663862588843947500,1.620947509765625,-27.26593017578125,-1.45263671875,69.000244140625
1663862588863936500,1.6409365234375,-29.1168212890625,-2.49176025390625,72.344970703125
1663862588883925800,1.66092578125,-31.85577392578125,-2.33612060546875,73.5626220703125
1663862588903914800,1.680914794921875,-35.8245849609375,-2.62603759765625,76.1474609375
1663862588923903700,1.70090380859375,-36.00311279296875,-3.81927490234375,78.8848876953125
1663862588943892700,1.720892822265625,-36.773681640625,-4.26788330078125,79.94842529296875
1663862588963881700,1.7408818359375,-37.84027099609375,-4.254150390625,81.77642822265625
1663862588983870700,1.76087060546875,-38.90838623046875,-4.2633056640625,81.011962890625
1663862589003859700,1.780859619140625,-35.845947265625,-3.662109375,79.4952392578125
1663862589023848700,1.8008486328125,-35.56976318359375,-5.01556396484375,81.011962890625
1663862589043837700,1.820837646484375,-34.0484619140625,-5.1666259765625,80.86090087890625
1663862589063796200,1.840796142578125,-31.18438720703125,-6.54296875,79.0283203125
1663862589083815700,1.860815673828125,-29.1717529296875,-5.30242919921875,81.475830078125
1663862589103805000,1.880804931640625,-27.3834228515625,-7.12738037109375,81.011962890625
1663862589123794000,1.9007939453125,-27.42462158203125,-8.94012451171875,82.22198486328125
1663862589143783000,1.920782958984375,-25.61187744140625,-9.69390869140625,82.525634765625
1663862589163772000,1.94077197265625,-22.75543212890625,-11.5142822265625,82.21435546875
1663862589183761000,1.960760986328125,-21.6033935546875,-14.53704833984375,83.8775634765625
1663862589203750000,1.98075,-21.91314697265625,-14.82696533203125,85.70404052734375
1663862589223739000,2.00073876953125,-21.82159423828125,-17.55828857421875,86.1480712890625
1663862589243728000,2.020727783203125,-21.91925048828125,-21.94671630859375,88.4124755859375
1663862589263686400,2.040686279296875,-19.17724609375,-22.088623046875,88.87176513671875
1663862589284041700,2.061041748046875,-19.5404052734375,-24.65972900390625,90.38238525390625
1663862589303817000,2.08081689453125,-20.30181884765625,-24.6551513671875,91.143798828125
1663862589323683800,2.100683837890625,-19.9127197265625,-27.69012451171875,91.5863037109375
1663862589343673000,2.120673095703125,-18.731689453125,-29.49981689453125,93.10302734375
1663862589363662000,2.140662109375,-19.6746826171875,-30.71746826171875,92.9443359375
1663862589383651000,2.160651123046875,-19.6868896484375,-31.18438720703125,91.72210693359375
1663862589403640000,2.18064013671875,-21.06170654296875,-31.33697509765625,92.0257568359375
1663862589423629000,2.200629150390625,-20.92132568359375,-31.9305419921875,93.6981201171875
1663862589443618000,2.2206181640625,-21.0693359375,-31.6375732421875,92.327880859375
1663862589463607000,2.24060693359375,-20.14312744140625,-31.17218017578125,93.2464599609375
1663862589483596000,2.260595947265625,-20.14312744140625,-31.17523193359375,92.9412841796875
1663862589503585000,2.2805849609375,-20.40863037109375,-29.364013671875,91.42608642578125
1663862589523574000,2.300573974609375,-19.90509033203125,-27.3834228515625,92.04559326171875
1663862589543563000,2.32056298828125,-19.52972412109375,-24.20501708984375,90.38543701171875
1663862589563552000,2.340552001953125,-19.51751708984375,-23.60992431640625,88.8641357421875
1663862589583541200,2.360541259765625,-19.3511962890625,-22.99957275390625,89.019775390625
1663862589603530200,2.3805302734375,-20.35980224609375,-20.42388916015625,88.421630859375
1663862589623519200,2.400519287109375,-20.03631591796875,-19.39544677734375,84.00726318359375
1663862589643508200,2.42050830078125,-19.81964111328125,-16.65191650390625,84.93499755859375
1663862589663497200,2.440497314453125,-20.51544189453125,-13.75732421875,86.01531982421875
1663862589683486200,2.460486328125,-22.7386474609375,-10.7513427734375,82.5225830078125
1663862589703475200,2.48047509765625,-23.52447509765625,-11.81793212890625,82.5164794921875
1663862589723464200,2.500464111328125,-25.01220703125,-10.1593017578125,81.30340576171875
1663862589743453200,2.520453125,-25.006103515625,-9.85870361328125,80.84869384765625
1663862589763411700,2.54041162109375,-26.64642333984375,-8.19854736328125,79.9407958984375
1663862589783431200,2.56043115234375,-27.27203369140625,-8.82110595703125,78.26080322265625
1663862589803420200,2.580420166015625,-27.82440185546875,-6.243896484375,77.66265869140625
1663862589823409400,2.600409423828125,-27.197265625,-5.487060546875,77.20947265625
1663862589843398400,2.6203984375,-29.18243408203125,-5.63812255859375,77.8167724609375
1663862589863387400,2.640387451171875,-28.11126708984375,-5.3466796875,75.99029541015625
1663862589883376400,2.66037646484375,-27.80914306640625,-5.49468994140625,76.446533203125
1663862589903365400,2.680365478515625,-30.40008544921875,-5.4901123046875,77.66265869140625
1663862589923354400,2.700354248046875,-30.9814453125,-4.27093505859375,78.12652587890625
1663862589943343400,2.72034326171875,-31.88629150390625,-3.68804931640625,75.384521484375
1663862589963332400,2.740332275390625,-32.2021484375,-4.150390625,74.62005615234375
1663862589983321300,2.7603212890625,-33.06732177734375,-2.0233154296875,74.93438720703125
1663862590003310300,2.780310302734375,-34.4512939453125,-2.48870849609375,74.16839599609375
1663862590023299300,2.80029931640625,-33.2000732421875,-1.11846923828125,74.0234375
1663862590043288300,2.820288330078125,-34.75341796875,-2.34222412109375,73.5595703125
1663862590063277600,2.840277587890625,-36.73858642578125,-2.48565673828125,74.92828369140625
1663862590083266600,2.8602666015625,-36.86981201171875,-1.5716552734375,75.38909912109375
1663862590103255600,2.880255615234375,-35.79254150390625,-1.12457275390625,74.0203857421875
1663862590123244500,2.90024462890625,-34.87396240234375,-0.96588134765625,74.47967529296875
1663862590143233500,2.920233642578125,-37.32452392578125,-1.42974853515625,74.169921875
1663862590163558100,2.94055810546875,-33.3709716796875,-2.00347900390625,77.37274169921875
1663862590183333600,2.960333740234375,-32.6446533203125,-3.54156494140625,74.9267578125
1663862590203231000,2.98023095703125,-32.62481689453125,-2.75726318359375,77.825927734375
1663862590223189500,3.000189453125,-30.40771484375,-5.92803955078125,79.7943115234375
1663862590243178500,3.020178466796875,-25.9063720703125,-9.24530029296875,81.76422119140625
1663862590263167500,3.04016748046875,-22.14202880859375,-11.23199462890625,79.473876953125
1663862590283156700,3.06015673828125,-22.78900146484375,-12.90435791015625,79.6173095703125
1663862590303145700,3.080145751953125,-22.9705810546875,-14.2578125,81.28662109375
1663862590323165200,3.100165283203125,-22.54486083984375,-15.753173828125,84.02252197265625
1663862590343123700,3.120123779296875,-20.58258056640625,-16.6534423828125,84.93499755859375
1663862590363112700,3.14011279296875,-20.79620361328125,-19.38629150390625,85.3790283203125
1663862590383132200,3.160132080078125,-17.8253173828125,-22.86834716796875,86.279296875
1663862590403121200,3.18012109375,-17.242431640625,-24.07684326171875,86.883544921875
1663862590423110100,3.200110107421875,-17.333984375,-28.167724609375,88.38653564453125
1663862590443099100,3.22009912109375,-17.05780029296875,-29.51507568359375,90.81878662109375
1663862590463088000,3.240088134765625,-16.3543701171875,-32.1014404296875,90.19775390625
1663862590483077400,3.260077392578125,-17.254638671875,-31.488037109375,91.11480712890625
1663862590503066400,3.28006640625,-19.586181640625,-33.46710205078125,91.253662109375
1663862590523025000,3.30002490234375,-19.39849853515625,-31.9366455078125,92.48046875
1663862590543014000,3.320013916015625,-19.92950439453125,-28.45306396484375,91.278076171875
1663862590563003000,3.3400029296875,-20.8587646484375,-29.058837890625,91.73126220703125
1663862590582992000,3.359991943359375,-22.9248046875,-26.0284423828125,91.1346435546875
1663862590602980900,3.37998095703125,-22.10693359375,-23.5992431640625,90.69061279296875
1663862590622969900,3.399969970703125,-21.7529296875,-21.3409423828125,88.1103515625
1663862590642958800,3.419958740234375,-22.625732421875,-19.38018798828125,86.59515380859375
1663862590662947800,3.43994775390625,-23.05450439453125,-18.1640625,86.75384521484375
1663862590682936800,3.459936767578125,-23.046875,-17.72308349609375,84.9273681640625
1663862590702925800,3.47992578125,-23.88763427734375,-14.39208984375,83.57086181640625
1663862590722914800,3.499914794921875,-22.9583740234375,-13.7847900390625,83.4228515625
1663862590742903800,3.51990380859375,-24.12872314453125,-11.52801513671875,80.99365234375
1663862590762893000,3.53989306640625,-26.72882080078125,-11.83624267578125,80.98907470703125
1663862590782882000,3.559882080078125,-28.51104736328125,-9.72137451171875,79.93011474609375
1663862590802871000,3.57987109375,-29.40521240234375,-8.807373046875,80.54351806640625
1663862590822860000,3.599860107421875,-30.13916015625,-7.5897216796875,80.853271484375
1663862590842818600,3.619818603515625,-31.9549560546875,-6.982421875,81.31256103515625
1663862590862838000,3.639838134765625,-32.5531005859375,-6.52008056640625,82.07550048828125
1663862590882827000,3.659826904296875,-32.68280029296875,-5.3314208984375,78.88031005859375
1663862590902816000,3.67981591796875,-37.200927734375,-2.9052734375,79.49676513671875
1663862590922805000,3.699804931640625,-36.80419921875,-5.63201904296875,80.3985595703125
1663862590942794000,3.7197939453125,-37.841796875,-4.2694091796875,79.9468994140625
1663862590962783000,3.739782958984375,-40.27252197265625,-3.82537841796875,79.1839599609375
1663862590982772000,3.75977197265625,-41.033935546875,-3.82080078125,79.94537353515625
1663862591002761200,3.77976123046875,-41.94488525390625,-3.67431640625,79.48760986328125
1663862591022750200,3.799750244140625,-42.98095703125,-2.3040771484375,80.1025390625
1663862591043105300,3.820105224609375,-43.90106201171875,-2.46734619140625,78.8818359375
1663862591062850300,3.839850341796875,-44.84405517578125,-3.69415283203125,77.960205078125
1663862591082717200,3.85971728515625,-46.9482421875,-2.33306884765625,77.65960693359375
1663862591102736600,3.879736572265625,-46.484375,-2.032470703125,77.05230712890625
1663862591122695200,3.899695068359375,-47.56317138671875,-2.49176025390625,77.04925537109375
1663862591142684200,3.91968408203125,-48.79150390625,-2.94189453125,77.960205078125
1663862591162673200,3.939673095703125,-49.35150146484375,-0.677490234375,76.2939453125
1663862591182662100,3.959662109375,-48.03009033203125,-2.94036865234375,77.960205078125
1663862591202681900,3.979681884765625,-49.54681396484375,-2.6397705078125,77.960205078125
1663862591222640000,3.99964013671875,-49.407958984375,-3.24554443359375,78.1097412109375
1663862591242629400,4.01962939453125,-47.72491455078125,-2.947998046875,76.89361572265625
1663862591262618400,4.039618408203125,-47.54180908203125,-1.70745849609375,79.94842529296875
1663862591282577000,4.059576904296875,-44.83489990234375,-3.37371826171875,79.791259765625
1663862591302596400,4.079596435546875,-43.463134765625,-3.369140625,80.09796142578125
1663862591322585300,4.09958544921875,-39.9749755859375,-4.25872802734375,81.77337646484375
1663862591342544000,4.1195439453125,-39.06097412109375,-4.3975830078125,83.1451416015625
1663862591362563300,4.139563232421875,-37.2802734375,-6.53076171875,82.06939697265625
1663862591382552300,4.15955224609375,-33.86383056640625,-3.7872314453125,82.24029541015625
1663862591402510800,4.1795107421875,-29.78363037109375,-5.31768798828125,79.95147705078125
1663862591422530300,4.1995302734375,-29.49371337890625,-6.0638427734375,81.47125244140625
1663862591442519300,4.219519287109375,-30.1544189453125,-8.33740234375,82.37457275390625
1663862591462508500,4.239508544921875,-29.68902587890625,-8.0230712890625,83.44268798828125
1663862591482497500,4.25949755859375,-26.99432373046875,-10.28594970703125,84.80682373046875
1663862591502486500,4.279486572265625,-26.2451171875,-10.88409423828125,85.71929931640625
1663862591522475500,4.2994755859375,-24.91302490234375,-12.5640869140625,84.33990478515625
1663862591542464500,4.319464599609375,-25.6744384765625,-12.56256103515625,84.796142578125
1663862591562453500,4.33945361328125,-23.86016845703125,-13.31024169921875,85.86273193359375
1663862591582442500,4.3594423828125,-26.3092041015625,-13.763427734375,86.77215576171875
1663862591602431500,4.379431396484375,-26.0009765625,-13.60321044921875,87.68768310546875
1663862591622420500,4.39942041015625,-26.01776123046875,-14.36004638671875,87.98828125
1663862591642409500,4.419409423828125,-27.08587646484375,-14.373779296875,86.614990234375
1663862591662398500,4.4393984375,-28.271484375,-12.8509521484375,87.2314453125
1663862591682357000,4.45935693359375,-28.22418212890625,-10.7391357421875,85.41259765625
1663862591702376700,4.479376708984375,-27.60162353515625,-10.13031005859375,85.2630615234375
1663862591722365700,4.49936572265625,-30.4534912109375,-8.03070068359375,82.67974853515625
1663862591742354700,4.519354736328125,-30.28106689453125,-7.12890625,81.46514892578125
1663862591762343700,4.53934375,-29.5196533203125,-7.13958740234375,79.94232177734375
1663862591782332700,4.559332763671875,-31.30035400390625,-5.00946044921875,80.712890625
1663862591802321700,4.57932177734375,-32.9498291015625,-3.668212890625,77.97393798828125
1663862591822310700,4.599310546875,-32.4951171875,-3.68499755859375,75.84075927734375
1663862591842299600,4.619299560546875,-34.29412841796875,-2.325439453125,75.38909912109375
1663862591862288600,4.63928857421875,-35.78033447265625,-0.52032470703125,73.56719970703125
1663862591882277600,4.659277587890625,-35.9771728515625,-2.49176025390625,74.1668701171875
1663862591902266600,4.6792666015625,-39.74456787109375,-0.52490234375,74.01885986328125
1663862591922622000,4.6996220703125,-40.496826171875,-0.08087158203125,72.80120849609375
1663862591942397400,4.7193974609375,-41.8487548828125,0.82855224609375,72.80426025390625
1663862591962264300,4.739264404296875,-43.829345703125,0.96893310546875,71.88873291015625
1663862591982222800,4.759222900390625,-44.59228515625,0.96435546875,71.58355712890625
1663862592002211800,4.7792119140625,-46.2310791015625,2.63214111328125,71.43707275390625
1663862592022186200,4.799186279296875,-48.40087890625,1.10931396484375,71.7315673828125
1663862592042175200,4.81917529296875,-50.52490234375,1.5655517578125,72.1893310546875
1663862592062164200,4.839164306640625,-50.23651123046875,0.8056640625,72.18475341796875
1663862592082153200,4.8591533203125,-51.31072998046875,0.50506591796875,72.79205322265625
1663862592102111700,4.87911181640625,-52.532958984375,0.36163330078125,74.16229248046875
1663862592122131200,4.899131103515625,-54.99114990234375,-0.54473876953125,75.37384033203125
1663862592142120400,4.919120361328125,-55.26123046875,1.11083984375,73.553466796875
1663862592162109400,4.939109375,-55.13916015625,-0.25787353515625,73.39324951171875
1663862592182098400,4.959098388671875,-55.71441650390625,1.2664794921875,74.16229248046875
1663862592202087400,4.97908740234375,-56.19964599609375,0.04425048828125,73.394775390625
1663862592222076400,4.999076416015625,-56.683349609375,-1.165771484375,74.30267333984375
1663862592242065400,5.0190654296875,-57.3089599609375,-1.788330078125,72.62115478515625
1663862592262054400,5.039054443359375,-58.367919921875,-1.4739990234375,74.1455078125
1663862592282043400,5.05904345703125,-58.6822509765625,-1.79443359375,72.31597900390625
1663862592302032400,5.079032470703125,-58.04595947265625,-0.7080078125,74.91302490234375
1663862592322021400,5.099021484375,-60.01434326171875,-0.11138916015625,73.9990234375
1663862592342010400,5.11901025390625,-60.80169677734375,-1.1749267578125,74.298095703125
1663862592361969000,5.138968994140625,-60.96038818359375,-1.47705078125,74.4476318359375
1663862592381988600,5.158988525390625,-59.11865234375,-1.01165771484375,75.21514892578125
1663862592401977600,5.1789775390625,-60.7879638671875,-0.56610107421875,74.29962158203125
1663862592421966600,5.198966552734375,-60.16845703125,-0.244140625,76.28326416015625
1663862592441955600,5.21895556640625,-57.58514404296875,-0.69122314453125,76.74102783203125
1663862592461944600,5.238944580078125,-54.522705078125,-0.079345703125,76.4434814453125
1663862592481933600,5.25893359375,-54.9896240234375,-0.53253173828125,76.898193359375
1663862592501922600,5.278922607421875,-53.1585693359375,-0.5218505859375,77.66265869140625
1663862592521881000,5.298881103515625,-50.59661865234375,-1.8798828125,78.2684326171875
1663862592541900500,5.318900634765625,-47.34039306640625,0.5584716796875,78.28369140625
1663862592561889500,5.3388896484375,-45.35369873046875,0.7171630859375,78.5919189453125
1663862592581878500,5.35887841796875,-39.276123046875,-0.06256103515625,74.63226318359375
1663862592601867500,5.378867431640625,-37.2955322265625,-0.20294189453125,75.54779052734375
1663862592621826000,5.398825927734375,-36.3861083984375,-0.4913330078125,77.22320556640625
1663862592641845800,5.418845703125,-35.7818603515625,-0.787353515625,77.984619140625
1663862592661834800,5.438834716796875,-32.2998046875,-1.98211669921875,79.6600341796875
1663862592681793300,5.458793212890625,-29.58526611328125,-3.33251953125,80.8746337890625
1663862592701812700,5.478812744140625,-29.04205322265625,-6.2255859375,80.0994873046875
1663862592721801700,5.4988017578125,-26.62811279296875,-7.42950439453125,81.01043701171875
1663862592741760300,5.51876025390625,-26.66168212890625,-8.94317626953125,81.7657470703125
1663862592761779700,5.53877978515625,-25.41961669921875,-8.013916015625,83.447265625
1663862592781768700,5.558768798828125,-24.8382568359375,-9.23309326171875,82.98492431640625
1663862592802002000,5.579001953125,-25.897216796875,-8.91876220703125,84.356689453125
1663862592821899300,5.598899169921875,-25.7293701171875,-8.30535888671875,84.9700927734375
1663862592841735700,5.618735595703125,-26.96533203125,-8.92333984375,84.051513671875
1663862592861725000,5.638724853515625,-26.4556884765625,-6.5185546875,80.8624267578125
1663862592881744400,5.658744384765625,-26.88446044921875,-5.2978515625,81.4788818359375
1663862592901703000,5.678702880859375,-27.4688720703125,-4.10003662109375,79.50286865234375
1663862592921661400,5.698661376953125,-29.45709228515625,-4.27398681640625,77.3651123046875
1663862592941681000,5.718680908203125,-30.450439453125,-0.94451904296875,76.00860595703125
1663862592961670000,5.738669921875,-30.584716796875,-0.048828125,74.0325927734375
1663862592981628400,5.75862841796875,-33.47015380859375,0.53253173828125,71.74530029296875
1663862593001647900,5.77864794921875,-34.98992919921875,0.82244873046875,70.37353515625
1663862593021636900,5.798636962890625,-34.6771240234375,1.1322021484375,70.98541259765625
1663862593041595400,5.818595458984375,-36.91253662109375,3.53546142578125,68.25103759765625
1663862593061614800,5.83861474609375,-38.30108642578125,2.78167724609375,69.31304931640625
1663862593081603800,5.858603759765625,-41.180419921875,3.533935546875,69.00787353515625
1663862593101562400,5.878562255859375,-42.87872314453125,2.62298583984375,69.61212158203125
1663862593121582000,5.89858203125,-46.21124267578125,3.66973876953125,68.39447021484375
1663862593141571000,5.918571044921875,-45.7489013671875,3.95050048828125,65.4998779296875
1663862593161529600,5.938529541015625,-49.102783203125,3.9581298828125,67.3248291015625
1663862593181549000,5.958549072265625,-49.8748779296875,3.5064697265625,67.93212890625
1663862593201538000,5.9785380859375,-52.16064453125,3.50341796875,68.2342529296875
1663862593221496600,5.99849658203125,-52.01263427734375,3.3477783203125,67.7764892578125
1663862593241516000,6.01851611328125,-54.15802001953125,2.89306640625,68.3807373046875
1663862593261505000,6.038505126953125,-54.486083984375,1.83563232421875,69.1375732421875
1663862593281463600,6.058463623046875,-55.52825927734375,2.90374755859375,69.903564453125
1663862593301483000,6.07848291015625,-56.14013671875,2.7557373046875,70.51239013671875
1663862593321472300,6.09847216796875,-57.977294921875,2.45361328125,71.270751953125
1663862593341461200,6.118461181640625,-58.60443115234375,1.69219970703125,71.26617431640625
1663862593361450200,6.1384501953125,-59.05609130859375,1.97906494140625,69.28558349609375
1663862593381439200,6.158439208984375,-58.93707275390625,0.4730224609375,70.95489501953125
1663862593401397800,6.178397705078125,-59.3994140625,0.31280517578125,70.03936767578125
1663862593421417200,6.198417236328125,-61.041259765625,1.8280029296875,69.89288330078125
1663862593441406200,6.21840625,-61.834716796875,0.4638671875,70.64666748046875
1663862593461395200,6.238395263671875,-60.736083984375,1.8341064453125,70.654296875
1663862593481384200,6.25838427734375,-61.5020751953125,1.68304443359375,70.80535888671875
1663862593501373200,6.278373291015625,-61.53717041015625,0.030517578125,73.08349609375
1663862593521362200,6.298362060546875,-61.2335205078125,0.02593994140625,72.625732421875
1663862593541351200,6.31835107421875,-61.82403564453125,0.7965087890625,74.00054931640625
1663862593561340400,6.33834033203125,-60.92071533203125,0.32806396484375,72.3236083984375
1663862593581329400,6.358329345703125,-59.0576171875,1.7181396484375,74.4659423828125
1663862593601318400,6.378318359375,-57.84149169921875,1.57012939453125,74.6185302734375
1663862593621307400,6.398307373046875,-55.7220458984375,0.95062255859375,72.63641357421875
1663862593641296400,6.41829638671875,-53.10516357421875,1.89666748046875,76.1505126953125
1663862593661285400,6.438285400390625,-49.1363525390625,2.19573974609375,74.63226318359375
1663862593681518600,6.4585185546875,-45.0164794921875,2.2247314453125,76.922607421875
1663862593701416000,6.478416015625,-43.48602294921875,2.5146484375,74.945068359375
1663862593721252400,6.49825244140625,-41.51153564453125,2.2125244140625,74.639892578125
1663862593741271800,6.518271728515625,-36.6668701171875,0.701904296875,74.48577880859375
1663862593761230300,6.538230224609375,-34.36279296875,1.336669921875,77.08282470703125
1663862593781188900,6.55818896484375,-30.4656982421875,-1.68914794921875,77.8350830078125
1663862593801208600,6.57820849609375,-29.43115234375,-3.19061279296875,79.656982421875
1663862593821197600,6.598197509765625,-26.3916015625,-3.63922119140625,79.81109619140625
1663862593841186600,6.6181865234375,-25.54779052734375,-6.82373046875,80.40618896484375
1663862593861145000,6.63814501953125,-26.30767822265625,-6.79931640625,83.60595703125
1663862593881164500,6.65816455078125,-24.54833984375,-9.97314453125,85.11505126953125
1663862593901153500,6.678153564453125,-24.07379150390625,-9.2132568359375,85.11962890625
1663862593921142500,6.698142578125,-24.87640380859375,-11.0321044921875,85.87188720703125
1663862593941131500,6.718131591796875,-24.1058349609375,-10.71929931640625,86.6363525390625
1663862593961120500,6.73812060546875,-25.29296875,-9.20867919921875,85.88104248046875
1663862593981109500,6.758109619140625,-26.171875,-7.5592041015625,83.44879150390625
1663862594001098500,6.778098388671875,-26.42822265625,-5.4290771484375,83.917236328125
1663862594021057000,6.79805712890625,-27.3468017578125,-5.5908203125,83.00018310546875
1663862594041076700,6.81807666015625,-29.31060791015625,-4.6966552734375,81.3262939453125
1663862594061065700,6.838065673828125,-28.36456298828125,-3.1951904296875,78.89556884765625
1663862594081024300,6.858024169921875,-30.17730712890625,-2.447509765625,77.83050537109375
1663862594101043700,6.878043701171875,-30.908203125,-0.946044921875,76.00860595703125
1663862594121032700,6.89803271484375,-33.01849365234375,0.10986328125,75.55389404296875
1663862594140991200,6.9179912109375,-35.30426025390625,0.2471923828125,74.33319091796875
1663862594161010700,6.9380107421875,-36.18011474609375,2.04925537109375,71.9024658203125
1663862594180999700,6.957999755859375,-39.22576904296875,2.20184326171875,72.81494140625
1663862594200988700,6.97798876953125,-39.5172119140625,2.8045654296875,72.3602294921875
1663862594220977700,6.997977783203125,-42.73834228515625,2.0294189453125,71.2860107421875
1663862594240966700,7.017966552734375,-45.88623046875,4.3182373046875,73.12164306640625
1663862594260955600,7.03795556640625,-48.21014404296875,2.7801513671875,71.588134765625
1663862594280945000,7.05794482421875,-48.35052490234375,3.37982177734375,70.6756591796875
1663862594300934000,7.077933837890625,-49.70703125,3.99169921875,71.44012451171875
1663862594320923000,7.0979228515625,-51.9927978515625,4.00238037109375,73.2666015625
1663862594340911900,7.117911865234375,-53.25927734375,2.00958251953125,71.5789794921875
1663862594360900900,7.13790087890625,-54.91485595703125,2.9266357421875,72.49603271484375
1663862594380889900,7.157889892578125,-54.4403076171875,3.6865234375,72.49908447265625
1663862594400878800,7.17787890625,-56.329345703125,1.1016845703125,72.78900146484375
1663862594420867800,7.197867919921875,-58.1146240234375,2.93731689453125,74.62615966796875
1663862594440856800,7.21785693359375,-57.82928466796875,2.16217041015625,72.7935791015625
1663862594460845800,7.237845703125,-58.13446044921875,2.16217041015625,72.79205322265625
1663862594480834800,7.257834716796875,-61.0565185546875,1.0833740234375,71.71783447265625
1663862594500824000,7.277823974609375,-61.01531982421875,2.90374755859375,71.42181396484375
1663862594520813000,7.29781298828125,-62.38861083984375,2.89459228515625,70.6573486328125
1663862594540802000,7.317802001953125,-63.818359375,0.32196044921875,72.320556640625
1663862594561035000,7.338034912109375,-63.05084228515625,0.61492919921875,70.7977294921875
1663862594580963000,7.357963134765625,-64.117431640625,0.616455078125,71.25396728515625
1663862594600799500,7.377799560546875,-63.6627197265625,0.4730224609375,72.16796875
1663862594620758000,7.397758056640625,-62.90130615234375,0.47149658203125,71.71173095703125
1663862594640747000,7.4177470703125,-65.0299072265625,0.76446533203125,70.94879150390625
1663862594660736000,7.437736083984375,-65.23284912109375,-1.507568359375,71.85211181640625
1663862594680725000,7.45772509765625,-64.32037353515625,-1.6510009765625,72.76763916015625
1663862594700714000,7.4777138671875,-62.92266845703125,-0.5706787109375,74.298095703125
1663862594720703000,7.497702880859375,-60.32867431640625,-0.5523681640625,75.82550048828125
1663862594740692200,7.517692138671875,-58.59527587890625,2.0050048828125,72.33428955078125
1663862594760681200,7.53768115234375,-55.224609375,2.6397705078125,74.627685546875
1663862594780670200,7.557670166015625,-51.5838623046875,1.87530517578125,73.25592041015625
1663862594800659200,7.5776591796875,-50.5218505859375,1.5899658203125,75.08392333984375
1663862594820648200,7.597648193359375,-46.98028564453125,3.10821533203125,74.18212890625
1663862594840637200,7.61763720703125,-43.9178466796875,3.71856689453125,73.577880859375
1663862594860626200,7.637626220703125,-41.1773681640625,3.5614013671875,72.36175537109375
1663862594880615200,7.657615234375,-41.9219970703125,4.32891845703125,73.431396484375
1663862594900573700,7.67757373046875,-37.70294189453125,2.06451416015625,74.18670654296875
1663862594920593200,7.69759326171875,-32.21893310546875,1.7791748046875,74.9542236328125
1663862594940582100,7.71758203125,-31.0333251953125,0.2685546875,75.86212158203125
1663862594960571100,7.737571044921875,-28.15704345703125,-0.77056884765625,77.9937744140625
1663862594980560400,7.757560302734375,-26.52435302734375,-2.7374267578125,78.594970703125
1663862595000549400,7.77754931640625,-25.506591796875,-4.9957275390625,81.024169921875
1663862595020538400,7.797538330078125,-25.82550048828125,-5.615234375,79.64935302734375
1663862595040527400,7.81752734375,-25.6500244140625,-4.67681884765625,82.70263671875
1663862595060486000,7.83748583984375,-24.94659423828125,-7.269287109375,81.62384033203125
1663862595080505300,7.85750537109375,-26.57928466796875,-5.2947998046875,81.7840576171875
1663862595100494300,7.877494384765625,-29.32281494140625,-5.16510009765625,79.8004150390625
1663862595120452900,7.897452880859375,-26.837158203125,-3.179931640625,80.42144775390625
1663862595140472300,7.917472412109375,-29.10003662109375,-1.983642578125,78.59649658203125
1663862595160461300,7.93746142578125,-30.2947998046875,-0.79345703125,75.8575439453125
1663862595180450300,7.9574501953125,-30.2886962890625,-0.49896240234375,74.639892578125
1663862595200439300,7.977439208984375,-33.172607421875,0.23040771484375,71.74530029296875
1663862595220428500,7.997428466796875,-32.958984375,2.825927734375,73.1292724609375
1663862595240417500,8.01741748046875,-33.856201171875,3.71551513671875,70.6939697265625
1663862595260406500,8.037406494140624,-35.05859375,4.60052490234375,67.9534912109375
1663862595280395500,8.0573955078125,-37.15972900390625,6.1126708984375,67.5018310546875
1663862595300384500,8.077384521484374,-40.374755859375,5.50079345703125,67.79937744140625
1663862595320373500,8.09737353515625,-44.66400146484375,4.7119140625,65.5059814453125
1663862595340362500,8.117362548828124,-44.8028564453125,5.3253173828125,66.11785888671875
1663862595360351500,8.1373515625,-49.18365478515625,7.13958740234375,66.1224365234375
1663862595380340500,8.157340576171874,-48.1414794921875,6.07147216796875,65.35491943359375
1663862595400299000,8.177299072265624,-52.4261474609375,5.316162109375,66.87164306640625
1663862595420318500,8.197318359375,-54.1015625,5.4595947265625,66.259765625
1663862595440551700,8.2175517578125,-54.59747314453125,3.778076171875,65.33660888671875
1663862595460479700,8.237479736328124,-56.08062744140625,5.596923828125,65.0390625
1663862595480285700,8.25728564453125,-58.08868408203125,4.39300537109375,67.01202392578125
1663862595500274700,8.277274658203124,-59.1583251953125,4.38232421875,65.94390869140625
1663862595520263700,8.297263671875,-60.85052490234375,3.7567138671875,64.26239013671875
1663862595540252700,8.317252685546874,-62.24517822265625,2.7069091796875,66.38946533203125
1663862595560241700,8.33724169921875,-63.91143798828125,3.2928466796875,64.105224609375
1663862595580230700,8.357230712890624,-65.3106689453125,2.07366943359375,64.09759521484375
1663862595600219600,8.3772197265625,-65.29998779296875,2.5299072265625,64.09912109375
1663862595620208600,8.397208740234374,-66.5374755859375,1.77001953125,64.39971923828125
1663862595640167200,8.417167236328124,-67.0166015625,0.84686279296875,63.1744384765625
1663862595660186600,8.4371865234375,-67.7459716796875,2.362060546875,62.72430419921875
1663862595680175600,8.457175537109375,-68.5546875,0.238037109375,63.47503662109375
1663862595700164900,8.477164794921874,-68.2464599609375,0.39215087890625,63.629150390625
1663862595720153900,8.49715380859375,-69.47479248046875,0.0762939453125,62.55950927734375
1663862595740112400,8.5171123046875,-69.4549560546875,0.9796142578125,61.4959716796875
1663862595760131800,8.5371318359375,-68.84002685546875,1.14288330078125,62.7166748046875
1663862595780120800,8.557120849609374,-68.55010986328125,0.5340576171875,62.40997314453125
1663862595800079400,8.577079345703124,-68.54248046875,0.8331298828125,61.9537353515625
1663862595820098800,8.597098876953124,-67.32177734375,0.8514404296875,63.7847900390625
1663862595840087800,8.617087890625,-64.227294921875,2.825927734375,62.88299560546875
1663862595860076800,8.637076904296874,-64.3890380859375,2.3773193359375,63.79547119140625
1663862595880065800,8.657065673828125,-60.4095458984375,2.9998779296875,64.56451416015625
1663862595900054800,8.6770546875,-56.5673828125,4.37164306640625,64.11895751953125
1663862595920044000,8.6970439453125,-52.58636474609375,5.1300048828125,62.90740966796875
1663862595940033000,8.717032958984374,-52.29949951171875,4.36859130859375,62.59918212890625
1663862595960022000,8.73702197265625,-50.45318603515625,5.11932373046875,61.0809326171875
1663862595980011000,8.757010986328124,-46.6156005859375,6.3262939453125,59.1094970703125
1663862596000000000,8.777,-41.754150390625,5.4412841796875,61.0931396484375
1663862596019958500,8.79695849609375,-39.61334228515625,5.74493408203125,60.48736572265625
1663862596039978000,8.81697802734375,-37.20855712890625,4.22821044921875,60.1776123046875
1663862596059967000,8.836967041015624,-34.04693603515625,2.4139404296875,60.6292724609375
1663862596079925500,8.856925537109374,-30.40618896484375,1.65252685546875,59.56268310546875
1663862596099945000,8.876945068359374,-26.74102783203125,1.69677734375,63.8336181640625
1663862596119934000,8.896933837890625,-22.21221923828125,-0.274658203125,63.22021484375
1663862596139923000,8.9169228515625,-21.954345703125,-2.3895263671875,64.73388671875
1663862596159912200,8.936912109375,-19.67010498046875,-2.53143310546875,65.34576416015625
1663862596179901200,8.956901123046874,-19.70977783203125,-4.3487548828125,66.0980224609375
1663862596199890200,8.97689013671875,-20.3155517578125,-4.18701171875,67.31719970703125
1663862596219879200,8.996879150390624,-20.6329345703125,-4.79278564453125,67.77191162109375
1663862596239868200,9.0168681640625,-19.54345703125,-3.7322998046875,67.0166015625
1663862596259857200,9.036857177734374,-21.8292236328125,-3.60260009765625,65.032958984375
1663862596279846100,9.05684619140625,-21.51947021484375,-3.3172607421875,62.74871826171875
1663862596299804700,9.0768046875,-22.7264404296875,-2.71453857421875,62.29248046875
1663862596320098800,9.097098876953124,-24.69635009765625,-2.12554931640625,60.6170654296875
1663862596340027000,9.11702685546875,-22.65625,0.45013427734375,59.26055908203125
1663862596359802000,9.136802001953125,-25.7354736328125,-0.77972412109375,58.33740234375
1663862596379791000,9.156791015625,-26.6021728515625,1.46942138671875,54.84161376953125
1663862596399810800,9.176810791015624,-28.253173828125,2.66876220703125,53.32183837890625
1663862596419769300,9.196769287109374,-29.64324951171875,1.90582275390625,53.31573486328125
1663862596439758300,9.21675830078125,-30.0689697265625,3.4027099609375,50.732421875
1663862596459716900,9.236716796875,-33.29620361328125,2.325439453125,49.96185302734375
1663862596479736300,9.256736328125,-34.92889404296875,4.2938232421875,49.359130859375
1663862596499725300,9.276725341796874,-38.14239501953125,3.82843017578125,49.04937744140625
1663862596519683800,9.296683837890624,-39.6820068359375,3.21502685546875,48.7396240234375
1663862596539703300,9.316703369140624,-42.3919677734375,4.72259521484375,48.13385009765625
1663862596559692300,9.3366923828125,-44.95391845703125,6.08062744140625,47.528076171875
1663862596579650800,9.35665087890625,-46.38824462890625,3.34930419921875,48.4283447265625
1663862596599670300,9.376670166015625,-47.5830078125,4.5440673828125,46.1456298828125
1663862596619659300,9.3966591796875,-51.57928466796875,3.16162109375,45.37353515625
1663862596639617800,9.41661767578125,-52.17742919921875,3.63311767578125,47.35565185546875
1663862596659637500,9.436637451171874,-52.77557373046875,4.095458984375,48.42376708984375
1663862596679626500,9.45662646484375,-54.6234130859375,3.3203125,47.0458984375
1663862596699585000,9.4765849609375,-55.70526123046875,2.58026123046875,49.63226318359375
1663862596719604500,9.4966044921875,-55.38482666015625,3.32794189453125,48.11248779296875
1663862596739593500,9.516593505859374,-57.5439453125,2.26593017578125,48.86627197265625
1663862596759582500,9.53658251953125,-57.37152099609375,3.16619873046875,47.5006103515625
1663862596779571500,9.556571533203124,-59.23004150390625,1.947021484375,47.491455078125
1663862596799560400,9.576560546875,-61.083984375,0.87738037109375,47.18017578125
1663862596819549400,9.596549560546874,-60.73760986328125,2.7008056640625,47.1893310546875
1663862596839538400,9.616538330078125,-62.7655029296875,0.714111328125,46.26312255859375
1663862596859527400,9.63652734375,-60.91766357421875,1.4801025390625,46.5728759765625
1663862596879516700,9.6565166015625,-62.90283203125,1.33209228515625,47.4853515625
1663862596899505700,9.676505615234374,-63.37432861328125,0.72479248046875,47.78594970703125
1663862596919494700,9.69649462890625,-65.0543212890625,0.57373046875,48.24066162109375
1663862596939483600,9.716483642578124,-63.8458251953125,0.10986328125,47.01995849609375
1663862596959472600,9.73647265625,-64.7430419921875,0.87738037109375,48.2421875
1663862596979461600,9.756461669921874,-66.314697265625,-1.251220703125,48.382568359375
1663862596999450600,9.77645068359375,-66.8914794921875,0.2593994140625,47.47467041015625
1663862597019439600,9.796439697265624,-65.679931640625,-0.1708984375,50.2166748046875
1663862597039428600,9.8164287109375,-63.37127685546875,0.74005126953125,49.615478515625
1663862597059417600,9.83641748046875,-61.54022216796875,0.7537841796875,50.68359375
1663862597079406600,9.856406494140625,-60.76507568359375,1.3641357421875,50.84075927734375
1663862597099395800,9.876395751953124,-57.53173828125,2.60772705078125,53.28826904296875
1663862597119384800,9.896384765625,-53.43017578125,1.995849609375,51.91802978515625
1663862597139343000,9.916343017578125,-51.40838623046875,3.6834716796875,53.30047607421875
1663862597159362800,9.93636279296875,-47.9217529296875,2.77252197265625,52.38494873046875
1663862597179351800,9.956351806640624,-45.62225341796875,3.37371826171875,51.019287109375
1663862597199615500,9.976615478515624,-43.94989013671875,3.216552734375,50.1068115234375
1663862597219543300,9.996543212890625,-40.45257568359375,2.7679443359375,50.10833740234375
1663862597239318800,10.01631884765625,-36.97357177734375,1.56097412109375,50.25787353515625
1663862597259307800,10.036307861328124,-34.21783447265625,2.02178955078125,50.11138916015625
1663862597279296800,10.056296875,-27.2491455078125,-0.07171630859375,52.54669189453125
1663862597299285800,10.07628564453125,-25.1373291015625,-1.12457275390625,53.30657958984375
1663862597319274800,10.096274658203125,-21.69342041015625,-3.8604736328125,52.38189697265625
1663862597339264000,10.116263916015624,-19.5159912109375,-2.0233154296875,53.460693359375
1663862597359253000,10.1362529296875,-18.4844970703125,-3.5491943359375,52.38800048828125
1663862597379242000,10.156241943359374,-16.0919189453125,-5.7952880859375,55.73272705078125
1663862597399231000,10.17623095703125,-13.66119384765625,-6.2347412109375,57.257080078125
1663862597419220000,10.196219970703124,-12.96539306640625,-9.12017822265625,57.24334716796875
1663862597439209000,10.216208984375,-12.52899169921875,-10.16845703125,59.06829833984375
1663862597459198000,10.236197998046874,-13.116455078125,-9.24530029296875,60.443115234375
1663862597479187000,10.25618701171875,-14.92919921875,-8.489990234375,60.44464111328125
1663862597499176000,10.276176025390624,-13.11187744140625,-8.95233154296875,59.2254638671875
1663862597519165000,10.2961650390625,-12.3138427734375,-7.42645263671875,59.69085693359375
1663862597539154000,10.31615380859375,-15.67840576171875,-7.75299072265625,57.85675048828125
1663862597559143000,10.336142822265625,-14.88494873046875,-6.3934326171875,56.64520263671875
1663862597579132200,10.356132080078124,-15.9454345703125,-6.0882568359375,57.10296630859375
1663862597599121200,10.37612109375,-17.4652099609375,-5.670166015625,52.9876708984375
1663862597619110100,10.396110107421874,-19.73114013671875,-4.7576904296875,53.59954833984375
1663862597639099100,10.41609912109375,-18.20220947265625,-4.48150634765625,49.945068359375
1663862597659088100,10.436088134765624,-20.49102783203125,-4.4921875,49.18060302734375
1663862597679077000,10.4560771484375,-22.88970947265625,-2.6763916015625,48.88153076171875
1663862597699035600,10.47603564453125,-21.8048095703125,-1.91802978515625,48.42987060546875
1663862597719055000,10.49605517578125,-23.19183349609375,-2.52685546875,48.73046875
1663862597739044000,10.516044189453124,-26.031494140625,0.03814697265625,47.21527099609375
1663862597759033000,10.536033203125,-26.80206298828125,-0.40283203125,49.19281005859375
1663862597779022000,10.55602197265625,-30.4473876953125,0.2044677734375,49.9542236328125
1663862597799011000,10.576010986328125,-32.403564453125,1.40533447265625,48.73809814453125
1663862597819000300,10.596000244140624,-34.97161865234375,2.46734619140625,49.04632568359375
1663862597838989300,10.6159892578125,-33.88214111328125,3.52020263671875,47.528076171875
1663862597858947800,10.63594775390625,-36.30218505859375,4.290771484375,49.35760498046875
1663862597878967300,10.65596728515625,-39.080810546875,2.90069580078125,47.3663330078125
1663862597898956300,10.675956298828124,-41.180419921875,4.4158935546875,47.3724365234375
1663862597918945300,10.6959453125,-43.9117431640625,5.01556396484375,47.2198486328125
1663862597938934300,10.715934326171874,-45.44525146484375,4.5745849609375,49.34844970703125
1663862597958923300,10.73592333984375,-47.26409912109375,5.03082275390625,49.80621337890625
1663862597978912300,10.755912353515624,-49.26910400390625,4.09393310546875,47.36175537109375
1663862597998901200,10.7759013671875,-51.708984375,4.0863037109375,47.05352783203125
1663862598018890200,10.79589013671875,-53.99627685546875,4.08172607421875,47.05047607421875
1663862598038879200,10.815879150390625,-54.94232177734375,2.71148681640625,46.8902587890625
1663862598058868500,10.835868408203124,-56.18438720703125,1.78680419921875,45.81756591796875
1663862598079162600,10.85616259765625,-55.2764892578125,1.6143798828125,43.0755615234375
1663862598099090400,10.87609033203125,-56.640625,1.9287109375,44.598388671875
1663862598118866000,10.895865966796874,-58.36029052734375,0.09002685546875,43.3685302734375
1663862598138855000,10.91585498046875,-59.09576416015625,1.422119140625,39.25933837890625
1663862598158813400,10.9358134765625,-59.00421142578125,-1.177978515625,37.26654052734375
1663862598178802400,10.955802490234374,-58.11767578125,-2.39715576171875,36.651611328125
1663862598198822000,10.97582177734375,-59.21478271484375,-3.63006591796875,34.814453125
1663862598218780400,10.995780517578124,-61.01837158203125,-2.43072509765625,33.447265625
1663862598238769400,11.015769287109375,-61.669921875,-4.24957275390625,34.04693603515625
1663862598258758400,11.03575830078125,-66.39556884765625,-4.254150390625,34.80377197265625
1663862598278747600,11.05574755859375,-65.81268310546875,-5.46112060546875,35.56060791015625
1663862598298736600,11.075736572265624,-70.843505859375,-5.462646484375,36.62109375
1663862598318725600,11.0957255859375,-74.69635009765625,-7.41424560546875,40.570068359375
1663862598338714600,11.115714599609374,-79.01458740234375,-9.7991943359375,47.10693359375
1663862598358703600,11.13570361328125,-82.415771484375,-12.04681396484375,51.8157958984375
1663862598378692600,11.155692626953124,-83.6761474609375,-13.9862060546875,56.378173828125
1663862598398681600,11.175681640625,-85.67352294921875,-14.86053466796875,61.39984130859375
1663862598418670600,11.195670654296874,-86.041259765625,-17.730712890625,63.519287109375
1663862598438659600,11.21565966796875,-86.71722412109375,-20.74432373046875,66.70379638671875
1663862598458648600,11.235648681640624,-87.8753662109375,-31.7718505859375,74.8779296875
1663862598478637600,11.255637451171875,-88.1195068359375,-35.99853515625,78.363037109375
1663862598498626600,11.27562646484375,-88.24310302734375,-41.45965576171875,79.70733642578125
1663862598518615800,11.29561572265625,-87.82196044921875,-42.98858642578125,78.48052978515625
1663862598538604800,11.315604736328124,-89.44244384765625,-47.24578857421875,78.6102294921875
1663862598558593800,11.33559375,-87.36572265625,-49.81536865234375,79.66766357421875
1663862598578582800,11.355582763671874,-87.15362548828125,-54.0496826171875,82.23724365234375
1663862598598541300,11.375541259765624,-86.932373046875,-57.574462890625,78.71551513671875
1663862598618560800,11.395560791015624,-86.090087890625,-60.6353759765625,75.958251953125
1663862598638549800,11.4155498046875,-87.298583984375,-60.04791259765625,73.8250732421875
1663862598658538800,11.435538818359374,-86.33270263671875,-57.9010009765625,75.81787109375
1663862598678527700,11.45552783203125,-85.687255859375,-56.3720703125,76.74102783203125
1663862598698516700,11.475516845703124,-87.47406005859375,-54.54559326171875,77.51007080078125
1663862598718505700,11.495505615234375,-89.04876708984375,-49.9908447265625,77.37884521484375
1663862598738494700,11.51549462890625,-88.07830810546875,-54.241943359375,77.66265869140625
1663862598758484000,11.53548388671875,-86.8194580078125,-59.2559814453125,77.4871826171875
1663862598778473000,11.555472900390624,-82.55462646484375,-66.22772216796875,78.6773681640625
1663862598798462000,11.5754619140625,-78.52783203125,-70.3033447265625,80.9478759765625
1663862598818451000,11.595450927734374,-75.41656494140625,-74.25384521484375,80.169677734375
1663862598838440000,11.61543994140625,-71.97113037109375,-76.98211669921875,80.3131103515625
1663862598858429000,11.635428955078124,-73.18572998046875,-76.6937255859375,78.78875732421875
1663862598878418000,11.65541796875,-70.98846435546875,-80.6427001953125,78.466796875
1663862598898407000,11.675406982421874,-69.11468505859375,-78.7994384765625,80.3070068359375
1663862598918396000,11.69539599609375,-69.091796875,-77.7374267578125,80.0079345703125
1663862598938415600,11.71541552734375,-67.9046630859375,-79.2510986328125,80.4595947265625
1663862598958709800,11.735709716796874,-65.88897705078125,-77.72674560546875,80.621337890625
1663862598978637600,11.755637451171875,-69.561767578125,-78.338623046875,81.07147216796875
1663862598998382600,11.775382568359374,-68.927001953125,-77.14385986328125,78.33404541015625
1663862599018341000,11.795341064453124,-68.06488037109375,-79.559326171875,80.00030517578125
1663862599038381300,11.81538134765625,-67.4560546875,-79.5654296875,79.2388916015625
1663862599058339800,11.83533984375,-63.36212158203125,-80.61065673828125,80.30548095703125
1663862599078319400,11.8553193359375,-62.77618408203125,-81.67572021484375,79.9957275390625
1663862599098308600,11.87530859375,-62.63885498046875,-82.28912353515625,79.38385009765625
1663862599118297600,11.895297607421876,-61.40899658203125,-81.84356689453125,77.862548828125
1663862599138286600,11.91528662109375,-61.376953125,-80.4656982421875,79.08935546875
1663862599158275600,11.935275634765626,-62.640380859375,-82.30743408203125,77.2491455078125
1663862599178264600,11.9552646484375,-60.8184814453125,-82.6141357421875,76.48773193359375
1663862599198253600,11.975253662109376,-63.73291015625,-83.3770751953125,76.7852783203125
1663862599218242600,11.99524267578125,-61.297607421875,-83.53729248046875,75.11138916015625
1663862599238201000,12.015201171875,-60.82763671875,-82.93914794921875,73.895263671875
1663862599258220500,12.035220458984375,-62.9730224609375,-83.39385986328125,74.65362548828125
1663862599278942000,12.05594189453125,-60.83831787109375,-83.3953857421875,73.89373779296875
1663862599298198500,12.075198486328125,-62.82958984375,-83.8470458984375,74.80316162109375
1663862599318187500,12.0951875,-62.65869140625,-82.9437255859375,73.89373779296875
1663862599338176800,12.1151767578125,-62.799072265625,-82.476806640625,75.11444091796875
1663862599358165800,12.135165771484376,-65.21759033203125,-81.4361572265625,72.98431396484375
1663862599378154800,12.15515478515625,-65.53192138671875,-81.8939208984375,72.82867431640625
1663862599398174200,12.17517431640625,-65.55023193359375,-82.65380859375,72.8240966796875
1663862599418132700,12.1951328125,-67.20428466796875,-81.59942626953125,72.06573486328125
1663862599438121700,12.215121826171876,-68.74542236328125,-82.35626220703125,72.82257080078125
1663862599458110700,12.23511083984375,-68.7469482421875,-82.3699951171875,71.2982177734375
1663862599478099700,12.255099609375,-67.9901123046875,-82.6629638671875,72.36480712890625
1663862599498088700,12.275088623046875,-67.193603515625,-81.146240234375,71.76361083984375
1663862599518077700,12.29507763671875,-65.093994140625,-82.6690673828125,70.99609375
1663862599538066700,12.315066650390625,-64.349365234375,-83.43658447265625,69.92645263671875
1663862599558055700,12.3350556640625,-64.7003173828125,-85.41717529296875,69.30694580078125
1663862599578655200,12.3556552734375,-63.76495361328125,-84.50164794921875,69.46563720703125
1663862599598034000,12.375033935546876,-63.76495361328125,-84.50164794921875,69.46563720703125
1663862599618023000,12.39502294921875,-65.1123046875,-83.4381103515625,69.92645263671875
1663862599638012000,12.415011962890626,-65.74554443359375,-84.36431884765625,68.243408203125
1663862599658001000,12.4350009765625,-66.6473388671875,-83.76312255859375,67.6361083984375
1663862599677990000,12.454989990234376,-65.8538818359375,-82.3974609375,67.33856201171875
1663862599697979000,12.474978759765625,-64.79339599609375,-82.696533203125,67.64373779296875
1663862599717968000,12.4949677734375,-63.43231201171875,-83.28399658203125,69.62432861328125
1663862599737956900,12.514956787109375,-64.3402099609375,-82.9864501953125,69.16656494140625
1663862599757945900,12.53494580078125,-64.8406982421875,-84.814453125,68.69964599609375
1663862599777934800,12.554934814453125,-63.7664794921875,-84.5184326171875,67.6361083984375
1663862599797923800,12.574923828125,-63.90380859375,-83.8958740234375,69.3145751953125
1663862599817913000,12.5949130859375,-66.03240966796875,-83.60595703125,68.24798583984375
1663862599838237700,12.61523779296875,-64.94140625,-82.54241943359375,67.79632568359375
1663862599858165800,12.635165771484376,-64.83306884765625,-84.51080322265625,68.701171875
1663862599877941000,12.65494091796875,-62.994384765625,-84.19036865234375,70.22857666015625
1663862599897869000,12.674869140625,-63.29193115234375,-83.75396728515625,67.94586181640625
1663862599917858000,12.694858154296876,-63.0035400390625,-84.51385498046875,67.9412841796875
1663862599937847000,12.714846923828125,-63.2843017578125,-83.4442138671875,68.70880126953125
1663862599957836000,12.7348359375,-64.0716552734375,-84.515380859375,67.93975830078125
1663862599977825000,12.754824951171875,-63.15155029296875,-84.3536376953125,68.8568115234375
1663862599997814000,12.77481396484375,-65.1031494140625,-82.99102783203125,68.70880126953125
1663862600017772500,12.7947724609375,-66.77093505859375,-82.5408935546875,68.55621337890625
1663862600037792300,12.814792236328126,-65.55328369140625,-82.68280029296875,69.47174072265625
1663862600057781200,12.83478125,-66.7510986328125,-81.7657470703125,70.3887939453125
1663862600077739500,12.854739501953125,-65.7012939453125,-82.5225830078125,70.38726806640625
1663862600097759200,12.87475927734375,-64.33868408203125,-82.97119140625,70.99609375
1663862600117748200,12.894748291015626,-65.863037109375,-82.9681396484375,71.7559814453125
1663862600137737200,12.9147373046875,-65.05889892578125,-81.1492919921875,71.00372314453125
1663862600157695700,12.93469580078125,-63.72833251953125,-82.96356201171875,71.759033203125
1663862600177715200,12.954715087890625,-64.6392822265625,-82.8094482421875,72.21527099609375
1663862600197704200,12.9747041015625,-64.78118896484375,-82.3516845703125,72.369384765625
1663862600217662700,12.994662841796876,-64.32952880859375,-82.64923095703125,73.13079833984375
1663862600237682200,13.01468212890625,-65.83709716796875,-81.89239501953125,73.13232421875
1663862600257671200,13.034671142578125,-66.31622314453125,-82.8125,72.2137451171875
1663862600277660400,13.054660400390626,-64.92462158203125,-82.0404052734375,73.28643798828125
1663862600297649400,13.0746494140625,-65.98663330078125,-81.74896240234375,72.2198486328125
1663862600317638400,13.094638427734376,-66.5924072265625,-81.591796875,72.82867431640625
1663862600337627400,13.11462744140625,-65.83099365234375,-81.5948486328125,72.3724365234375
1663862600357616400,13.134616455078126,-66.558837890625,-80.0811767578125,71.76971435546875
1663862600377605400,13.15460546875,-68.414306640625,-81.15386962890625,71.3043212890625
1663862600397624800,13.174624755859375,-66.253662109375,-79.94232177734375,70.09429931640625
1663862600417583400,13.194583251953125,-68.121337890625,-81.7535400390625,72.216796875
1663862600437572400,13.214572265625,-67.974853515625,-81.915283203125,70.99761962890625
1663862600457561300,13.234561279296875,-67.6116943359375,-79.33349609375,70.55206298828125
1663862600477550300,13.25455029296875,-66.90673828125,-81.9091796875,71.30279541015625
1663862600497539300,13.274539306640625,-66.876220703125,-80.5511474609375,70.2423095703125
1663862600517528600,13.294528564453126,-68.5638427734375,-81.005859375,70.84808349609375
1663862600537517600,13.314517578125,-69.01702880859375,-80.8502197265625,71.30584716796875
1663862600557506600,13.334506591796876,-67.05474853515625,-81.7474365234375,72.674560546875
1663862600577495600,13.35449560546875,-68.98193359375,-79.327392578125,71.76971435546875
1663862600597454000,13.3744541015625,-68.68743896484375,-79.779052734375,72.0733642578125
1663862600617443000,13.394443115234376,-67.64373779296875,-80.8441162109375,71.76513671875
1663862600637462500,13.414462646484376,-68.73626708984375,-81.91375732421875,71.30126953125
1663862600657451500,13.434451416015625,-69.622802734375,-80.6915283203125,72.2198486328125
1663862600677440500,13.4544404296875,-68.572998046875,-81.45599365234375,71.45538330078125
1663862600697399000,13.47439892578125,-68.5546875,-80.68389892578125,72.9827880859375
1663862600717418500,13.49441845703125,-68.8690185546875,-81.005859375,70.84808349609375
1663862600737682200,13.51468212890625,-67.02117919921875,-80.23681640625,71.4630126953125
1663862600757457700,13.534457763671876,-67.071533203125,-82.50732421875,72.6715087890625
1663862600777843500,13.554843505859376,-66.7572021484375,-82.06024169921875,71.45538330078125
1663862600797405200,13.5744052734375,-68.69354248046875,-80.07659912109375,72.833251953125
1663862600817394200,13.594394287109376,-67.00592041015625,-79.6234130859375,72.22900390625
1663862600837352700,13.614352783203126,-68.08624267578125,-80.22613525390625,72.98583984375
1663862600857341700,13.634341796875,-66.5679931640625,-80.51910400390625,73.9013671875
1663862600877330700,13.65433056640625,-65.80657958984375,-80.523681640625,73.13995361328125
1663862600897319700,13.674319580078125,-67.92449951171875,-79.77142333984375,72.8363037109375
1663862600917308700,13.69430859375,-68.99871826171875,-80.0811767578125,72.37701416015625
1663862600937297700,13.714297607421875,-67.9443359375,-80.5511474609375,70.54595947265625
1663862600957286700,13.73428662109375,-70.0775146484375,-80.5450439453125,71.76361083984375
1663862600977275600,13.754275634765625,-71.26922607421875,-79.32891845703125,72.0733642578125
1663862600997265000,13.774264892578126,-71.26312255859375,-79.0283203125,71.76971435546875
1663862601017254000,13.79425390625,-71.8475341796875,-77.95562744140625,72.84088134765625
1663862601037243000,13.814242919921876,-73.71063232421875,-79.3426513671875,71.00372314453125
1663862601057232000,13.83423193359375,-73.3795166015625,-78.26995849609375,72.07489013671875
1663862601077220900,13.854220947265626,-72.4609375,-78.10821533203125,72.991943359375
1663862601097209900,13.8742099609375,-73.6785888671875,-77.96630859375,72.076416015625
1663862601117198800,13.89419873046875,-74.4171142578125,-76.90582275390625,71.77581787109375
1663862601137157400,13.914157470703126,-74.56512451171875,-76.74713134765625,72.69134521484375
1663862601157176800,13.9341767578125,-74.25994873046875,-76.75018310546875,72.235107421875
1663862601177562600,13.954562744140626,-74.1424560546875,-78.271484375,72.07489013671875
1663862601197124400,13.974124267578125,-74.87030029296875,-76.7578125,71.47216796875
1663862601217144000,13.99414404296875,-74.41558837890625,-76.8951416015625,73.1475830078125
1663862601237133000,14.014133056640626,-73.8037109375,-76.751708984375,71.929931640625
1663862601257122000,14.0341220703125,-72.9156494140625,-77.96173095703125,72.381591796875
1663862601277080600,14.05408056640625,-72.442626953125,-77.34832763671875,72.9949951171875
1663862601297100000,14.07410009765625,-74.10888671875,-76.885986328125,74.2156982421875
1663862601317089000,14.094089111328126,-75.15411376953125,-75.8392333984375,72.3907470703125
1663862601337078000,14.114078125,-72.42889404296875,-76.739501953125,72.998046875
1663862601357067000,14.13406689453125,-73.50921630859375,-77.34375,73.75640869140625
1663862601377056000,14.154055908203125,-71.98333740234375,-77.3223876953125,75.89111328125
1663862601397075500,14.174075439453125,-73.809814453125,-77.04925537109375,72.69134521484375
1663862601417003500,14.19400341796875,-72.89581298828125,-77.18963623046875,73.9105224609375
1663862601437023000,14.21402294921875,-71.69036865234375,-77.79388427734375,74.06158447265625
1663862601457012200,14.23401220703125,-73.21624755859375,-77.80609130859375,72.991943359375
1663862601477001200,14.254001220703126,-70.599365234375,-76.7303466796875,73.76251220703125
1663862601496959500,14.27395947265625,-72.8973388671875,-77.19879150390625,72.84393310546875
1663862601516979200,14.293979248046876,-72.41058349609375,-75.9735107421875,73.7640380859375
1663862601536968200,14.31396826171875,-72.2869873046875,-77.191162109375,73.6053466796875
1663862601556957200,14.333957275390626,-73.3612060546875,-77.49481201171875,73.907470703125
1663862601578014200,14.35501416015625,-71.697998046875,-78.10821533203125,72.68829345703125
1663862601596935200,14.37393505859375,-71.96044921875,-76.27716064453125,73.7640380859375
1663862601617229300,14.394229248046875,-72.32208251953125,-78.717041015625,72.8363037109375
1663862601637004800,14.4140048828125,-71.85516357421875,-78.26385498046875,72.381591796875
1663862601656902100,14.433902099609375,-71.58355712890625,-79.7760009765625,73.13690185546875
1663862601676891100,14.45389111328125,-72.3297119140625,-79.02679443359375,72.0733642578125
1663862601696910800,14.473910888671876,-72.296142578125,-77.51617431640625,71.01287841796875
1663862601716869400,14.493869384765626,-72.2930908203125,-77.49481201171875,73.60382080078125
1663862601736858400,14.5138583984375,-72.9217529296875,-78.2684326171875,72.076416015625
1663862601756847400,14.533847412109376,-70.941162109375,-78.4027099609375,73.75335693359375
1663862601776836400,14.55383642578125,-71.4019775390625,-78.42254638671875,71.46759033203125
1663862601796825300,14.573825439453126,-70.770263671875,-77.50396728515625,72.08251953125
1663862601816814300,14.593814453125,-69.72808837890625,-78.70025634765625,74.21112060546875
1663862601836803300,14.61380322265625,-69.72808837890625,-78.70025634765625,74.21112060546875
1663862601856792300,14.633792236328125,-67.73834228515625,-78.3843994140625,75.12969970703125
1663862601876812000,14.65381201171875,-67.75665283203125,-79.1534423828125,74.05853271484375
1663862601896770300,14.673770263671875,-69.74334716796875,-79.31365966796875,73.5992431640625
1663862601916728800,14.693728759765625,-68.50433349609375,-78.411865234375,71.92840576171875
1663862601936748500,14.71374853515625,-68.39752197265625,-80.5267333984375,73.59466552734375
1663862601956737500,14.733737548828126,-68.41278076171875,-81.14013671875,72.82867431640625
1663862601976696000,14.753696044921876,-69.598388671875,-79.63104248046875,71.9207763671875
1663862601996715500,14.773715576171876,-69.43206787109375,-79.02069091796875,72.076416015625
1663862602016708400,14.793708251953126,-70.648193359375,-78.86199951171875,73.29559326171875
1663862602036697300,14.813697265625,-71.7071533203125,-78.42864990234375,70.85723876953125
1663862602056686300,14.833686279296876,-71.82159423828125,-76.885986328125,73.6083984375
1663862602076675300,14.85367529296875,-71.38671875,-77.8106689453125,71.9268798828125
1663862602096664600,14.87366455078125,-72.01995849609375,-78.8665771484375,72.9888916015625
1663862602116653600,14.893653564453125,-71.86431884765625,-78.7139892578125,73.1414794921875
1663862602136612000,14.913612060546875,-73.17657470703125,-75.9979248046875,71.173095703125
1663862602156631600,14.933631591796875,-74.6307373046875,-79.6417236328125,71.9146728515625
1663862602176620500,14.95362060546875,-74.87030029296875,-76.7578125,71.47216796875
1663862602196609500,14.973609619140625,-75.7659912109375,-75.85601806640625,70.56121826171875
1663862602216598500,14.9935986328125,-73.51226806640625,-77.3681640625,70.86029052734375
1663862602236587500,15.01358740234375,-76.21307373046875,-75.40130615234375,70.562744140625
1663862602256576500,15.033576416015626,-74.407958984375,-76.46026611328125,70.5596923828125
1663862602276565500,15.0535654296875,-74.6978759765625,-75.84686279296875,71.32415771484375
1663862602296554500,15.073554443359376,-74.54833984375,-75.9918212890625,72.2381591796875
1663862602316543700,15.093543701171875,-76.37786865234375,-76.0009765625,71.47369384765625
1663862602336532700,15.11353271484375,-74.52392578125,-74.9298095703125,71.93756103515625
1663862602356491000,15.133490966796876,-74.4293212890625,-77.5115966796875,72.07794189453125
1663862602376510700,15.1535107421875,-75.2960205078125,-75.250244140625,70.10650634765625
1663862602396499700,15.173499755859375,-75.59661865234375,-75.22125244140625,73.7640380859375
1663862602416488700,15.19348876953125,-74.42169189453125,-77.19879150390625,73.14605712890625
1663862602436477700,15.213477783203125,-73.370361328125,-77.94189453125,74.9725341796875
1663862602456466700,15.233466796875,-72.7142333984375,-75.9521484375,76.35498046875
1663862602476455700,15.25345556640625,-73.19793701171875,-77.03857421875,73.7579345703125
1663862602496780500,15.273780517578125,-71.82159423828125,-76.8798828125,74.21722412109375
1663862602516525300,15.293525390625,-73.17962646484375,-76.2725830078125,74.52392578125
1663862602536422700,15.313422607421876,-72.73406982421875,-76.73492431640625,73.75946044921875
1663862602556412000,15.333411865234375,-72.30987548828125,-78.24554443359375,74.6673583984375
1663862602576401000,15.35340087890625,-72.91412353515625,-77.95562744140625,73.14453125
1663862602596390000,15.373389892578125,-72.59674072265625,-77.48565673828125,74.67041015625
1663862602616379000,15.39337890625,-72.6318359375,-79.00543212890625,74.66278076171875
1663862602636368000,15.413367919921875,-73.3306884765625,-76.1322021484375,73.15216064453125
1663862602656356900,15.43335693359375,-73.199462890625,-77.04620361328125,72.99652099609375
1663862602676345900,15.453345947265625,-72.4365234375,-77.044677734375,72.99652099609375
1663862602696334800,15.4733349609375,-71.52557373046875,-77.20489501953125,71.77734375
1663862602716323800,15.49332373046875,-71.87652587890625,-79.315185546875,73.9013671875
1663862602736312800,15.513312744140626,-72.62725830078125,-78.71551513671875,73.1414794921875
1663862602756301800,15.5333017578125,-71.40960693359375,-78.85894775390625,73.7518310546875
1663862602776290800,15.553290771484376,-70.62225341796875,-77.79388427734375,73.7579345703125
1663862602796280000,15.573280029296875,-68.61114501953125,-76.42974853515625,72.8515625
1663862602816269000,15.59326904296875,-70.0408935546875,-79.0130615234375,73.14300537109375
1663862602836258000,15.613258056640625,-70.0592041015625,-79.78057861328125,72.37701416015625
1663862602856247000,15.6332470703125,-69.5892333984375,-79.1748046875,71.92230224609375
1663862602876236000,15.653236083984375,-68.51959228515625,-79.156494140625,73.75335693359375
1663862602896194600,15.673194580078125,-69.12384033203125,-78.8665771484375,72.23052978515625
1663862602916214000,15.693214111328125,-70.9686279296875,-79.6112060546875,74.51019287109375
1663862602936203000,15.713203125,-70.5413818359375,-80.853271484375,71.3043212890625
1663862602956192000,15.73319189453125,-70.648193359375,-78.86199951171875,73.29559326171875
1663862602976181000,15.753180908203126,-69.4549560546875,-80.078125,72.833251953125
1663862602996170000,15.773169921875,-69.12384033203125,-78.863525390625,72.686767578125
1663862603016159000,15.793158935546876,-70.465087890625,-77.49786376953125,72.84393310546875
1663862603036117500,15.813117431640626,-69.86083984375,-77.7923583984375,73.7579345703125
1663862603056137200,15.83313720703125,-72.2930908203125,-77.49481201171875,73.60382080078125
1663862603076126200,15.853126220703125,-71.99554443359375,-77.79388427734375,74.06005859375
1663862603096115200,15.873115234375,-72.747802734375,-77.3468017578125,73.3001708984375
1663862603116104200,15.893104248046875,-72.442626953125,-77.34832763671875,72.9949951171875
1663862603136093200,15.91309326171875,-72.6287841796875,-78.7261962890625,71.76971435546875
1663862603156082200,15.933082275390625,-74.2828369140625,-77.801513671875,73.75335693359375
1663862603176071200,15.9530712890625,-73.199462890625,-77.05230712890625,72.23358154296875
1663862603196060200,15.97306005859375,-74.27520751953125,-77.36663818359375,71.1639404296875
1663862603216049200,15.993049072265626,-73.66180419921875,-77.2186279296875,70.556640625
1663862603236038100,16.0130380859375,-73.2086181640625,-77.3681640625,70.86029052734375
1663862603256027100,16.033027099609374,-73.66180419921875,-77.2125244140625,71.31805419921875
1663862603276016400,16.053016357421875,-75.1800537109375,-76.91802978515625,70.556640625
1663862603296005400,16.07300537109375,-74.87335205078125,-76.7730712890625,69.64263916015625
1663862603315994400,16.092994384765625,-74.87945556640625,-77.07366943359375,70.098876953125
1663862603335983400,16.1129833984375,-74.920654296875,-78.8970947265625,70.0897216796875
1663862603355972400,16.132972412109375,-74.25079345703125,-76.2969970703125,71.93145751953125
1663862603376297000,16.153296875,-74.2340087890625,-75.54931640625,70.41168212890625
1663862603396072400,16.173072509765625,-76.116943359375,-77.84271240234375,69.33135986328125
1663862603415939300,16.192939208984374,-75.640869140625,-77.0721435546875,70.40252685546875
1663862603435928300,16.21292822265625,-78.0853271484375,-77.239990234375,69.1802978515625
1663862603455917300,16.232917236328124,-76.092529296875,-76.776123046875,69.64111328125
1663862603475906300,16.25290625,-75.433349609375,-74.639892578125,70.56732177734375
1663862603495956500,16.27295654296875,-75.1708984375,-76.4678955078125,69.9493408203125
1663862603515884500,16.292884521484375,-75.15716552734375,-75.8636474609375,69.49462890625
1663862603535873500,16.31287353515625,-77.0111083984375,-76.92413330078125,70.24993896484375
1663862603555862500,16.332862548828125,-76.2603759765625,-77.52227783203125,71.3134765625
1663862603575851500,16.3528515625,-77.41241455078125,-74.49493408203125,70.1080322265625
1663862603595840500,16.372840576171875,-77.42462158203125,-74.957275390625,69.34356689453125
1663862603615829500,16.39282958984375,-77.569580078125,-74.6490478515625,69.9554443359375
1663862603635818500,16.412818603515625,-78.49884033203125,-75.26397705078125,69.34051513671875
1663862603655807500,16.432807373046874,-77.117919921875,-74.94354248046875,70.867919921875
1663862603675766000,16.45276611328125,-77.46429443359375,-76.7730712890625,70.40252685546875
1663862603695785500,16.472785400390624,-78.50341796875,-75.5523681640625,71.16851806640625
1663862603715774500,16.4927744140625,-77.5665283203125,-74.6337890625,71.783447265625
1663862603735763700,16.512763671875,-77.2613525390625,-74.6307373046875,72.088623046875
1663862603755752700,16.532752685546875,-77.1087646484375,-74.49798583984375,69.65179443359375
1663862603775741700,16.55274169921875,-77.2552490234375,-74.3255615234375,72.09014892578125
1663862603795730700,16.572730712890625,-76.9927978515625,-76.15814208984375,71.014404296875
1663862603815719700,16.5927197265625,-77.6031494140625,-76.16424560546875,70.556640625
1663862603835708700,16.612708740234375,-77.716064453125,-74.4873046875,71.17462158203125
1663862603855697700,16.63269775390625,-77.105712890625,-74.47967529296875,71.93756103515625
1663862603875686700,16.652686767578125,-76.6845703125,-76.01318359375,70.1019287109375
1663862603895675600,16.672675537109374,-75.60577392578125,-75.5462646484375,71.17156982421875
1663862603915664600,16.69266455078125,-76.2298583984375,-76.1505126953125,71.77734375
1663862603935653600,16.712653564453124,-77.14080810546875,-75.99639892578125,72.235107421875
1663862603955612200,16.732612060546874,-76.092529296875,-76.77001953125,70.404052734375
1663862603975632000,16.7526318359375,-76.09100341796875,-76.75628662109375,71.9268798828125
1663862603995620900,16.772620849609375,-75.7720947265625,-76.14898681640625,71.77886962890625
1663862604015609900,16.79260986328125,-75.16937255859375,-76.458740234375,71.01593017578125
1663862604035598800,16.812598876953125,-76.5655517578125,-77.52227783203125,71.3134765625
1663862604055587800,16.832587890625,-74.58953857421875,-77.8167724609375,71.923828125
1663862604075576800,16.852576904296875,-76.24664306640625,-76.91650390625,71.0113525390625
1663862604095565800,16.87256591796875,-74.853515625,-75.9979248046875,71.4752197265625
1663862604115554800,16.892554931640625,-74.71160888671875,-76.4556884765625,71.32110595703125
1663862604135543800,16.912543701171874,-76.68914794921875,-76.300048828125,72.23358154296875
1663862604155532800,16.93253271484375,-76.37786865234375,-75.9979248046875,71.93145751953125
1663862604175521800,16.952521728515624,-75.20294189453125,-77.972412109375,71.76971435546875
1663862604195510800,16.9725107421875,-74.56512451171875,-76.75323486328125,71.929931640625
1663862604215469300,16.99246923828125,-74.27520751953125,-77.374267578125,70.40252685546875
1663862604235489000,17.012489013671875,-73.64349365234375,-76.4434814453125,72.38922119140625
1663862604255844000,17.032843994140624,-74.59716796875,-78.125,71.46453857421875
1663862604275619600,17.05261962890625,-72.57537841796875,-76.4373779296875,72.84698486328125
1663862604295486500,17.072486572265625,-71.533203125,-77.508544921875,71.77581787109375
1663862604315445000,17.092445068359375,-72.9034423828125,-77.4932861328125,73.90899658203125
1663862604335434000,17.11243408203125,-70.95947265625,-79.168701171875,72.9888916015625
1663862604355423000,17.132423095703125,-70.5047607421875,-79.3121337890625,73.90289306640625
1663862604375412000,17.152411865234374,-70.34454345703125,-78.8726806640625,71.923828125
1663862604395401000,17.17240087890625,-71.27838134765625,-79.779052734375,72.83172607421875
1663862604415390000,17.192389892578124,-70.367431640625,-79.93316650390625,72.222900390625
1663862604435348500,17.212348388671874,-70.34912109375,-79.16717529296875,72.9888916015625
1663862604455368200,17.2323681640625,-67.767333984375,-79.60968017578125,74.0570068359375
1663862604475357200,17.252357177734375,-68.8568115234375,-80.66253662109375,75.57373046875
1663862604495346200,17.27234619140625,-70.39031982421875,-80.98297119140625,74.04632568359375
1663862604515335200,17.292335205078125,-70.37353515625,-80.224609375,73.7457275390625
1663862604535324200,17.31232421875,-70.67108154296875,-79.925537109375,73.28948974609375
1663862604555313200,17.332313232421875,-69.75860595703125,-80.06744384765625,74.20501708984375
1663862604575302100,17.35230224609375,-70.7061767578125,-81.4483642578125,72.9766845703125
1663862604595291100,17.372291015625,-68.9971923828125,-80.0750732421875,73.138427734375
1663862604615280000,17.392280029296874,-67.9290771484375,-80.06439208984375,74.20654296875
1663862604635269000,17.41226904296875,-68.39752197265625,-80.5267333984375,73.59466552734375
1663862604655227600,17.4322275390625,-68.51806640625,-79.15496826171875,74.05853271484375
1663862604675247000,17.4522470703125,-71.30126953125,-80.83038330078125,74.19891357421875
1663862604695236400,17.472236328125,-68.99871826171875,-80.084228515625,72.07183837890625
1663862604715225300,17.492225341796875,-67.03033447265625,-80.68695068359375,72.222900390625
1663862604735214300,17.51221435546875,-68.08013916015625,-79.9224853515625,72.98736572265625
1663862604755203300,17.532203369140625,-69.78607177734375,-81.14776611328125,72.37091064453125
1663862604775192300,17.5521923828125,-68.54400634765625,-80.224609375,73.291015625
