time,seconds_elapsed,z,y,x
1663862587408792000,0.1857919921875,10.994064331054688,2.546142578125,0.7359161376953125
1663862587418710300,0.195710205078125,11.618942260742188,2.764007568359375,1.3488311767578125
1663862587428598000,0.205597900390625,11.606979370117188,2.1558837890625,1.150115966796875
1663862587438485800,0.21548583984375,10.515228271484375,1.183837890625,0.3600311279296875
1663862587448373500,0.22537353515625,9.332489013671875,0.82470703125,-0.4420318603515625
1663862587458261000,0.235260986328125,8.846466064453125,1.200592041015625,-0.635955810546875
1663862587468118300,0.2451181640625,8.542404174804688,1.748870849609375,-0.61920166015625
1663862587478006000,0.255006103515625,8.274246215820312,2.3067169189453125,-0.7173614501953125
1663862587487893800,0.264893798828125,8.96856689453125,2.7879486083984375,-0.5593414306640625
1663862587497750800,0.274750732421875,9.543182373046875,2.627532958984375,-0.995086669921875
1663862587507608000,0.284608154296875,9.801742553710938,1.4352264404296875,-2.252044677734375
1663862587517465000,0.294465087890625,10.788162231445312,0.6259918212890625,-2.6518707275390625
1663862587527383300,0.30438330078125,11.487274169921875,0.1806640625,-2.4914703369140625
1663862587537240600,0.314240478515625,10.888717651367188,-0.121002197265625,-3.236053466796875
1663862587547128300,0.32412841796875,9.811325073242188,0.0753173828125,-3.889678955078125
1663862587557016000,0.33401611328125,9.342056274414062,1.021026611328125,-2.3645782470703125
1663862587566903800,0.34390380859375,8.698028564453125,2.90765380859375,0.0320281982421875
1663862587576791300,0.353791259765625,8.171295166015625,4.8541412353515625,1.509246826171875
1663862587586648600,0.363648681640625,8.628585815429688,4.825408935546875,1.1884307861328125
1663862587596566800,0.37356689453125,9.277420043945312,2.627532958984375,-0.456390380859375
1663862587606454500,0.38345458984375,9.768234252929688,0.259674072265625,-2.4603424072265625
1663862587616342300,0.39334228515625,8.530426025390625,0.1806640625,-2.991851806640625
1663862587626229800,0.403229736328125,7.05560302734375,2.0936279296875,-0.5497589111328125
1663862587636117500,0.413117431640625,7.0029296875,4.4207916259765625,1.509246826171875
1663862587646005200,0.423005126953125,8.525634765625,5.435943603515625,1.4757232666015625
1663862587655862500,0.432862548828125,10.388336181640625,4.15264892578125,-0.023040771484375
1663862587665750000,0.44275,10.062713623046875,1.9787139892578125,-1.1555023193359375
1663862587675637800,0.4526376953125,8.449020385742188,1.411285400390625,-1.476318359375
1663862587685525500,0.462525390625,7.050811767578125,2.917236328125,-0.7867889404296875
1663862587695413200,0.472413330078125,6.7108306884765625,3.618743896484375,0.19482421875
1663862587705301000,0.482301025390625,7.8672332763671875,2.7137298583984375,0.0703277587890625
1663862587715158000,0.492157958984375,8.264678955078125,1.600433349609375,0.4174957275390625
1663862587725045800,0.502045654296875,8.149749755859375,2.06011962890625,1.6696624755859375
1663862587734933500,0.51193359375,7.3333282470703125,2.2109527587890625,2.3400421142578125
1663862587744821200,0.5218212890625,7.59429931640625,1.88055419921875,2.292144775390625
1663862587754708700,0.531708740234375,7.93426513671875,1.2652435302734375,2.1772308349609375
1663862587764596500,0.541596435546875,6.6054840087890625,0.8055572509765625,2.04315185546875
1663862587774453800,0.551453857421875,4.1634063720703125,0.12799072265625,1.751068115234375
1663862587784347000,0.561346923828125,1.9655303955078125,-1.2869873046875,0.8556365966796875
1663862587794204000,0.571203857421875,1.3502197265625,-2.42901611328125,1.118988037109375
1663862587804091600,0.581091552734375,0.828277587890625,-3.0706634521484375,1.763031005859375
1663862587813979400,0.5909794921875,0.68463134765625,-3.0826263427734375,3.3839111328125
1663862587823867100,0.6008671875,1.6016082763671875,-2.3212738037109375,5.5961456298828125
1663862587833724200,0.61072412109375,1.7955322265625,-1.3540191650390625,7.616851806640625
1663862587843612000,0.62061181640625,3.2559967041015625,-1.71075439453125,6.89141845703125
1663862587853499600,0.630499755859375,7.462615966796875,-2.6540679931640625,3.2067413330078125
1663862587863387400,0.640387451171875,10.821685791015625,-4.167205810546875,-2.8362274169921875
1663862587873275100,0.650275146484375,10.6373291015625,-6.1519927978515625,-8.838485717773438
1663862587883162600,0.66016259765625,7.852874755859375,-8.788009643554688,-8.474578857421875
1663862587893050400,0.67005029296875,2.8681488037109375,-10.78717041015625,-5.062835693359375
1663862587902938000,0.679938232421875,-1.553955078125,-11.517410278320312,-1.2943572998046875
1663862587912825900,0.689825927734375,-12.528976440429688,-10.31072998046875,4.976043701171875
1663862587922713600,0.699713623046875,-19.936630249023438,-7.7513275146484375,11.069290161132812
1663862587932601000,0.70960107421875,-5.6623992919921875,-7.897369384765625,7.3079986572265625
1663862587942458400,0.719458251953125,8.372406005859375,-7.9093475341796875,2.126953125
1663862587952346000,0.72934619140625,8.884765625,-10.346633911132812,2.9697113037109375
1663862587962233900,0.73923388671875,3.2224884033203125,-13.468673706054688,5.979217529296875
1663862587972121300,0.749121337890625,3.4882354736328125,-13.231658935546875,8.045425415039062
1663862587982009000,0.759009033203125,9.60302734375,-10.435226440429688,11.074081420898438
1663862587991866400,0.768866455078125,11.717117309570312,-8.407333374023438,14.418777465820312
1663862588001754000,0.778754150390625,10.25665283203125,-7.61724853515625,16.652572631835938
1663862588011641600,0.7886416015625,8.678863525390625,-7.4496612548828125,17.41632080078125
1663862588021529300,0.798529296875,8.944625854492188,-6.7960357666015625,17.686874389648438
1663862588031417000,0.8084169921875,8.947021484375,-6.3674774169921875,19.068328857421875
1663862588041304800,0.818304931640625,8.003707885742188,-4.4185943603515625,22.618927001953125
1663862588051161900,0.828161865234375,6.36846923828125,-0.7147674560546875,26.842300415039062
1663862588061049600,0.838049560546875,5.2479705810546875,2.033782958984375,29.49267578125
1663862588070937300,0.847937255859375,5.8656768798828125,3.44635009765625,30.878921508789062
1663862588080825000,0.8578251953125,6.1505889892578125,4.8804779052734375,31.13031005859375
1663862588090712800,0.867712890625,4.292694091796875,5.7711181640625,29.686599731445312
1663862588100569900,0.87756982421875,1.029388427734375,6.46783447265625,27.48394775390625
1663862588110457600,0.88745751953125,-2.3583984375,7.5093231201171875,25.439300537109375
1663862588120345300,0.897345458984375,-5.9736480712890625,7.9163360595703125,22.884674072265625
1663862588130233000,0.907233154296875,-7.9392852783203125,7.0975189208984375,19.132965087890625
1663862588140120800,0.917120849609375,-8.16912841796875,5.5724029541015625,16.113876342773438
1663862588150008300,0.92700830078125,-6.1795501708984375,4.43756103515625,14.033309936523438
1663862588159865600,0.936865478515625,-4.5802154541015625,2.8454132080078125,10.947189331054688
1663862588169753300,0.94675341796875,-6.873870849609375,-0.9733428955078125,5.1891326904296875
1663862588179641000,0.95664111328125,-11.566497802734375,-6.089752197265625,-0.8514404296875
1663862588189498000,0.966498046875,-10.678253173828125,-6.9085693359375,1.6864166259765625
1663862588199385900,0.9763857421875,-6.97442626953125,-6.089752197265625,7.73895263671875
1663862588209273600,0.986273681640625,-5.7102813720703125,-4.6244964599609375,9.297592163085938
1663862588219161300,0.996161376953125,-4.7166900634765625,-3.2502288818359375,9.345474243164062
1663862588229048800,1.006048828125,-9.263275146484375,-1.705963134765625,7.2218170166015625
1663862588238936600,1.0159365234375,-10.3885498046875,3.2428436279296875,1.751068115234375
1663862588248824300,1.02582421875,-2.8037261962890625,-1.7945556640625,2.98406982421875
1663862588258712000,1.035712158203125,15.452072143554688,-3.6524505615234375,9.271255493164062
1663862588268599800,1.045599853515625,29.304916381835938,1.581268310546875,18.23992919921875
1663862588278456800,1.055456787109375,19.404891967773438,0.513458251953125,22.829620361328125
1663862588288344600,1.065344482421875,5.79864501953125,2.0098419189453125,16.180908203125
1663862588298232300,1.075232421875,-3.146087646484375,1.5884552001953125,12.58721923828125
1663862588308120000,1.0851201171875,-5.099761962890625,0.961181640625,13.499404907226562
1663862588318007800,1.0950078125,-2.3607940673828125,-0.3125457763671875,13.690948486328125
1663862588327864800,1.10486474609375,-1.453399658203125,-2.6899871826171875,8.299209594726562
1663862588337722000,1.11472216796875,-2.6935882568359375,-5.275726318359375,0.0272369384765625
1663862588347609900,1.12460986328125,4.3549346923828125,-12.542129516601562,-8.3548583984375
1663862588357497300,1.134497314453125,2.676605224609375,-12.278762817382812,-8.158538818359375
1663862588367354600,1.144354736328125,-3.040740966796875,-11.105606079101562,-4.8066558837890625
1663862588377242400,1.154242431640625,-5.480438232421875,-15.54205322265625,-2.5968017578125
1663862588387130000,1.164130126953125,-4.9321746826171875,-16.674514770507812,1.9761199951171875
1663862588397017600,1.174017578125,-1.9920806884765625,-15.384033203125,9.932052612304688
1663862588406905300,1.1839052734375,-0.70880126953125,-14.292282104492188,16.109085083007812
1663862588416762600,1.1937626953125,2.4276123046875,-12.417617797851562,20.143325805664062
1663862588426650400,1.203650390625,-1.1924285888671875,-6.7792816162109375,21.512802124023438
1663862588436568600,1.213568603515625,-4.0606842041015625,-4.758575439453125,14.306259155273438
1663862588446456000,1.2234560546875,0.6080169677734375,-7.9045562744140625,6.1707611083984375
1663862588456343800,1.23334375,4.52972412109375,-8.919692993164062,4.6097412109375
1663862588466201000,1.243201171875,0.1986083984375,-8.136795043945312,5.49798583984375
1663862588476058000,1.25305810546875,-7.9823760986328125,-6.2310028076171875,8.849868774414062
1663862588485945900,1.26294580078125,-8.8658447265625,-6.829559326171875,10.985504150390625
1663862588495833600,1.27283349609375,2.4563446044921875,-11.36895751953125,4.8180389404296875
1663862588505721300,1.282721435546875,2.173828125,-9.70977783203125,2.270599365234375
1663862588515609000,1.292609130859375,-1.0822906494140625,-7.8351287841796875,2.7949371337890625
1663862588525496600,1.30249658203125,-5.521148681640625,-6.2765045166015625,8.241744995117188
1663862588535384300,1.31238427734375,-1.6305694580078125,-5.8862457275390625,11.208160400390625
1663862588545272000,1.32227197265625,0.023834228515625,-4.8303985595703125,5.8427581787109375
1663862588555159800,1.332159912109375,-1.2355194091796875,-6.7433624267578125,4.1141357421875
1663862588565047600,1.342047607421875,-0.735137939453125,-8.527053833007812,4.468475341796875
1663862588574935300,1.351935302734375,0.675048828125,-9.259674072265625,4.4636993408203125
1663862588584822800,1.36182275390625,2.0038299560546875,-8.898147583007812,5.5099639892578125
1663862588594680000,1.37168017578125,0.78997802734375,-6.7385711669921875,6.0079498291015625
1663862588604537300,1.381537353515625,-0.663299560546875,-3.7218780517578125,8.976760864257812
1663862588614424800,1.3914248046875,-2.1908111572265625,-1.330078125,8.8570556640625
1663862588624312600,1.4013125,-0.69921875,-3.9996185302734375,4.9688720703125
1663862588634200300,1.411200439453125,0.9982757568359375,-6.925323486328125,3.73345947265625
1663862588644088000,1.421088134765625,-0.598663330078125,-6.903778076171875,3.982452392578125
1663862588653975800,1.430975830078125,-1.4462127685546875,-6.671539306640625,2.0335845947265625
1663862588663863300,1.44086328125,0.6128082275390625,-7.9045562744140625,-1.05255126953125
1663862588673720600,1.450720458984375,-1.802947998046875,-8.00750732421875,-0.5018768310546875
1663862588683608300,1.4606083984375,-1.8580169677734375,-6.78167724609375,0.7502899169921875
1663862588693496000,1.47049609375,-3.0838470458984375,-7.8087921142578125,2.110198974609375
1663862588703383600,1.480383544921875,-3.050323486328125,-8.189468383789062,2.9649200439453125
1663862588713271300,1.490271240234375,-4.276153564453125,-7.3874053955078125,2.8547821044921875
1663862588723159000,1.500158935546875,-10.407699584960938,-4.99560546875,4.43017578125
1663862588733046800,1.510046875,-2.542755126953125,-2.8719482421875,4.7605743408203125
1663862588742934500,1.5199345703125,4.735626220703125,-5.2493896484375,2.5148162841796875
1663862588752822000,1.529822021484375,0.5026702880859375,-8.14398193359375,1.50445556640625
1663862588762709800,1.539709716796875,-2.2386932373046875,-10.339462280273438,-0.245697021484375
1663862588772597500,1.549597412109375,-0.715972900390625,-13.0377197265625,-2.6997528076171875
1663862588782454800,1.559454833984375,-1.1301727294921875,-14.790283203125,-4.512176513671875
1663862588792342500,1.569342529296875,-2.1956024169921875,-11.85498046875,-0.7269439697265625
1663862588802230000,1.57922998046875,-4.154052734375,-6.7720947265625,3.3767242431640625
1663862588812117800,1.58911767578125,-3.6919708251953125,-8.328323364257812,2.545928955078125
1663862588822005500,1.599005615234375,-0.8763885498046875,-13.600357055664062,-0.487518310546875
1663862588831893200,1.608893310546875,-1.6999969482421875,-12.005828857421875,0.2139892578125
1663862588841750300,1.618750244140625,-1.14215087890625,-8.383392333984375,1.77740478515625
1663862588851638000,1.628637939453125,-1.084686279296875,-3.61175537109375,1.530792236328125
1663862588861525800,1.63852587890625,-0.756683349609375,-2.646881103515625,-0.011077880859375
1663862588871413500,1.64841357421875,-1.3576202392578125,-10.899703979492188,-1.6941986083984375
1663862588881301200,1.65830126953125,-0.7303466796875,-27.077316284179688,-3.286346435546875
1663862588891158300,1.668158203125,-2.047149658203125,-29.476318359375,-0.1571197509765625
1663862588901046000,1.6780458984375,-3.498046875,-20.208358764648438,5.6895294189453125
1663862588910933800,1.687933837890625,-3.5866241455078125,-16.09033203125,4.794097900390625
1663862588920821500,1.697821533203125,-2.94976806640625,-14.988998413085938,0.8460540771484375
1663862588930709000,1.707708984375,-3.0838470458984375,-14.419174194335938,-2.2544403076171875
1663862588940596700,1.7175966796875,-1.688018798828125,-13.351364135742188,-4.2775421142578125
1663862588950454000,1.7274541015625,0.2393035888671875,-11.993850708007812,-4.481048583984375
1663862588960341800,1.737341796875,0.162689208984375,-11.682601928710938,-4.291900634765625
1663862588970198800,1.74719873046875,-0.67767333984375,-12.25482177734375,-4.2727508544921875
1663862588980056000,1.75705615234375,-1.8580169677734375,-13.22686767578125,-4.064453125
1663862588989974300,1.766974365234375,-3.0575103759765625,-13.22686767578125,-3.8346099853515625
1663862588999862000,1.776862060546875,-3.536346435546875,-13.011383056640625,-3.6382904052734375
1663862589009749500,1.78674951171875,-3.895477294921875,-12.795913696289062,-3.434783935546875
1663862589019637200,1.79663720703125,-4.1827850341796875,-13.05926513671875,-3.456329345703125
1663862589029525000,1.80652490234375,-3.6225433349609375,-13.3226318359375,-3.6119537353515625
1663862589039412700,1.816412841796875,-2.7510528564453125,-11.052932739257812,-3.0110015869140625
1663862589049300500,1.826300537109375,-2.0710906982421875,-8.57733154296875,-4.9120025634765625
1663862589059157500,1.836157470703125,-2.4709320068359375,-7.8207550048828125,-6.520904541015625
1663862589069045200,1.846045166015625,-3.1269378662109375,-7.0570068359375,-5.484222412109375
1663862589078933000,1.85593310546875,-4.0774383544921875,-7.758514404296875,-4.6701812744140625
1663862589088820700,1.86582080078125,-5.0446929931640625,-9.0010986328125,-3.841796875
1663862589098708500,1.87570849609375,-5.17877197265625,-9.874984741210938,-2.9463653564453125
1663862589108565500,1.8855654296875,-6.5506439208984375,-10.801544189453125,-2.6279296875
1663862589118453200,1.895453369140625,-7.0103302001953125,-11.512619018554688,-2.156280517578125
1663862589128310500,1.905310546875,-6.3974151611328125,-12.355377197265625,-1.971923828125
1663862589138198000,1.915197998046875,-6.2657318115234375,-13.229263305664062,-1.363800048828125
1663862589148085800,1.925085693359375,-6.6703643798828125,-13.875686645507812,-0.7556610107421875
1663862589157973500,1.934973388671875,-6.96484375,-13.657821655273438,-0.7604522705078125
1663862589167861200,1.944861328125,-6.0598297119140625,-13.353759765625,-1.078887939453125
1663862589177749000,1.9547490234375,-5.9329376220703125,-13.12152099609375,-1.6678619384765625
1663862589187636500,1.964636474609375,-5.7006988525390625,-12.637893676757812,-2.4124603271484375
1663862589197493800,1.97449365234375,-3.9122314453125,-12.130325317382812,-2.56329345703125
1663862589207381500,1.984381591796875,-1.1014404296875,-11.136734008789062,-1.8545989990234375
1663862589217269200,1.994269287109375,-0.33050537109375,-9.75048828125,-1.27520751953125
1663862589227156700,2.00415673828125,-1.47015380859375,-8.421707153320312,-0.319915771484375
1663862589237014000,2.014013916015625,-3.9146270751953125,-7.5621795654296875,-0.604827880859375
1663862589246901800,2.02390185546875,-5.5929718017578125,-6.65478515625,-1.8210906982421875
1663862589256789500,2.03378955078125,-6.9409027099609375,-5.64202880859375,-3.425201416015625
1663862589266677000,2.043677001953125,-7.4317169189453125,-5.783294677734375,-5.0341033935546875
1663862589276534300,2.0535341796875,-5.6193084716796875,-5.795257568359375,-5.1753692626953125
1663862589286422000,2.063422119140625,-4.2091217041015625,-5.3690948486328125,-4.8593292236328125
1663862589296279300,2.073279296875,-4.084625244140625,-5.076995849609375,-4.524139404296875
1663862589306197500,2.083197509765625,-4.0822296142578125,-4.4569091796875,-3.995025634765625
1663862589316054500,2.093054443359375,-4.1420745849609375,-3.63330078125,-3.7364501953125
1663862589325972700,2.10297265625,-4.4533233642578125,-3.0874176025390625,-3.5233612060546875
1663862589335860500,2.112860595703125,-4.6209259033203125,-2.927001953125,-3.4180145263671875
1663862589345748200,2.122748291015625,-4.5371246337890625,-3.278961181640625,-3.4012603759765625
1663862589355605200,2.132605224609375,-4.0941925048828125,-3.6931610107421875,-3.5329437255859375
1663862589365493000,2.142492919921875,-3.747039794921875,-3.7266693115234375,-3.4970245361328125
1663862589375380700,2.152380615234375,-3.6776123046875,-3.55908203125,-3.3964691162109375
1663862589385238000,2.162238037109375,-3.8140716552734375,-3.164031982421875,-3.11395263671875
1663862589395156200,2.17215625,-3.9601287841796875,-2.687591552734375,-2.8506011962890625
1663862589405043700,2.182043701171875,-4.2043304443359375,-2.065093994140625,-2.422027587890625
1663862589414901000,2.19190087890625,-4.71429443359375,-1.5216064453125,-2.453155517578125
1663862589424758300,2.20175830078125,-5.3918609619140625,-1.0475616455078125,-2.6710357666015625
1663862589434645800,2.211645751953125,-5.9473114013671875,-1.2127532958984375,-3.001434326171875
1663862589444533500,2.221533447265625,-6.2489776611328125,-1.4162750244140625,-2.9798736572265625
1663862589454421200,2.231421142578125,-6.8355560302734375,-1.4449920654296875,-2.642303466796875
1663862589464309000,2.24130908203125,-7.635223388671875,-1.53118896484375,-2.515411376953125
1663862589474196700,2.25119677734375,-7.709442138671875,-1.6700592041015625,-2.8506011962890625
1663862589484084200,2.261084228515625,-6.6559906005859375,-1.8065185546875,-3.4515380859375
1663862589493972000,2.270971923828125,-5.2505950927734375,-2.0291900634765625,-4.05487060546875
1663862589503829200,2.280829345703125,-4.963287353515625,-2.412261962890625,-4.3948516845703125
1663862589513717000,2.290717041015625,-7.7261962890625,-4.26776123046875,-5.251983642578125
1663862589523574000,2.300573974609375,-10.024627685546875,-8.258895874023438,-6.8943939208984375
1663862589533492200,2.3104921875,-12.181808471679688,-12.903640747070312,-7.502532958984375
1663862589543380000,2.3203798828125,-19.57989501953125,-17.476577758789062,-7.102691650390625
1663862589553267700,2.330267822265625,-11.262435913085938,-21.865142822265625,-3.78912353515625
1663862589563155500,2.340155517578125,1.1850128173828125,-23.150833129882812,-1.15789794921875
1663862589573043200,2.350043212890625,-5.7414093017578125,-18.707199096679688,-0.815521240234375
1663862589582930700,2.3599306640625,-9.27764892578125,-13.5333251953125,-2.431610107421875
1663862589592818400,2.369818359375,-6.3112335205078125,-10.035400390625,-2.769195556640625
1663862589602706200,2.3797060546875,-3.3543853759765625,-7.516693115234375,-1.533782958984375
1663862589612594000,2.389593994140625,-3.4381866455078125,-6.39141845703125,-0.1882476806640625
1663862589622451000,2.399450927734375,-4.5467071533203125,-7.3538818359375,-0.4013214111328125
1663862589632338700,2.409338623046875,-4.1875762939453125,-9.151931762695312,-1.323089599609375
1663862589642226400,2.419226318359375,-2.80133056640625,-10.68182373046875,-1.60321044921875
1663862589652114200,2.4291142578125,-1.601837158203125,-12.0225830078125,-1.682220458984375
1663862589661971200,2.43897119140625,-2.0543365478515625,-13.234054565429688,-2.177825927734375
1663862589671859000,2.44885888671875,-3.229888916015625,-14.127090454101562,-2.78594970703125
1663862589681716200,2.45871630859375,-3.3328399658203125,-14.598739624023438,-3.42999267578125
1663862589691573200,2.4685732421875,-3.007232666015625,-14.694503784179688,-3.7699737548828125
1663862589701491500,2.478491455078125,-2.6768341064453125,-14.581985473632812,-4.1674041748046875
1663862589711379200,2.488379150390625,-2.3440399169921875,-13.964279174804688,-4.19134521484375
1663862589721267000,2.498266845703125,-2.437408447265625,-12.87969970703125,-3.8298187255859375
1663862589731154700,2.50815478515625,-2.9042816162109375,-11.651473999023438,-3.1307220458984375
1663862589741042400,2.51804248046875,-3.064697265625,-10.46875,-2.3023223876953125
1663862589750930000,2.527929931640625,-2.5451507568359375,-9.544586181640625,-2.0748748779296875
1663862589760817700,2.537817626953125,-2.1453094482421875,-8.766464233398438,-1.80194091796875
1663862589770675000,2.547675048828125,-2.0423736572265625,-8.287628173828125,-1.4571685791015625
1663862589780562700,2.557562744140625,-2.375152587890625,-8.177490234375,-1.3470306396484375
1663862589790419700,2.567419677734375,-2.8108978271484375,-8.15594482421875,-1.2129669189453125
1663862589800307500,2.577307373046875,-2.9569549560546875,-8.227767944335938,-0.9400177001953125
1663862589810164700,2.587164794921875,-2.84442138671875,-8.3450927734375,-0.403717041015625
1663862589820083000,2.5970830078125,-2.6457061767578125,-8.560562133789062,0.2451019287109375
1663862589829970700,2.606970703125,-2.8252716064453125,-8.637176513671875,0.9944915771484375
1663862589839858200,2.616858154296875,-3.064697265625,-8.4935302734375,1.64093017578125
1663862589849746000,2.626745849609375,-2.7893524169921875,-8.194259643554688,2.14849853515625
1663862589859633700,2.636633544921875,-2.1764373779296875,-7.8087921142578125,2.3137054443359375
1663862589869521400,2.646521484375,-1.7790069580078125,-7.4664154052734375,2.2346954345703125
1663862589879409200,2.6564091796875,-2.1022186279296875,-7.327545166015625,2.131744384765625
1663862589889296600,2.666296630859375,-2.288970947265625,-7.4879608154296875,2.1293487548828125
1663862589899154000,2.67615380859375,-2.41107177734375,-7.7513275146484375,1.904296875
1663862589909041700,2.686041748046875,-2.279388427734375,-7.87103271484375,1.425445556640625
1663862589918929400,2.695929443359375,-2.5283966064453125,-7.9237060546875,0.812530517578125
1663862589928817000,2.70581689453125,-3.2562255859375,-8.01947021484375,0.19482421875
1663862589938704600,2.71570458984375,-3.8356170654296875,-8.333114624023438,-0.36541748046875
1663862589948592400,2.72559228515625,-3.895477294921875,-8.821533203125,-0.7819976806640625
1663862589958449700,2.73544970703125,-3.6704254150390625,-9.2548828125,-1.0357818603515625
1663862589968337200,2.745337158203125,-3.658447265625,-9.542190551757812,-0.8394622802734375
1663862589978225000,2.755224853515625,-3.747039794921875,-9.839065551757812,-0.985504150390625
1663862589988112600,2.765112548828125,-3.8667449951171875,-9.90850830078125,-1.105224609375
1663862589998000400,2.77500048828125,-3.8882904052734375,-9.89892578125,-1.031005859375
1663862590007888100,2.78488818359375,-3.37115478515625,-10.107223510742188,-1.2345123291015625
1663862590017745200,2.7947451171875,-2.626556396484375,-10.70098876953125,-1.4571685791015625
1663862590027633000,2.8046328125,-2.353607177734375,-11.696975708007812,-1.67742919921875
1663862590037520600,2.814520751953125,-2.3655853271484375,-12.86773681640625,-2.0964202880859375
1663862590047408400,2.824408447265625,-2.3344573974609375,-14.036102294921875,-2.77398681640625
1663862590057296100,2.834296142578125,-2.332061767578125,-15.412765502929688,-3.3533782958984375
1663862590067153200,2.844153076171875,-2.3871307373046875,-16.97857666015625,-3.561676025390625
1663862590077041000,2.854041015625,-2.5188140869140625,-18.067947387695312,-3.00860595703125
1663862590086928600,2.8639287109375,-2.5451507568359375,-18.405517578125,-1.8665771484375
1663862590096785700,2.87378564453125,-2.245880126953125,-17.953018188476562,-0.7125701904296875
1663862590106673400,2.88367333984375,-1.5252227783203125,-17.589096069335938,0.072723388671875
1663862590116530700,2.89353076171875,-0.9290618896484375,-17.519668579101562,0.178070068359375
1663862590126449000,2.903448974609375,-1.053558349609375,-16.906753540039062,-0.224151611328125
1663862590136336600,2.913336669921875,-2.0758819580078125,-15.958648681640625,-0.7556610107421875
1663862590146224000,2.92322412109375,-4.154052734375,-14.99139404296875,-1.2393035888671875
1663862590156081400,2.933081298828125,-6.76373291015625,-14.625076293945312,-1.564910888671875
1663862590165938700,2.942938720703125,-9.830703735351562,-14.919570922851562,-1.45477294921875
1663862590175826200,2.952826171875,-12.59600830078125,-15.755142211914062,-1.327880859375
1663862590185714000,2.9627138671875,-13.517776489257812,-16.674514770507812,-1.301544189453125
1663862590195601700,2.9726015625,-11.693389892578125,-16.918716430664062,-0.837066650390625
1663862590205489400,2.982489501953125,-7.4532623291015625,-16.78704833984375,-0.4204864501953125
1663862590215377200,2.992377197265625,-2.272216796875,-16.152572631835938,1.1094207763671875
1663862590225264600,3.0022646484375,2.4467620849609375,-14.8956298828125,4.4589080810546875
1663862590235152400,3.01215234375,4.6973114013671875,-14.1773681640625,6.78607177734375
1663862590245040000,3.0220400390625,2.1043853759765625,-14.543670654296875,5.66796875
1663862590254928000,3.031927978515625,-2.499664306640625,-15.312210083007812,2.227508544921875
1663862590264785200,3.04178515625,-4.5443115234375,-15.0560302734375,0.304962158203125
1663862590274672600,3.051672607421875,-2.911468505859375,-14.581985473632812,-1.2153472900390625
1663862590284530000,3.061530029296875,-0.0001068115234375,-13.612335205078125,-2.2927398681640625
1663862590294417700,3.071417724609375,2.042144775390625,-12.288345336914062,-2.5297698974609375
1663862590304305400,3.081305419921875,1.7380828857421875,-11.486282348632812,-2.5872344970703125
1663862590314193000,3.09119287109375,-0.03363037109375,-10.753662109375,-2.38372802734375
1663862590324080600,3.10108056640625,-1.5683135986328125,-9.95159912109375,-2.29034423828125
1663862590333938000,3.11093798828125,-3.3112945556640625,-8.869415283203125,-1.818695068359375
1663862590343825700,3.12082568359375,-2.9425811767578125,-7.7752685546875,-2.4986419677734375
1663862590353713200,3.130713134765625,-2.09503173828125,-6.0107421875,-3.5975799560546875
1663862590363601000,3.140600830078125,-1.5467681884765625,-2.8647613525390625,-4.6414642333984375
1663862590373458200,3.150458251953125,-1.8053436279296875,1.13116455078125,-5.3764801025390625
1663862590383346000,3.160345947265625,-2.33685302734375,2.5916290283203125,-5.4889984130859375
1663862590393233400,3.1702333984375,-2.346435546875,0.836669921875,-4.6965179443359375
1663862590403121200,3.18012109375,-2.1453094482421875,-1.09783935546875,-2.4483642578125
1663862590413009000,3.1900087890625,-2.147705078125,-2.467315673828125,-0.3223114013671875
1663862590422866200,3.1998662109375,-2.0447540283203125,-3.1568450927734375,0.831695556640625
1663862590432753700,3.209753662109375,-1.3743896484375,-3.2358551025390625,1.2626495361328125
1663862590442641400,3.219641357421875,-0.852447509765625,-2.852783203125,0.99688720703125
1663862590452529200,3.229529052734375,-0.8548431396484375,-2.2279052734375,-0.25048828125
1663862590462417000,3.2394169921875,-0.7925872802734375,-1.4378204345703125,-1.3350677490234375
1663862590472274000,3.24927392578125,-0.5579681396484375,-0.7363128662109375,-1.66546630859375
1663862590482161700,3.25916162109375,-0.4645843505859375,-0.1329803466796875,-1.76123046875
1663862590492049400,3.26904931640625,-1.03680419921875,0.3147430419921875,-1.26324462890625
1663862590501937200,3.278937255859375,-2.073486328125,0.6523284912109375,-0.63116455078125
1663862590511825000,3.288824951171875,-3.694366455078125,1.126373291015625,-0.5114593505859375
1663862590521712600,3.298712646484375,-5.3774871826171875,1.0928497314453125,-1.0597381591796875
1663862590531600100,3.30860009765625,-6.3447418212890625,0.2213592529296875,-2.0700836181640625
1663862590541487900,3.31848779296875,-6.4548797607421875,-0.6142120361328125,-3.149871826171875
1663862590551375600,3.328375732421875,-5.43255615234375,-1.219940185546875,-3.9782562255859375
1663862590561233000,3.33823291015625,-2.8300628662109375,-1.7706146240234375,-4.2512054443359375
1663862590571120400,3.348120361328125,-0.5388031005859375,-2.57745361328125,-3.6909637451171875
1663862590581008100,3.358008056640625,0.004669189453125,-3.9900360107421875,-3.066070556640625
1663862590590865400,3.367865478515625,-4.7430267333984375,-6.0035552978515625,-3.5233612060546875
1663862590600753200,3.377753173828125,-15.224838256835938,-9.312347412109375,-6.087554931640625
1663862590610671400,3.38767138671875,-28.311553955078125,-14.649017333984375,-6.7555389404296875
1663862590620528400,3.3975283203125,-19.405120849609375,-20.553115844726562,-4.449920654296875
1663862590630446600,3.407446533203125,6.4187469482421875,-24.57537841796875,-1.6582794189453125
1663862590640334300,3.417334228515625,-2.1788330078125,-24.774093627929688,-2.9846649169921875
1663862590650222000,3.42722216796875,-15.48101806640625,-19.255462646484375,-4.79229736328125
1663862590660109800,3.43710986328125,-8.7916259765625,-11.83343505859375,-1.823486328125
1663862590669966800,3.446966796875,-0.450225830078125,-8.321151733398438,-1.0932464599609375
1663862590679854600,3.4568544921875,-2.818084716796875,-5.783294677734375,-1.227325439453125
1663862590689742300,3.466742431640625,-6.260955810546875,-3.79132080078125,-0.741302490234375
1663862590699630000,3.476630126953125,-6.548248291015625,-4.20550537109375,-1.1291656494140625
1663862590709517600,3.486517578125,-5.0806121826171875,-6.4464874267578125,-1.83544921875
1663862590719405300,3.4964052734375,-3.48846435546875,-8.278045654296875,-1.6989898681640625
1663862590729262600,3.5062626953125,-2.6026153564453125,-9.60443115234375,-1.6367340087890625
1663862590739150300,3.516150390625,-2.2386932373046875,-11.18701171875,-2.115570068359375
1663862590749038000,3.5260380859375,-1.9226531982421875,-13.202926635742188,-2.95355224609375
1663862590758925600,3.535925537109375,-2.3919219970703125,-15.309814453125,-3.08282470703125
1663862590768813300,3.545813232421875,-3.213134765625,-17.069564819335938,-2.5561065673828125
1663862590778701000,3.555701171875,-3.869140625,-18.072723388671875,-1.6558837890625
1663862590788588800,3.5655888671875,-4.7430267333984375,-17.852462768554688,-0.66229248046875
1663862590798445800,3.57544580078125,-5.109344482421875,-16.255523681640625,-0.3893585205078125
1663862590808333600,3.58533349609375,-4.412628173828125,-13.834991455078125,-0.8131256103515625
1663862590818221300,3.59522119140625,-3.8619537353515625,-11.455154418945312,-1.1291656494140625
1663862590828109000,3.605109130859375,-2.9521636962890625,-9.669082641601562,-1.6151885986328125
1663862590837996800,3.614996826171875,-2.4134674072265625,-8.287628173828125,-2.0892333984375
1663862590847884300,3.62488427734375,-2.59063720703125,-7.3921966552734375,-2.199371337890625
1663862590857772000,3.63477197265625,-3.1484832763671875,-6.9899749755859375,-2.4483642578125
1663862590867629300,3.64462939453125,-3.419036865234375,-7.018707275390625,-2.8721466064453125
1663862590877517000,3.65451708984375,-3.272979736328125,-7.274871826171875,-2.6087799072265625
1663862590887404500,3.664404541015625,-2.93780517578125,-7.5454254150390625,-1.5146331787109375
1663862590897292300,3.674292236328125,-2.2386932373046875,-7.966796875,-0.245697021484375
1663862590907180000,3.684179931640625,-1.8747711181640625,-8.390579223632812,0.5659332275390625
1663862590917037300,3.694037353515625,-1.9849090576171875,-8.58929443359375,1.13336181640625
1663862590926924800,3.7039248046875,-2.437408447265625,-8.3450927734375,1.197998046875
1663862590936812500,3.7138125,-2.70794677734375,-7.906951904296875,0.8939361572265625
1663862590946700300,3.7237001953125,-2.152496337890625,-7.5190887451171875,0.5755157470703125
1663862590956588000,3.733588134765625,-1.2498779296875,-7.1384124755859375,0.3336944580078125
1663862590966475800,3.743475830078125,-1.010467529296875,-6.798431396484375,0.1110382080078125
1663862590976332800,3.753332763671875,-1.2259368896484375,-6.6308441162109375,-0.1331787109375
1663862590986220500,3.763220458984375,-1.443817138671875,-6.649993896484375,-0.4755401611328125
1663862590996077800,3.773077880859375,-1.9178619384765625,-6.925323486328125,-0.7891845703125
1663862591005965600,3.782965576171875,-2.731903076171875,-7.3419189453125,-1.1171875
1663862591015853000,3.79285302734375,-3.4669189453125,-7.72259521484375,-1.4523773193359375
1663862591025740800,3.80274072265625,-4.0774383544921875,-7.993133544921875,-1.703765869140625
1663862591035598000,3.81259814453125,-4.877105712890625,-8.19903564453125,-1.7157440185546875
1663862591045485800,3.82248583984375,-5.3942413330078125,-8.474380493164062,-1.323089599609375
1663862591055342800,3.8323427734375,-5.2721405029296875,-8.912506103515625,-1.0717010498046875
1663862591065261000,3.842260986328125,-4.8387908935546875,-9.470367431640625,-0.784393310546875
1663862591075148800,3.852148681640625,-3.8882904052734375,-10.109619140625,-0.758056640625
1663862591085036500,3.86203662109375,-2.7606201171875,-10.605209350585938,-0.95916748046875
1663862591094893600,3.8718935546875,-1.9274444580078125,-11.038558959960938,-1.1674652099609375
1663862591104781300,3.88178125,-1.5778961181640625,-11.64190673828125,-1.5265960693359375
1663862591114638600,3.891638671875,-1.3863525390625,-12.293121337890625,-2.0652923583984375
1663862591124556800,3.901556884765625,-0.99609375,-13.126312255859375,-2.6135711669921875
1663862591134444500,3.911444580078125,-0.356842041015625,-14.637054443359375,-3.11395263671875
1663862591144332000,3.92133203125,-0.0264434814453125,-16.9259033203125,-3.20733642578125
1663862591154219800,3.9312197265625,-0.304168701171875,-18.527633666992188,-2.3909149169921875
1663862591164107500,3.941107421875,-0.936248779296875,-18.379180908203125,-0.973541259765625
1663862591173995300,3.950995361328125,-1.592254638671875,-17.699234008789062,-0.1475372314453125
1663862591183852300,3.960852294921875,-2.0184173583984375,-17.912322998046875,0.199615478515625
1663862591193740000,3.970739990234375,-2.2027740478515625,-18.149337768554688,0.6186065673828125
1663862591203627800,3.980627685546875,-1.94659423828125,-17.670501708984375,0.8556365966796875
1663862591213515500,3.990515625,-1.7430877685546875,-16.257919311523438,0.2714385986328125
1663862591223403300,4.0004033203125,-2.5978240966796875,-14.869293212890625,-0.8657989501953125
1663862591233291000,4.010291015625,-4.201934814453125,-14.476638793945312,-1.9264373779296875
1663862591243178500,4.020178466796875,-5.765350341796875,-14.574798583984375,-2.6470794677734375
1663862591253066200,4.030066162109375,-7.161163330078125,-14.704086303710938,-2.812286376953125
1663862591262923500,4.039923583984375,-8.140396118164062,-15.06561279296875,-2.769195556640625
1663862591272780500,4.049780517578125,-8.449249267578125,-15.206863403320312,-3.097198486328125
1663862591282668300,4.059668212890625,-8.23138427734375,-14.902801513671875,-2.84820556640625
1663862591292556000,4.06955615234375,-6.2920684814453125,-14.8956298828125,-1.52899169921875
1663862591302443800,4.07944384765625,-2.6409149169921875,-15.2236328125,1.2434844970703125
1663862591312331500,4.08933154296875,1.467529296875,-15.168563842773438,5.4213714599609375
1663862591322219000,4.099218994140625,3.7037200927734375,-15.27630615234375,9.548980712890625
1663862591332106800,4.109106689453125,3.2919158935546875,-16.052017211914062,10.968734741210938
1663862591341994500,4.118994384765625,2.0134124755859375,-16.708038330078125,9.170700073242188
1663862591351882200,4.12888232421875,-0.0096893310546875,-16.119064331054688,6.000762939453125
1663862591361770000,4.13877001953125,-1.834075927734375,-14.8333740234375,3.8172607421875
1663862591371596500,4.148596435546875,-2.3775482177734375,-14.220458984375,1.7654266357421875
1663862591381484300,4.158484375,-2.4924774169921875,-13.930755615234375,-1.09564208984375
1663862591391341300,4.16834130859375,-3.124542236328125,-13.040115356445312,-3.3533782958984375
1663862591401259500,4.178259521484375,-1.889129638671875,-11.426422119140625,-3.6981353759765625
1663862591411147300,4.188147216796875,1.37176513671875,-9.33868408203125,-3.657440185546875
1663862591421035000,4.198034912109375,2.7484283447265625,-7.3969879150390625,-4.4882354736328125
1663862591430922800,4.2079228515625,1.80511474609375,-6.8223724365234375,-5.2304229736328125
1663862591440810500,4.217810546875,0.172271728515625,-7.6100616455078125,-5.558441162109375
1663862591450698200,4.2276982421875,-2.1860198974609375,-8.349868774414062,-4.967071533203125
1663862591460555300,4.23755517578125,-3.1436920166015625,-8.392974853515625,-3.74603271484375
1663862591470443000,4.247443115234375,-2.03997802734375,-7.538238525390625,-3.0062103271484375
1663862591480300300,4.25730029296875,-0.8668060302734375,-5.8024444580078125,-2.89129638671875
1663862591490187800,4.267187744140625,-0.481353759765625,-3.4034576416015625,-3.075653076171875
1663862591500075500,4.277075439453125,-1.1445465087890625,-1.0858612060546875,-3.224090576171875
1663862591509963300,4.28696337890625,-1.740692138671875,0.2141876220703125,-3.2121124267578125
1663862591519851000,4.29685107421875,-2.087860107421875,-0.0970611572265625,-2.96551513671875
1663862591529738800,4.30673876953125,-2.44219970703125,-1.342041015625,-2.3310546875
1663862591539626200,4.316626220703125,-2.5666961669921875,-2.5439300537109375,-1.2512664794921875
1663862591549514000,4.326513916015625,-2.5140228271484375,-3.4609222412109375,-0.5641326904296875
1663862591559401700,4.336401611328125,-1.96575927734375,-3.9110260009765625,-0.171478271484375
1663862591569289500,4.34628955078125,-1.422271728515625,-3.7889251708984375,0.3001708984375
1663862591579177200,4.35617724609375,-1.1828460693359375,-3.3459930419921875,0.6880340576171875
1663862591589064700,4.366064697265625,-1.096649169921875,-2.6421051025390625,0.7024078369140625
1663862591598922000,4.375921875,-1.4581756591796875,-1.895111083984375,0.2068023681640625
1663862591608809700,4.385809814453125,-2.384735107421875,-1.689208984375,-1.1722564697265625
1663862591618697500,4.395697509765625,-3.5291595458984375,-1.8232879638671875,-2.431610107421875
1663862591628585000,4.4055849609375,-4.28094482421875,-2.0291900634765625,-3.140289306640625
1663862591638472700,4.41547265625,-4.4940338134765625,-2.2997283935546875,-3.53533935546875
1663862591648330000,4.425330078125,-4.3743133544921875,-2.57745361328125,-3.5760345458984375
1663862591658217700,4.4352177734375,-4.2737579345703125,-2.8815155029296875,-3.1163482666015625
1663862591668105200,4.445105224609375,-3.869140625,-3.2550201416015625,-2.6351165771484375
1663862591677993000,4.454992919921875,-3.6656341552734375,-3.9325714111328125,-2.7021484375
1663862591687880700,4.464880615234375,-4.8603363037109375,-5.1895294189453125,-2.8625640869140625
1663862591697768400,4.4747685546875,-7.752532958984375,-7.51190185546875,-3.6239166259765625
1663862591707625700,4.484625732421875,-10.0294189453125,-10.411285400390625,-4.313446044921875
1663862591717513200,4.49451318359375,-10.781204223632812,-12.599578857421875,-4.385284423828125
1663862591727401000,4.50440087890625,-13.058090209960938,-13.997802734375,-4.5049896240234375
1663862591737288700,4.514288818359375,-12.442779541015625,-15.27630615234375,-3.0181884765625
1663862591747146000,4.52414599609375,-5.5929718017578125,-16.600296020507812,-2.168243408203125
1663862591757003000,4.5340029296875,-1.33367919921875,-16.262710571289062,-2.4986419677734375
1663862591766890800,4.543890869140625,-6.260955810546875,-13.873306274414062,-3.7771453857421875
1663862591776778500,4.553778564453125,-7.7166290283203125,-11.424026489257812,-4.56005859375
1663862591786635500,4.563635498046875,-5.590576171875,-9.654708862304688,-3.3150634765625
1663862591796553700,4.5735537109375,-5.04229736328125,-8.44085693359375,-1.4667510986328125
1663862591806441500,4.58344140625,-4.6807708740234375,-8.074539184570312,-0.2050018310546875
1663862591816329200,4.5933291015625,-4.67120361328125,-8.4193115234375,0.199615478515625
1663862591826217000,4.603217041015625,-5.2458038330078125,-9.003494262695312,0.1708831787109375
1663862591836104700,4.613104736328125,-4.9225921630859375,-9.752883911132812,-0.2050018310546875
1663862591845961700,4.622961669921875,-4.0415191650390625,-10.313125610351562,-0.688629150390625
1663862591855819000,4.632819091796875,-4.154052734375,-10.751266479492188,-1.5313873291015625
1663862591865737200,4.6427373046875,-3.917022705078125,-11.124755859375,-2.4986419677734375
1663862591875594200,4.65259423828125,-3.3807220458984375,-11.412063598632812,-3.2791595458984375
1663862591885482000,4.66248193359375,-3.572265625,-11.79034423828125,-3.858551025390625
1663862591895369700,4.67236962890625,-3.5962066650390625,-12.302703857421875,-4.1314849853515625
1663862591905257500,4.682257568359375,-3.440582275390625,-12.5924072265625,-3.710113525390625
1663862591915114500,4.692114501953125,-3.3495941162109375,-12.405654907226562,-2.580047607421875
1663862591925032700,4.70203271484375,-3.1413116455078125,-11.823867797851562,-1.23211669921875
1663862591934890000,4.711889892578125,-2.99285888671875,-11.158279418945312,-0.4204864501953125
1663862591944777700,4.72177783203125,-3.26580810546875,-10.519027709960938,-0.3582305908203125
1663862591954665500,4.73166552734375,-3.3950958251953125,-9.965957641601562,-0.2361297607421875
1663862591964522500,4.7415224609375,-2.940185546875,-9.499099731445312,-0.2959747314453125
1663862591974410200,4.75141015625,-2.8899078369140625,-8.981948852539062,-0.298370361328125
1663862591984328400,4.761328369140625,-3.2322845458984375,-8.711395263671875,-0.386962890625
1663862591994185700,4.771185791015625,-3.3807220458984375,-8.742523193359375,-0.719757080078125
1663862592004059000,4.781058837890625,-3.44537353515625,-8.81195068359375,-0.96875
1663862592013946400,4.7909462890625,-3.4693145751953125,-8.847869873046875,-0.9878997802734375
1663862592023803600,4.8008037109375,-3.725494384765625,-8.7161865234375,-0.9663543701171875
1663862592033721900,4.810721923828125,-3.7829437255859375,-8.479156494140625,-0.583282470703125
1663862592043609600,4.820609619140625,-3.1676483154296875,-8.26129150390625,0.1445465087890625
1663862592053497300,4.830497314453125,-2.5020599365234375,-8.309173583984375,0.7047882080078125
1663862592063385000,4.840385009765625,-2.02081298828125,-8.27325439453125,1.2003936767578125
1663862592073272600,4.8502724609375,-2.0495452880859375,-8.158340454101562,1.6074066162109375
1663862592083160300,4.860160400390625,-2.205169677734375,-8.232559204101562,1.794158935546875
1663862592093048000,4.870048095703125,-2.073486328125,-8.402542114257812,1.7007904052734375
1663862592102905300,4.8799052734375,-1.9873046875,-8.495925903320312,1.360809326171875
1663862592112792800,4.889792724609375,-2.1237640380859375,-8.5677490234375,0.685638427734375
1663862592122680600,4.8996806640625,-2.183624267578125,-8.63238525390625,-0.0733184814453125
1663862592132568300,4.909568359375,-2.427825927734375,-8.615631103515625,-0.793975830078125
1663862592142456000,4.9194560546875,-2.6744384765625,-8.591690063476562,-1.34942626953125
1663862592152313000,4.92931298828125,-2.700775146484375,-8.680282592773438,-1.78277587890625
1663862592162200800,4.939200927734375,-2.796539306640625,-8.878997802734375,-2.3669586181640625
1663862592172088600,4.949088623046875,-3.5076141357421875,-9.080108642578125,-2.750030517578125
1663862592181976300,4.958976318359375,-4.0080108642578125,-9.491912841796875,-2.8050994873046875
1663862592191864000,4.968864013671875,-3.598602294921875,-9.977935791015625,-2.4244232177734375
1663862592201751600,4.97875146484375,-3.361572265625,-10.461563110351562,-1.95037841796875
1663862592211639300,4.988639404296875,-3.9194183349609375,-10.71295166015625,-1.3949127197265625
1663862592221496600,4.99849658203125,-3.8763275146484375,-10.6483154296875,-0.48272705078125
1663862592231384300,5.00838427734375,-2.5379638671875,-10.530990600585938,0.5348052978515625
1663862592241271800,5.018271728515625,-1.233123779296875,-10.657882690429688,1.2099761962890625
1663862592251129000,5.028129150390625,-0.7447052001953125,-11.069686889648438,1.3033447265625
1663862592261016800,5.038016845703125,-0.7135772705078125,-11.70654296875,0.822113037109375
1663862592270904600,5.047904541015625,-0.8237152099609375,-12.491851806640625,-0.1571197509765625
1663862592280792300,5.057792236328125,-0.7494964599609375,-13.1741943359375,-1.1363525390625
1663862592290679800,5.0676796875,-0.8165283203125,-13.669784545898438,-1.78277587890625
1663862592300567600,5.077567626953125,-0.9194793701171875,-14.038497924804688,-2.1850128173828125
1663862592310455300,5.087455322265625,-0.835693359375,-14.490997314453125,-2.4914703369140625
1663862592320312600,5.0973125,-0.6704864501953125,-15.2667236328125,-2.570465087890625
1663862592330169600,5.107169677734375,-0.5172576904296875,-16.274688720703125,-2.3980865478515625
1663862592340057300,5.117057373046875,-0.45501708984375,-16.96661376953125,-2.168243408203125
1663862592349914600,5.12691455078125,-0.598663330078125,-17.275466918945312,-1.76123046875
1663862592359832800,5.136832763671875,-0.6872406005859375,-17.38079833984375,-1.2249298095703125
1663862592369720300,5.14672021484375,-0.7447052001953125,-17.14617919921875,-0.9328460693359375
1663862592379608000,5.156608154296875,-0.9913177490234375,-16.540435791015625,-1.4667510986328125
1663862592389495800,5.166495849609375,-1.5108489990234375,-15.360092163085938,-2.781158447265625
1663862592399383600,5.176383544921875,-2.660064697265625,-14.007369995117188,-4.3182373046875
1663862592409240600,5.186240478515625,-4.1732025146484375,-13.219680786132812,-5.4626617431640625
1663862592419128300,5.19612841796875,-5.2625732421875,-12.872528076171875,-6.0803680419921875
1663862592429016000,5.20601611328125,-5.72943115234375,-12.616348266601562,-6.1426239013671875
1663862592438903800,5.21590380859375,-6.028717041015625,-12.52056884765625,-5.5991363525390625
1663862592448791600,5.22579150390625,-6.483612060546875,-12.83660888671875,-5.00537109375
1663862592458679000,5.235678955078125,-7.285675048828125,-13.67218017578125,-4.11712646484375
1663862592468566800,5.24556689453125,-7.4221343994140625,-14.680145263671875,-2.96551513671875
1663862592478454500,5.25545458984375,-5.6791534423828125,-15.6258544921875,-1.3877410888671875
1663862592488342300,5.26534228515625,-2.3248748779296875,-16.09033203125,1.0208282470703125
1663862592498199600,5.275199462890625,0.754058837890625,-15.726409912109375,4.20751953125
1663862592508087000,5.285087158203125,1.9559478759765625,-15.008148193359375,7.3223724365234375
1663862592517974800,5.294974853515625,1.1993865966796875,-14.680145263671875,8.354263305664062
1663862592527862500,5.304862548828125,-0.514862060546875,-14.498184204101562,6.412567138671875
1663862592537750300,5.314750244140625,-2.4134674072265625,-13.720077514648438,3.12054443359375
1663862592547638000,5.324637939453125,-3.545928955078125,-12.6043701171875,0.707183837890625
1663862592557495000,5.3344951171875,-3.830841064453125,-12.278762817382812,-2.1395111083984375
1663862592567382800,5.3443828125,-3.715911865234375,-11.828643798828125,-4.5911712646484375
1663862592577270500,5.3542705078125,-2.985687255859375,-10.466354370117188,-4.967071533203125
1663862592587127600,5.36412744140625,-0.5603485107421875,-8.519866943359375,-4.153045654296875
1663862592597015300,5.374015380859375,1.599212646484375,-7.0498199462890625,-3.8489837646484375
1663862592606872600,5.38387255859375,1.884124755859375,-6.5590057373046875,-4.0716400146484375
1663862592616760300,5.39376025390625,0.8665924072265625,-6.733795166015625,-4.0500946044921875
1663862592626647800,5.403647705078125,-0.6130218505859375,-7.1767120361328125,-4.064453125
1663862592636535600,5.41353564453125,-1.9441986083984375,-7.452056884765625,-4.3182373046875
1663862592646423300,5.42342333984375,-2.966522216796875,-7.210235595703125,-4.375701904296875
1663862592656311000,5.43331103515625,-3.2538299560546875,-6.4416961669921875,-4.4044342041015625
1663862592666198800,5.44319873046875,-3.00244140625,-5.35711669921875,-4.275146484375
1663862592676086300,5.453086181640625,-2.3703765869140625,-4.1480560302734375,-3.7771453857421875
1663862592685974000,5.46297412109375,-2.1956024169921875,-2.99884033203125,-3.5066070556640625
1663862592695861800,5.47286181640625,-2.4924774169921875,-2.000457763671875,-2.9056549072265625
1663862592705749500,5.48274951171875,-2.193206787109375,-1.2702178955078125,-1.6894073486328125
1663862592715637200,5.49263720703125,-2.3248748779296875,-1.23431396484375,-0.5114593505859375
1663862592725494300,5.502494384765625,-2.4757232666015625,-1.6916046142578125,0.1708831787109375
1663862592735351600,5.5123515625,-2.3703765869140625,-2.148895263671875,0.0966644287109375
1663862592745239300,5.5222392578125,-2.36798095703125,-2.5989990234375,-0.391754150390625
1663862592755096300,5.532096435546875,-2.4326171875,-3.068267822265625,-1.0022735595703125
1663862592765014500,5.5420146484375,-2.087860107421875,-3.2430419921875,-1.00946044921875
1663862592774871800,5.551871826171875,-1.5108489990234375,-2.9605255126953125,-0.65032958984375
1663862592784759600,5.561759521484375,-1.5300140380859375,-2.381134033203125,-0.4755401611328125
1663862592794647300,5.571647216796875,-2.183624267578125,-2.0722808837890625,-0.7604522705078125
1663862592804534800,5.58153466796875,-3.304107666015625,-2.0243988037109375,-1.227325439453125
1663862592814392000,5.59139208984375,-4.52276611328125,-1.7825775146484375,-1.787567138671875
1663862592824310300,5.601310302734375,-5.2194671630859375,-1.526397705078125,-2.580047607421875
1663862592834167600,5.61116748046875,-5.5402984619140625,-1.57427978515625,-3.456329345703125
1663862592844024600,5.621024658203125,-5.8635101318359375,-1.7562408447265625,-3.995025634765625
1663862592853912300,5.630912353515625,-5.8371734619140625,-2.1776275634765625,-3.7963104248046875
1663862592863830500,5.64083056640625,-5.5570526123046875,-3.0347442626953125,-2.75482177734375
1663862592873718300,5.65071826171875,-5.8850555419921875,-4.7825164794921875,-2.3717498779296875
1663862592883606000,5.66060595703125,-6.0311126708984375,-7.5765533447265625,-2.2711944580078125
1663862592893493500,5.670493408203125,-12.885711669921875,-10.99786376953125,-2.2065582275390625
1663862592903381200,5.68038134765625,-24.073806762695312,-15.434326171875,-3.4323883056640625
1663862592913269000,5.69026904296875,-10.824295043945312,-19.990478515625,-2.9248199462890625
1663862592923126300,5.700126220703125,4.335784912109375,-20.869155883789062,-1.1411285400390625
1663862592932983300,5.7099833984375,-5.870697021484375,-17.663314819335938,-1.3135223388671875
1663862592942901500,5.719901611328125,-11.9615478515625,-14.002578735351562,-3.5975799560546875
1663862592952789200,5.729789306640625,-6.7038726806640625,-10.5118408203125,-3.0948028564453125
1663862592962677000,5.739677001953125,-3.1077880859375,-7.4137420654296875,-1.2871856689453125
1663862592972564700,5.749564697265625,-2.6457061767578125,-5.51513671875,-1.0740966796875
1663862592982452500,5.759452392578125,-3.7542266845703125,-5.0003814697265625,-2.46990966796875
1663862592992340000,5.769340087890625,-5.3080596923828125,-5.3978271484375,-4.0309295654296875
1663862593002197200,5.779197265625,-4.99920654296875,-6.5637969970703125,-5.326202392578125
1663862593012085000,5.7890849609375,-4.21630859375,-7.7992095947265625,-5.65899658203125
1663862593021972700,5.79897265625,-3.8140716552734375,-9.17108154296875,-5.168182373046875
1663862593031860200,5.808860107421875,-3.2011566162109375,-10.863784790039062,-4.313446044921875
1663862593041748000,5.818748046875,-2.753448486328125,-12.8892822265625,-3.3270416259765625
1663862593051635700,5.8286357421875,-2.9904632568359375,-14.869293212890625,-2.35260009765625
1663862593061493000,5.838492919921875,-3.35198974609375,-15.927520751953125,-0.626373291015625
1663862593071380500,5.84838037109375,-3.4286041259765625,-15.771896362304688,1.413482666015625
1663862593081268200,5.858268310546875,-3.71112060546875,-14.766342163085938,2.4836883544921875
1663862593091125500,5.86812548828125,-3.6440887451171875,-13.346572875976562,2.0958251953125
1663862593101013200,5.87801318359375,-3.4549407958984375,-11.670639038085938,1.470947265625
1663862593110870300,5.887870361328125,-3.366363525390625,-10.253265380859375,0.6928253173828125
1663862593120727600,5.8977275390625,-2.9473724365234375,-9.144744873046875,-0.15472412109375
1663862593130615300,5.907615234375,-2.5260009765625,-8.416915893554688,-1.026214599609375
1663862593140533500,5.917533447265625,-2.29376220703125,-7.971588134765625,-1.363800048828125
1663862593150390500,5.927390625,-2.1381378173828125,-7.7896270751953125,-1.490692138671875
1663862593160308700,5.937308837890625,-2.2530517578125,-7.8494873046875,-1.6415252685546875
1663862593170196500,5.947196533203125,-2.2075653076171875,-8.110458374023438,-1.7468719482421875
1663862593180084200,5.957084228515625,-2.15728759765625,-8.503097534179688,-1.6463165283203125
1663862593189972000,5.966971923828125,-2.1285552978515625,-9.056167602539062,-1.24407958984375
1663862593199859500,5.976859375,-2.4757232666015625,-9.436843872070312,-0.518646240234375
1663862593209747200,5.986747314453125,-2.55950927734375,-9.659500122070312,-0.1212005615234375
1663862593219635000,5.996635009765625,-2.3560028076171875,-9.690628051757812,0.0775146484375
1663862593229522700,6.006522705078125,-1.939422607421875,-9.4967041015625,0.4773406982421875
1663862593239380000,6.0163798828125,-1.8939208984375,-8.996307373046875,0.8771820068359375
1663862593249267500,6.026267333984375,-1.9370269775390625,-8.498321533203125,0.8819732666015625
1663862593259155200,6.0361552734375,-2.1070098876953125,-8.290023803710938,0.5252227783203125
1663862593269012500,6.046012451171875,-2.300933837890625,-8.148757934570312,0.2068023681640625
1663862593278869500,6.055869384765625,-2.27459716796875,-8.175094604492188,-0.29119873046875
1663862593288757200,6.06575732421875,-2.5307769775390625,-8.287628173828125,-0.858612060546875
1663862593298645000,6.07564501953125,-2.98089599609375,-8.318756103515625,-1.08367919921875
1663862593308532700,6.08553271484375,-3.344818115234375,-8.37860107421875,-0.983123779296875
1663862593318420500,6.09542041015625,-3.672821044921875,-8.550994873046875,-0.6814422607421875
1663862593328277500,6.105277587890625,-3.885894775390625,-8.788009643554688,-0.3007659912109375
1663862593338195700,6.11519580078125,-3.6823883056640625,-8.974761962890625,0.156524658203125
1663862593348083500,6.12508349609375,-3.24664306640625,-9.027435302734375,0.7981719970703125
1663862593357971200,6.13497119140625,-2.7630157470703125,-9.11602783203125,1.3751678466796875
1663862593367828200,6.144828125,-1.9801177978515625,-9.54937744140625,1.265045166015625
1663862593377685500,6.154685546875,-1.4055023193359375,-10.463958740234375,0.292999267578125
1663862593387603700,6.164603759765625,-1.5467681884765625,-11.471908569335938,-1.057342529296875
1663862593397461000,6.1744609375,-1.972930908203125,-12.197357177734375,-2.3071136474609375
1663862593407318000,6.184318115234375,-2.2530517578125,-12.728866577148438,-3.0517120361328125
1663862593417236200,6.194236328125,-2.0447540283203125,-13.04730224609375,-3.7436370849609375
1663862593427124000,6.2041240234375,-1.479736328125,-13.351364135742188,-4.40203857421875
1663862593437011700,6.21401171875,-0.8859710693359375,-14.043289184570312,-5.053253173828125
1663862593446899500,6.2238994140625,-0.704010009765625,-15.0440673828125,-5.0915679931640625
1663862593456787000,6.233786865234375,-0.9194793701171875,-15.891616821289062,-4.7276458740234375
1663862593466674700,6.2436748046875,-1.0774993896484375,-16.84210205078125,-3.90643310546875
1663862593476532000,6.253531982421875,-0.8859710693359375,-17.75909423828125,-2.5082244873046875
1663862593486389200,6.26338916015625,-0.672882080078125,-17.81414794921875,-0.837066650390625
1663862593496307500,6.273307373046875,-0.3520660400390625,-17.364044189453125,0.23553466796875
1663862593506195000,6.28319482421875,0.0334014892578125,-16.526077270507812,-0.1475372314453125
1663862593516082700,6.293082763671875,-0.5843048095703125,-15.132644653320312,-1.5792694091796875
1663862593525940000,6.30293994140625,-1.6712646484375,-14.036102294921875,-3.372528076171875
1663862593535827700,6.31282763671875,-2.66485595703125,-13.408828735351562,-4.4523162841796875
1663862593545715200,6.322715087890625,-3.7135162353515625,-12.870132446289062,-4.7515869140625
1663862593555572500,6.332572509765625,-5.0327301025390625,-12.578033447265625,-4.7013092041015625
1663862593565490700,6.34249072265625,-6.294464111328125,-12.733657836914062,-4.3637237548828125
1663862593575378400,6.35237841796875,-7.414947509765625,-13.387283325195312,-3.6909637451171875
1663862593585266200,6.36226611328125,-8.133209228515625,-14.225250244140625,-2.7093353271484375
1663862593595153700,6.372153564453125,-7.61846923828125,-14.977020263671875,-1.6558837890625
1663862593605011000,6.382010986328125,-5.585784912109375,-15.46783447265625,-0.5952606201171875
1663862593614868200,6.3918681640625,-2.7821807861328125,-15.532485961914062,1.013641357421875
1663862593624755700,6.401755615234375,0.18902587890625,-15.0751953125,2.8763427734375
1663862593634643500,6.4116435546875,2.2408599853515625,-14.299468994140625,4.360748291015625
1663862593644531200,6.42153125,1.769195556640625,-13.767959594726562,3.8675384521484375
1663862593654419000,6.4314189453125,-0.761474609375,-13.31304931640625,1.0304107666015625
1663862593664306700,6.441306640625,-2.9904632568359375,-12.376922607421875,-1.236907958984375
1663862593674163700,6.451163818359375,-4.41741943359375,-11.689788818359375,-2.8984832763671875
1663862593684051500,6.461051513671875,-4.920196533203125,-11.620361328125,-4.66778564453125
1663862593693908700,6.47090869140625,-4.106170654296875,-11.455154418945312,-5.591949462890625
1663862593703827000,6.480826904296875,-1.000885009765625,-10.5118408203125,-4.90960693359375
1663862593713714700,6.490714599609375,2.791534423828125,-8.922088623046875,-3.92559814453125
1663862593723571700,6.50057177734375,4.10833740234375,-7.464019775390625,-3.04931640625
1663862593733490000,6.510489990234375,2.91363525390625,-6.8223724365234375,-2.843414306640625
1663862593743377700,6.520377685546875,-0.1988372802734375,-6.714630126953125,-2.580047607421875
1663862593753265400,6.530265380859375,-3.4046630859375,-6.9229278564453125,-2.3406219482421875
1663862593763122400,6.540122314453125,-5.047088623046875,-7.4568328857421875,-3.054107666015625
1663862593772979700,6.549979736328125,-4.5562744140625,-7.7680816650390625,-4.052490234375
1663862593782867500,6.559867431640625,-2.6289520263671875,-7.1910858154296875,-4.4044342041015625
1663862593792785700,6.56978564453125,-1.2379150390625,-4.9357452392578125,-4.1506500244140625
1663862593802673400,6.57967333984375,-1.84124755859375,-2.11297607421875,-3.54730224609375
1663862593812561000,6.589560791015625,-2.626556396484375,-0.62139892578125,-3.509002685546875
1663862593822448600,6.59944873046875,-2.9425811767578125,-0.755462646484375,-3.1905670166015625
1663862593832336400,6.60933642578125,-2.923431396484375,-1.552734375,-1.9216461181640625
1663862593842224000,6.61922412109375,-2.4613494873046875,-2.2398681640625,-0.6551055908203125
1663862593852081200,6.6290810546875,-2.372772216796875,-2.7330780029296875,-0.0829010009765625
1663862593861969000,6.638968994140625,-2.643310546875,-3.04193115234375,-0.5665283203125
1663862593871826200,6.648826171875,-2.9425811767578125,-3.1616363525390625,-1.1339569091796875
1663862593881714000,6.6587138671875,-3.138916015625,-3.384307861328125,-1.459564208984375
1663862593891601400,6.668601318359375,-3.0886383056640625,-3.142486572265625,-1.23211669921875
1663862593901458700,6.678458740234375,-2.2099609375,-2.060302734375,-0.5114593505859375
1663862593911346400,6.688346435546875,-1.613800048828125,-0.748291015625,-0.5904693603515625
1663862593921234200,6.698234130859375,-2.425445556640625,-0.2095947265625,-1.9264373779296875
1663862593931091200,6.70809130859375,-3.9002685546875,-0.26226806640625,-3.1211395263671875
1663862593940979000,6.71797900390625,-5.0758209228515625,-0.30535888671875,-3.7867279052734375
1663862593950866700,6.72786669921875,-6.347137451171875,-0.501678466796875,-4.6007537841796875
1663862593960785000,6.737784912109375,-7.0773773193359375,-0.9302520751953125,-5.316619873046875
1663862593970642200,6.74764208984375,-5.7150726318359375,-1.452178955078125,-5.2615509033203125
1663862593980529700,6.75752978515625,-3.73028564453125,-2.4050750732421875,-4.809051513671875
1663862593990417400,6.76741748046875,-4.7526092529296875,-3.90863037109375,-4.4954071044921875
1663862594000305200,6.77730517578125,-8.456436157226562,-5.922149658203125,-3.705322265625
1663862594010193000,6.78719287109375,-16.773895263671875,-9.786392211914062,-3.267181396484375
1663862594020050000,6.7970498046875,-20.331680297851562,-14.6226806640625,-2.441192626953125
1663862594029937700,6.806937744140625,-7.161163330078125,-18.3001708984375,-1.428436279296875
1663862594039825400,6.816825439453125,-0.790191650390625,-17.761489868164062,-0.5856781005859375
1663862594049713200,6.826713134765625,-8.91851806640625,-14.603530883789062,-1.7468719482421875
1663862594059601000,6.836600830078125,-10.137161254882812,-11.713729858398438,-2.2999267578125
1663862594069488400,6.84648828125,-5.9999847412109375,-9.446426391601562,-0.66229248046875
1663862594079376100,6.856376220703125,-3.895477294921875,-8.012298583984375,0.2810211181640625
1663862594089263900,6.866263916015625,-5.1404571533203125,-7.43768310546875,-0.2265472412109375
1663862594099151600,6.876151611328125,-5.7509918212890625,-8.246917724609375,-1.617584228515625
1663862594109039400,6.886039306640625,-5.1189117431640625,-9.511062622070312,-2.6351165771484375
1663862594118926800,6.8959267578125,-4.063079833984375,-10.26763916015625,-3.0924072265625
1663862594128814600,6.905814697265625,-3.4429779052734375,-10.921249389648438,-3.5113983154296875
1663862594138641400,6.915641357421875,-3.34002685546875,-11.560501098632812,-4.01177978515625
1663862594148529000,6.92552880859375,-3.430999755859375,-12.163833618164062,-4.0979766845703125
1663862594158416600,6.935416748046875,-3.69915771484375,-12.929977416992188,-3.7125091552734375
1663862594168274000,6.94527392578125,-3.7494354248046875,-14.016952514648438,-3.1426849365234375
1663862594178161700,6.95516162109375,-3.208343505859375,-14.58917236328125,-2.134735107421875
1663862594188079900,6.965079833984375,-2.849212646484375,-14.328201293945312,-0.9017181396484375
1663862594197967600,6.974967529296875,-3.2897491455078125,-13.59796142578125,-0.1044464111328125
1663862594207855000,6.984855224609375,-3.8763275146484375,-12.609161376953125,-0.1092376708984375
1663862594217742800,6.994742919921875,-4.14447021484375,-11.524581909179688,-0.5784912109375
1663862594227630600,7.004630615234375,-3.9673004150390625,-10.451980590820312,-0.9759368896484375
1663862594237518300,7.014518310546875,-3.177215576171875,-9.539794921875,-1.2943572998046875
1663862594247406000,7.024406005859375,-2.4709320068359375,-8.838287353515625,-1.4835052490234375
1663862594257263000,7.03426318359375,-1.97772216796875,-8.44085693359375,-1.7205352783203125
1663862594267150800,7.04415087890625,-2.2243194580078125,-8.2708740234375,-1.8689727783203125
1663862594277038600,7.05403857421875,-2.9354095458984375,-8.37860107421875,-2.0964202880859375
1663862594286895600,7.0638955078125,-3.53155517578125,-8.553390502929688,-1.936004638671875
1663862594296783400,7.073783447265625,-3.794921875,-8.673095703125,-1.363800048828125
1663862594306671000,7.083671142578125,-3.5698699951171875,-8.840682983398438,-0.7125701904296875
1663862594316558800,7.093558837890625,-3.040740966796875,-8.929275512695312,-0.013458251953125
1663862594326446600,7.103446533203125,-2.55950927734375,-8.910125732421875,0.546783447265625
1663862594336303600,7.1133037109375,-2.4086761474609375,-8.594085693359375,1.128570556640625
1663862594346191400,7.12319140625,-2.1596832275390625,-8.041030883789062,1.435028076171875
1663862594356079000,7.1330791015625,-2.1692657470703125,-7.5190887451171875,1.1908111572265625
1663862594365966800,7.142966796875,-2.035186767578125,-7.0067291259765625,0.7837982177734375
1663862594375854300,7.152854248046875,-1.56591796875,-6.6739349365234375,0.3863677978515625
1663862594385711600,7.162711669921875,-1.2618560791015625,-6.5829620361328125,-0.001495361328125
1663862594395569000,7.17256884765625,-1.2570648193359375,-6.6859130859375,-0.461181640625
1663862594405487000,7.182487060546875,-1.6784515380859375,-6.966033935546875,-0.8131256103515625
1663862594415374600,7.19237451171875,-2.152496337890625,-7.4664154052734375,-1.121978759765625
1663862594425232000,7.20223193359375,-2.3033294677734375,-8.043411254882812,-1.3685760498046875
1663862594435119600,7.21211962890625,-2.4517822265625,-8.55816650390625,-1.3206939697265625
1663862594445007400,7.22200732421875,-2.6026153564453125,-9.02264404296875,-1.1459197998046875
1663862594454895000,7.23189501953125,-2.791748046875,-9.333892822265625,-0.9711456298828125
1663862594464782600,7.241782470703125,-3.064697265625,-9.408111572265625,-0.657501220703125
1663862594474670300,7.25167041015625,-3.1963653564453125,-9.535003662109375,-0.128387451171875
1663862594484558000,7.26155810546875,-3.0335693359375,-9.848648071289062,0.2906036376953125
1663862594494415400,7.271415283203125,-2.5762786865234375,-10.463958740234375,0.115814208984375
1663862594504302800,7.281302734375,-1.9873046875,-11.25164794921875,-0.70538330078125
1663862594514160000,7.29116015625,-1.740692138671875,-11.78076171875,-1.69659423828125
1663862594524078300,7.301078369140625,-1.8077392578125,-11.996246337890625,-2.623138427734375
1663862594533966000,7.310966064453125,-1.8484344482421875,-12.273971557617188,-3.2001495361328125
1663862594543853800,7.320853759765625,-1.4055023193359375,-12.848587036132812,-3.5233612060546875
1663862594553710800,7.3307109375,-0.7590789794921875,-13.502197265625,-3.9830474853515625
1663862594563598600,7.3405986328125,-0.589080810546875,-14.239608764648438,-4.385284423828125
1663862594573456000,7.350455810546875,-0.636962890625,-15.173355102539062,-4.279937744140625
1663862594583374000,7.3603740234375,-0.629791259765625,-16.087936401367188,-3.57843017578125
1663862594593261600,7.370261474609375,-0.5388031005859375,-16.581146240234375,-2.316680908203125
1663862594603149300,7.3801494140625,-0.2347412109375,-16.758316040039062,-0.6527099609375
1663862594613037000,7.390037109375,0.0621337890625,-16.837326049804688,0.410308837890625
1663862594622924800,7.3999248046875,-0.028839111328125,-16.9881591796875,0.5563507080078125
1663862594632812500,7.4098125,-0.27545166015625,-16.794219970703125,0.05596923828125
1663862594642669600,7.419669677734375,-0.524444580078125,-15.877243041992188,-0.9328460693359375
1663862594652526800,7.42952685546875,-1.18524169921875,-14.658599853515625,-2.343017578125
1663862594662414600,7.43941455078125,-2.39910888671875,-13.985824584960938,-3.62152099609375
1663862594672271600,7.449271728515625,-3.6440887451171875,-13.657821655273438,-4.2296600341796875
1663862594682159400,7.459159423828125,-4.9656829833984375,-13.48065185546875,-4.5217437744140625
1663862594692077600,7.46907763671875,-6.505157470703125,-13.61712646484375,-4.4163970947265625
1663862594701965300,7.47896533203125,-7.95843505859375,-13.794296264648438,-3.7508087158203125
1663862594711853000,7.48885302734375,-8.82513427734375,-13.985824584960938,-2.8889007568359375
1663862594721740800,7.49874072265625,-8.810775756835938,-14.194122314453125,-2.2448577880859375
1663862594731597800,7.508597900390625,-7.323974609375,-14.354537963867188,-1.6726531982421875
1663862594741485600,7.518485595703125,-3.9625091552734375,-14.404815673828125,-0.6000518798828125
1663862594751342800,7.5283427734375,-0.5268402099609375,-14.37847900390625,1.49249267578125
1663862594761230300,7.538230224609375,1.8075103759765625,-14.05047607421875,4.425384521484375
1663862594771118000,7.5481181640625,2.2193145751953125,-13.696121215820312,6.6687469482421875
1663862594781005800,7.558005859375,0.351837158203125,-14.110321044921875,6.0510406494140625
1663862594790893600,7.5678935546875,-1.982513427734375,-14.373687744140625,3.4772796630859375
1663862594800781300,7.57778125,-3.3495941162109375,-13.679367065429688,1.224334716796875
1663862594810638300,7.587638427734375,-4.276153564453125,-12.9635009765625,-1.090850830078125
1663862594820526000,7.597526123046875,-4.43896484375,-12.441574096679688,-3.6071624755859375
1663862594830413800,7.607413818359375,-3.8284454345703125,-11.438400268554688,-5.1179046630859375
1663862594840301600,7.617301513671875,-2.511627197265625,-9.752883911132812,-4.586395263671875
1663862594850189000,7.62718896484375,-0.46697998046875,-8.369033813476562,-3.5185699462890625
1663862594860076800,7.637076904296875,1.029388427734375,-7.5454254150390625,-3.5233612060546875
1663862594869964500,7.646964599609375,1.821868896484375,-7.22698974609375,-4.0022125244140625
1663862594879852300,7.656852294921875,0.8258819580078125,-6.913360595703125,-3.805877685546875
1663862594889740000,7.666739990234375,-1.5731048583984375,-6.829559326171875,-3.319854736328125
1663862594899627500,7.67662744140625,-3.3591766357421875,-7.083343505859375,-3.56884765625
1663862594909515300,7.686515380859375,-3.732666015625,-7.4161376953125,-4.3038787841796875
1663862594919372500,7.69637255859375,-2.8228759765625,-7.07855224609375,-4.6630096435546875
1663862594929260300,7.70626025390625,-2.3560028076171875,-5.498382568359375,-4.440338134765625
1663862594939148000,7.71614794921875,-2.372772216796875,-3.8128662109375,-4.41400146484375
1663862594949005000,7.726005126953125,-2.7103424072265625,-2.41943359375,-3.7244720458984375
1663862594958892800,7.735892822265625,-3.435791015625,-1.473724365234375,-2.8242645263671875
1663862594968750000,7.74575,-3.0479278564453125,-1.466552734375,-1.8115081787109375
1663862594978668300,7.755668212890625,-2.3177032470703125,-1.78497314453125,-0.8610076904296875
1663862594988555800,7.7655556640625,-2.425445556640625,-1.92144775390625,-0.2888031005859375
1663862594998443500,7.775443603515625,-2.5666961669921875,-2.11297607421875,-0.339080810546875
1663862595008331300,7.785331298828125,-2.5403594970703125,-2.4505615234375,-0.8753814697265625
1663862595018219000,7.795218994140625,-2.3895263671875,-2.7019500732421875,-0.7173614501953125
1663862595028076000,7.805075927734375,-2.3488311767578125,-2.7905426025390625,-0.45159912109375
1663862595037933300,7.814933349609375,-2.26263427734375,-2.3571929931640625,0.1541290283203125
1663862595047821000,7.824821044921875,-1.9370269775390625,-1.5120391845703125,0.4127044677734375
1663862595057708800,7.834708740234375,-2.21954345703125,-0.923065185546875,-0.609619140625
1663862595067596300,7.84459619140625,-3.399871826171875,-0.650115966796875,-1.7947540283203125
1663862595077484000,7.854484130859375,-4.450927734375,-0.63336181640625,-2.9727020263671875
1663862595087371800,7.864371826171875,-6.19390869140625,-0.681243896484375,-4.354156494140625
1663862595097259500,7.874259521484375,-7.520294189453125,-1.009246826171875,-5.85052490234375
1663862595107116500,7.884116455078125,-7.4173431396484375,-1.6820220947265625,-6.743560791015625
1663862595117004300,7.89400439453125,-6.378265380859375,-2.984466552734375,-7.102691650390625
1663862595126861600,7.903861572265625,-2.5810546875,-4.5670318603515625,-6.14501953125
1663862595136779800,7.91377978515625,-2.99285888671875,-6.1663665771484375,-3.5449066162109375
1663862595146667500,7.92366748046875,-15.445114135742188,-10.277206420898438,-2.7620086669921875
1663862595156555300,7.93355517578125,-18.670089721679688,-15.3409423828125,-0.8227081298828125
1663862595166442800,7.94344287109375,-4.46051025390625,-17.7806396484375,1.0040740966796875
1663862595176330500,7.95333056640625,-1.3719940185546875,-17.241943359375,-0.09246826171875
1663862595186218200,7.96321826171875,-9.7445068359375,-15.166168212890625,-3.2743682861328125
1663862595196106000,7.97310595703125,-10.539382934570312,-13.00421142578125,-3.1642303466796875
1663862595205993700,7.98299365234375,-5.616912841796875,-11.596420288085938,-1.0884552001953125
1663862595215850800,7.992850830078125,-4.369537353515625,-9.910888671875,-0.10205078125
1663862595225738500,8.002738525390624,-4.656829833984375,-9.046585083007812,-0.8801727294921875
1663862595235626200,8.012626220703124,-4.89385986328125,-9.384170532226562,-2.675811767578125
1663862595245514000,8.022513916015624,-5.0087890625,-9.755279541015625,-3.973480224609375
1663862595255401500,8.0324013671875,-4.2881317138671875,-9.975540161132812,-4.423583984375
1663862595265258800,8.0422587890625,-3.610565185546875,-10.10003662109375,-4.17938232421875
1663862595275146500,8.052146484375,-3.4741058349609375,-10.454376220703125,-3.846588134765625
1663862595285034200,8.0620341796875,-3.435791015625,-11.165451049804688,-3.4108428955078125
1663862595294921700,8.071921630859375,-3.335235595703125,-12.221298217773438,-2.864959716796875
1663862595304809500,8.0818095703125,-3.22509765625,-13.509384155273438,-2.4603424072265625
1663862595314697200,8.091697265625,-3.5914154052734375,-14.543670654296875,-2.0269927978515625
1663862595324554500,8.101554443359374,-4.4150238037109375,-14.924346923828125,-1.2345123291015625
1663862595334442000,8.11144189453125,-4.89385986328125,-14.555648803710938,-0.2935791015625
1663862595344329700,8.121329833984374,-4.81005859375,-13.578811645507812,0.0775146484375
1663862595354217500,8.131217529296874,-4.31207275390625,-12.2452392578125,-0.2050018310546875
1663862595364105200,8.141105224609374,-3.6273345947265625,-10.724929809570312,-0.3965301513671875
1663862595373962200,8.150962158203125,-2.9306182861328125,-9.439239501953125,-0.7221527099609375
1663862595383850000,8.16085009765625,-2.5810546875,-8.450439453125,-1.1171875
1663862595393707300,8.170707275390624,-2.554718017578125,-7.7896270751953125,-1.53857421875
1663862595403595000,8.180594970703124,-2.796539306640625,-7.495147705078125,-2.0533294677734375
1663862595413482800,8.190482666015624,-3.0455322265625,-7.4161376953125,-2.2664031982421875
1663862595423370200,8.200370361328124,-3.155670166015625,-7.5023345947265625,-1.998260498046875
1663862595433227500,8.2102275390625,-3.1173553466796875,-7.78485107421875,-1.4308319091796875
1663862595443115300,8.220115234375,-3.0958099365234375,-8.158340454101562,-0.9088897705078125
1663862595453003000,8.2300029296875,-3.102996826171875,-8.400161743164062,-0.2672576904296875
1663862595462890500,8.239890380859375,-2.940185546875,-8.455215454101562,0.45819091796875
1663862595472778200,8.2497783203125,-2.5379638671875,-8.290023803710938,1.0208282470703125
1663862595482635500,8.259635498046874,-2.0974273681640625,-7.940460205078125,1.2578582763671875
1663862595492553700,8.2695537109375,-1.8388519287109375,-7.6028900146484375,1.1309661865234375
1663862595502441500,8.27944140625,-1.7957611083984375,-7.3443145751953125,0.7215576171875
1663862595512329000,8.289328857421875,-1.8053436279296875,-7.210235595703125,-0.106842041015625
1663862595522186200,8.299186279296874,-1.8053436279296875,-7.2916412353515625,-1.0669097900390625
1663862595532043500,8.30904345703125,-1.6473236083984375,-7.4233245849609375,-1.8115081787109375
1663862595541961700,8.318961669921874,-1.5778961181640625,-7.631622314453125,-2.2400665283203125
1663862595551849200,8.32884912109375,-1.7837982177734375,-7.938079833984375,-2.5345611572265625
1663862595561737000,8.338737060546874,-2.0591278076171875,-8.268478393554688,-2.7715911865234375
1663862595571624700,8.348624755859374,-2.18841552734375,-8.606048583984375,-2.81707763671875
1663862595581512400,8.358512451171874,-2.406280517578125,-8.90533447265625,-2.663848876953125
1663862595591400200,8.368400146484374,-2.7678070068359375,-9.142349243164062,-2.3932952880859375
1663862595601287700,8.37828759765625,-3.0167999267578125,-9.252487182617188,-1.9791107177734375
1663862595611145000,8.38814501953125,-3.038360595703125,-9.326705932617188,-1.3877410888671875
1663862595621002200,8.398002197265624,-3.3591766357421875,-9.599655151367188,-0.6527099609375
1663862595630889700,8.4078896484375,-3.7015533447265625,-9.894134521484375,0.094268798828125
1663862595640777500,8.417777587890624,-3.505218505859375,-10.183837890625,0.6186065673828125
1663862595650665200,8.427665283203124,-3.0096282958984375,-10.621978759765625,0.68084716796875
1663862595660553000,8.437552978515624,-2.5355682373046875,-11.129547119140625,0.4174957275390625
1663862595670440700,8.447440673828124,-2.0423736572265625,-11.82147216796875,0.0894927978515625
1663862595680328400,8.457328369140624,-1.19482421875,-12.570846557617188,-0.61920166015625
1663862595690216000,8.4672158203125,-0.4597930908203125,-13.44952392578125,-1.51702880859375
1663862595700103700,8.477103759765624,-0.1940460205078125,-14.58917236328125,-2.5513153076171875
1663862595709991400,8.486991455078124,-0.6489410400390625,-16.08074951171875,-3.1474761962890625
1663862595719879200,8.496879150390624,-1.022430419921875,-17.522064208984375,-3.214508056640625
1663862595729736200,8.506736083984375,-1.3719940185546875,-18.304962158203125,-2.769195556640625
1663862595739624000,8.5166240234375,-1.5060577392578125,-17.91949462890625,-1.756439208984375
1663862595749511700,8.52651171875,-1.168487548828125,-17.246734619140625,-0.530609130859375
1663862595759399400,8.5363994140625,-0.5866851806640625,-17.014495849609375,-0.164306640625
1663862595769287200,8.546287109375,-0.122222900390625,-16.482986450195312,-0.7748260498046875
1663862595779144200,8.556144287109374,-0.1796722412109375,-15.577972412109375,-1.9743194580078125
1663862595789032000,8.566031982421874,-1.190032958984375,-14.72802734375,-3.34619140625
1663862595798919700,8.575919677734374,-2.6145782470703125,-14.268341064453125,-4.41162109375
1663862595808807400,8.585807373046874,-4.127716064453125,-13.933151245117188,-4.9072113037109375
1663862595818695000,8.59569482421875,-5.4971923828125,-13.557266235351562,-4.83538818359375
1663862595828582700,8.605582763671874,-6.3279876708984375,-13.346572875976562,-4.1889495849609375
1663862595838440000,8.61543994140625,-6.873870849609375,-13.377700805664062,-3.1426849365234375
1663862595848327700,8.62532763671875,-7.4580535888671875,-13.502197265625,-2.4387969970703125
1663862595858215200,8.635215087890625,-7.30242919921875,-13.897247314453125,-1.80194091796875
1663862595868103000,8.64510302734375,-5.490020751953125,-14.234817504882812,-0.1164093017578125
1663862595877990700,8.65499072265625,-2.248260498046875,-14.416778564453125,2.7542266845703125
1663862595887878400,8.66487841796875,1.1036224365234375,-14.265945434570312,6.2234344482421875
1663862595897735700,8.674735595703124,2.422821044921875,-14.110321044921875,8.840286254882812
1663862595907623200,8.684623046875,1.642303466796875,-14.605926513671875,9.03662109375
1663862595917511000,8.694510986328124,-0.007293701171875,-15.091949462890625,6.453277587890625
1663862595927398700,8.704398681640624,-2.1165924072265625,-14.488601684570312,3.4892578125
1663862595937286400,8.714286376953124,-3.4788818359375,-13.550079345703125,1.2315216064453125
1663862595947143400,8.724143310546875,-4.0199737548828125,-13.128707885742188,-1.1028289794921875
1663862595957031200,8.73403125,-4.24981689453125,-12.29791259765625,-2.917633056640625
1663862595966919000,8.7439189453125,-3.8284454345703125,-10.887725830078125,-3.5808258056640625
1663862595976806700,8.753806640625,-2.6552886962890625,-9.398529052734375,-3.753204345703125
1663862595986694400,8.7636943359375,-1.0344085693359375,-8.141586303710938,-3.6622314453125
1663862595996582000,8.773581787109375,0.9934844970703125,-7.3778228759765625,-4.3062744140625
1663862596006439200,8.783439208984374,1.819488525390625,-6.8271636962890625,-4.7635650634765625
1663862596016327000,8.793326904296874,1.472320556640625,-6.7696990966796875,-4.2296600341796875
1663862596026214700,8.803214599609374,0.342254638671875,-6.9851837158203125,-3.2839508056640625
1663862596036102100,8.81310205078125,-1.73590087890625,-7.104888916015625,-2.59442138671875
1663862596045990000,8.822989990234374,-3.620147705078125,-7.3395233154296875,-2.66864013671875
1663862596055877600,8.832877685546874,-4.1684112548828125,-7.253326416015625,-3.109161376953125
1663862596065735000,8.84273486328125,-3.282562255859375,-6.628448486328125,-3.3174591064453125
1663862596075622400,8.852622314453125,-2.0615234375,-5.510345458984375,-3.21929931640625
1663862596085510100,8.86251025390625,-1.6425323486328125,-4.526336669921875,-3.2169036865234375
1663862596095398000,8.87239794921875,-2.152496337890625,-3.6955413818359375,-3.0301666259765625
1663862596105285600,8.88228564453125,-2.7486572265625,-2.8288421630859375,-2.5130157470703125
1663862596115142700,8.892142578125,-2.717529296875,-2.0818634033203125,-1.98150634765625
1663862596125000000,8.902,-2.2554473876953125,-1.641326904296875,-1.3733673095703125
1663862596134857200,8.911857177734374,-2.1596832275390625,-1.7131500244140625,-0.889739990234375
1663862596144745000,8.921744873046874,-2.272216796875,-2.0986175537109375,-0.2217559814453125
1663862596154663200,8.9316630859375,-2.2291107177734375,-2.6061859130859375,-0.1140289306640625
1663862596164550700,8.941550537109375,-2.2985382080078125,-2.78814697265625,-0.370208740234375
1663862596174438400,8.9514384765625,-2.29376220703125,-2.6732177734375,-0.40850830078125
1663862596184295700,8.961295654296874,-2.174041748046875,-2.3476104736328125,-0.604827880859375
1663862596194152700,8.971152587890625,-2.81329345703125,-2.259033203125,-1.1818389892578125
1663862596204040400,8.98104052734375,-3.790130615234375,-2.5152130126953125,-2.0485382080078125
1663862596213928200,8.99092822265625,-4.561065673828125,-2.6923828125,-2.89129638671875
1663862596223846400,9.000846435546874,-4.8220367431640625,-2.5271759033203125,-3.5760345458984375
1663862596233703700,9.01070361328125,-4.8076629638671875,-2.2422637939453125,-4.047698974609375
1663862596243591200,9.020591064453125,-4.8603363037109375,-2.20635986328125,-4.323028564453125
1663862596253448400,9.030448486328124,-5.020751953125,-2.4433746337890625,-4.5696258544921875
1663862596263366700,9.04036669921875,-5.660003662109375,-2.857574462890625,-4.73004150390625
1663862596273224000,9.050223876953124,-6.928924560546875,-3.480072021484375,-4.61273193359375
1663862596283142100,9.06014208984375,-8.284042358398438,-5.2254486083984375,-5.1274871826171875
1663862596292999200,9.069999267578124,-7.7764739990234375,-7.399383544921875,-5.4818267822265625
1663862596302856400,9.0798564453125,-7.0821533203125,-9.175872802734375,-4.9167938232421875
1663862596312744200,9.089744140625,-13.302291870117188,-12.020187377929688,-4.7587738037109375
1663862596322662400,9.099662353515624,-17.33892822265625,-16.451858520507812,-4.05487060546875
1663862596332519400,9.10951953125,-7.91534423828125,-20.17962646484375,-3.1043853759765625
1663862596342407200,9.1194072265625,-4.7789459228515625,-18.767044067382812,-1.713348388671875
1663862596352295000,9.129294921875,-10.003082275390625,-14.629867553710938,-1.3877410888671875
1663862596362182700,9.1391826171875,-8.008712768554688,-12.113555908203125,-1.5146331787109375
1663862596372070400,9.1490703125,-5.3798828125,-9.95159912109375,-0.351043701171875
1663862596381958000,9.1589580078125,-4.14447021484375,-8.21820068359375,0.5132598876953125
1663862596391815200,9.168815185546874,-4.7047119140625,-7.54302978515625,0.029632568359375
1663862596401703000,9.178702880859374,-4.5107879638671875,-7.6819000244140625,-0.6646881103515625
1663862596411590700,9.188590576171874,-3.524383544921875,-7.9691925048828125,-0.9448089599609375
1663862596421447700,9.19844775390625,-2.8827362060546875,-8.385787963867188,-1.4882965087890625
1663862596431366000,9.208365966796874,-2.9210357666015625,-8.869415283203125,-2.283172607421875
1663862596441253600,9.218253662109374,-2.6816253662109375,-9.252487182617188,-3.02777099609375
1663862596451141400,9.228141357421874,-2.839630126953125,-9.6571044921875,-3.42999267578125
1663862596461029000,9.238029052734374,-3.261016845703125,-10.274810791015625,-3.69573974609375
1663862596470916600,9.24791650390625,-2.8468170166015625,-11.206161499023438,-3.74603271484375
1663862596480774000,9.25777392578125,-2.4302215576171875,-12.257217407226562,-3.50421142578125
1663862596490661600,9.26766162109375,-2.753448486328125,-13.190948486328125,-2.63751220703125
1663862596500549400,9.27754931640625,-3.37115478515625,-13.782318115234375,-1.385345458984375
1663862596510436900,9.287436767578125,-3.71112060546875,-13.906814575195312,-0.5114593505859375
1663862596520324600,9.29732470703125,-3.684783935546875,-13.26995849609375,0.1804656982421875
1663862596530212400,9.30721240234375,-3.514801025390625,-12.34100341796875,0.1493377685546875
1663862596540100000,9.31710009765625,-3.1820068359375,-11.198974609375,-0.2169647216796875
1663862596549987800,9.32698779296875,-3.0790557861328125,-10.13116455078125,-0.5377960205078125
1663862596559875300,9.336875244140625,-2.8348541259765625,-9.278823852539062,-1.1411285400390625
1663862596569732600,9.346732666015624,-2.6121826171875,-8.500717163085938,-1.6630706787109375
1663862596579620400,9.356620361328124,-2.569091796875,-7.9117431640625,-2.062896728515625
1663862596589477400,9.366477294921875,-2.605010986328125,-7.7082366943359375,-2.462738037109375
1663862596599365000,9.376365234375,-2.6504974365234375,-7.6819000244140625,-2.6782073974609375
1663862596609252900,9.3862529296875,-2.9880828857421875,-7.67950439453125,-2.541748046875
1663862596619140600,9.396140625,-3.15087890625,-7.7896270751953125,-2.24725341796875
1663862596629028400,9.4060283203125,-2.700775146484375,-7.8518829345703125,-1.4451904296875
1663862596638916000,9.415916015625,-2.0447540283203125,-7.9261016845703125,-0.22894287109375
1663862596648803600,9.425803466796875,-1.58746337890625,-8.117645263671875,0.6090240478515625
1663862596658691300,9.43569140625,-1.403106689453125,-8.426483154296875,1.13336181640625
1663862596668579000,9.4455791015625,-1.4629669189453125,-8.732940673828125,1.667266845703125
1663862596678466800,9.455466796875,-1.429443359375,-8.847869873046875,2.1245574951171875
1663862596688323800,9.46532373046875,-1.68084716796875,-8.835891723632812,2.0934295654296875
1663862596698211600,9.475211669921874,-1.728729248046875,-9.056167602539062,1.5906524658203125
1663862596708099300,9.485099365234374,-1.5204315185546875,-9.41290283203125,0.8149261474609375
1663862596717987000,9.494987060546874,-1.355224609375,-9.616409301757812,0.14215087890625
1663862596727874800,9.504874755859374,-1.381561279296875,-9.523040771484375,-0.3534393310546875
1663862596737762300,9.51476220703125,-1.233123779296875,-9.216583251953125,-0.97833251953125
1663862596747619600,9.52461962890625,-1.3672027587890625,-9.118408203125,-1.818695068359375
1663862596757476900,9.534476806640624,-1.8364715576171875,-9.034622192382812,-2.5968017578125
1663862596767364400,9.5443642578125,-2.1118011474609375,-8.888565063476562,-2.9152374267578125
1663862596777252000,9.554252197265624,-2.140533447265625,-8.929275512695312,-2.769195556640625
1663862596787139800,9.564139892578124,-1.972930908203125,-9.230941772460938,-2.41485595703125
1663862596797027600,9.574027587890624,-1.87237548828125,-9.566131591796875,-1.797149658203125
1663862596806915300,9.583915283203124,-1.867584228515625,-9.683441162109375,-0.91607666015625
1663862596816802800,9.593802734375,-1.6425323486328125,-9.874984741210938,0.09906005859375
1663862596826660000,9.60366015625,-1.3528289794921875,-10.250869750976562,0.7885894775390625
1663862596836547800,9.6135478515625,-0.988922119140625,-10.705764770507812,0.8388671875
1663862596846435600,9.623435546875,-0.4334564208984375,-11.342620849609375,0.13018798828125
1663862596856323300,9.6333232421875,-0.481353759765625,-11.965118408203125,-0.9136810302734375
1663862596866210800,9.6432109375,-0.7494964599609375,-12.503814697265625,-1.7851715087890625
1663862596876098600,9.6530986328125,-0.8500518798828125,-13.001815795898438,-2.326263427734375
1663862596885986300,9.662986328125,-0.8117523193359375,-13.222076416015625,-2.268798828125
1663862596895874000,9.6728740234375,-0.598663330078125,-13.2484130859375,-2.0341644287109375
1663862596905761800,9.68276171875,-0.186859130859375,-13.401641845703125,-2.0892333984375
1663862596915618800,9.692618896484374,0.16748046875,-13.899642944335938,-2.220916748046875
1663862596925476000,9.70247607421875,0.3757781982421875,-14.6968994140625,-2.0868377685546875
1663862596935363800,9.71236376953125,0.6558990478515625,-15.482208251953125,-1.8905181884765625
1663862596945251300,9.722251220703125,1.07489013671875,-16.035263061523438,-1.67742919921875
1663862596955139000,9.73213916015625,1.2209320068359375,-16.303421020507812,-1.2393035888671875
1663862596965026800,9.74202685546875,0.6822357177734375,-16.664932250976562,-0.7556610107421875
1663862596974914600,9.75191455078125,-0.0456085205078125,-17.036041259765625,-0.973541259765625
1663862596984771600,9.761771484375,-0.8787841796875,-16.985763549804688,-1.8258819580078125
1663862596994659300,9.771659423828124,-1.824493408203125,-15.946670532226562,-3.0325469970703125
1663862597004547000,9.781547119140624,-2.954559326171875,-14.57958984375,-4.258392333984375
1663862597014434800,9.791434814453124,-3.9146270751953125,-13.823028564453125,-4.7324371337890625
1663862597024322600,9.801322509765624,-4.802886962890625,-13.653030395507812,-4.6366729736328125
1663862597034210000,9.8112099609375,-5.243408203125,-13.497406005859375,-4.1937408447265625
1663862597044097800,9.821097900390624,-5.490020751953125,-13.339385986328125,-3.74603271484375
1663862597053985500,9.830985595703124,-5.71746826171875,-13.030532836914062,-3.6502532958984375
1663862597063873300,9.840873291015624,-5.6839447021484375,-12.712112426757812,-4.1099395751953125
1663862597073761000,9.850760986328124,-5.343963623046875,-12.226089477539062,-4.1051483154296875
1663862597083618000,9.8606181640625,-4.592193603515625,-12.00103759765625,-3.180999755859375
1663862597093505800,9.870505859375,-3.423828125,-12.16143798828125,-1.59124755859375
1663862597103393500,9.8803935546875,-1.9274444580078125,-12.6043701171875,0.348052978515625
1663862597113281300,9.89028125,-0.31854248046875,-13.243621826171875,2.471710205078125
1663862597123138300,9.90013818359375,1.47711181640625,-13.6817626953125,4.6648101806640625
1663862597132995600,9.90999560546875,2.4683074951171875,-13.98822021484375,6.2018890380859375
1663862597142883300,9.91988330078125,2.243255615234375,-14.50537109375,6.3503265380859375
1663862597152740400,9.929740234375,1.05572509765625,-14.639450073242188,5.2465972900390625
1663862597162658600,9.939658447265625,-1.0703277587890625,-14.134262084960938,3.1708221435546875
1663862597172515800,9.949515869140624,-3.6225433349609375,-13.62908935546875,0.35284423828125
1663862597182403600,9.959403564453124,-5.8515472412109375,-13.277145385742188,-2.168243408203125
1663862597192291300,9.969291259765624,-6.2489776611328125,-12.597183227539062,-3.827423095703125
1663862597202178800,9.9791787109375,-4.802886962890625,-11.467132568359375,-4.660614013671875
1663862597212036000,9.9890361328125,-2.7031707763671875,-9.88934326171875,-4.883270263671875
1663862597221954300,9.998954345703124,-0.7064056396484375,-8.055389404296875,-4.8066558837890625
1663862597231811600,10.0088115234375,0.69659423828125,-6.808013916015625,-4.8856658935546875
1663862597241699000,10.018698974609375,1.3382415771484375,-6.3387451171875,-5.33099365234375
1663862597251586800,10.0285869140625,1.9511566162109375,-6.7720947265625,-5.6925048828125
1663862597261474600,10.038474609375,1.661468505859375,-7.4783935546875,-5.3285980224609375
1663862597271362300,10.0483623046875,0.141143798828125,-7.760894775390625,-4.43316650390625
1663862597281219300,10.05821923828125,-1.5419769287109375,-7.9308929443359375,-3.8489837646484375
1663862597291107000,10.068107177734374,-3.24664306640625,-8.084121704101562,-3.4275970458984375
1663862597300994800,10.077994873046874,-4.4269866943359375,-7.9141387939453125,-2.8793182373046875
1663862597310882600,10.087882568359374,-4.2258758544921875,-7.088134765625,-2.3669586181640625
1663862597320770300,10.097770263671874,-3.2634124755859375,-5.67315673828125,-2.283172607421875
1663862597330657800,10.10765771484375,-2.6744384765625,-4.1959381103515625,-1.624755859375
1663862597340545500,10.117545654296874,-2.9210357666015625,-3.199951171875,-1.162689208984375
1663862597350433300,10.127433349609374,-3.028778076171875,-2.6013946533203125,-1.1507110595703125
1663862597360321000,10.137321044921874,-3.0000457763671875,-2.0459442138671875,-1.1363525390625
1663862597370178300,10.14717822265625,-2.858795166015625,-1.885528564453125,-0.9615631103515625
1663862597380035300,10.157035400390624,-2.6313323974609375,-2.306915283203125,-1.0070648193359375
1663862597389923000,10.166923095703124,-2.44219970703125,-3.0634765625,-1.3997039794921875
1663862597399841300,10.17684130859375,-2.3272705078125,-3.55908203125,-1.883331298828125
1663862597409729000,10.18672900390625,-2.55950927734375,-3.6524505615234375,-1.988677978515625
1663862597419586000,10.1965859375,-2.8204803466796875,-3.61175537109375,-2.0605010986328125
1663862597429443300,10.206443359375,-3.165252685546875,-3.417816162109375,-1.936004638671875
1663862597439361500,10.216361572265624,-3.397491455078125,-3.0658721923828125,-1.524200439453125
1663862597449249300,10.226249267578124,-3.732666015625,-2.7642059326171875,-1.323089599609375
1663862597459137000,10.236136962890624,-3.8715362548828125,-2.5247802734375,-1.6008148193359375
1663862597468994000,10.245994140625,-4.4844512939453125,-2.699554443359375,-2.474700927734375
1663862597478881800,10.2558818359375,-5.13568115234375,-2.9581298828125,-3.0110015869140625
1663862597488739000,10.265739013671874,-5.427764892578125,-2.9701080322265625,-3.19775390625
1663862597498626600,10.27562646484375,-5.6049346923828125,-2.644500732421875,-3.192962646484375
1663862597508514300,10.285514404296874,-6.5698089599609375,-2.5008392333984375,-3.2743682861328125
1663862597518432500,10.2954326171875,-7.709442138671875,-2.898284912109375,-3.7603912353515625
1663862597528320300,10.3053203125,-8.197860717773438,-3.65484619140625,-4.691741943359375
1663862597538208000,10.3152080078125,-8.688674926757812,-4.2174835205078125,-5.378875732421875
1663862597548065000,10.32506494140625,-8.882598876953125,-5.1584014892578125,-5.7739105224609375
1663862597557922300,10.33492236328125,-10.446014404296875,-6.6260528564453125,-6.1593780517578125
1663862597567810000,10.34481005859375,-10.043792724609375,-9.11602783203125,-5.55364990234375
1663862597577697800,10.35469775390625,-11.822677612304688,-12.43438720703125,-4.32781982421875
1663862597587585500,10.36458544921875,-16.053237915039062,-17.172515869140625,-4.1769866943359375
1663862597597473000,10.37447314453125,-9.598464965820312,-21.431793212890625,-3.2384490966796875
1663862597607360800,10.38436083984375,-4.4629058837890625,-20.304122924804688,-2.1706390380859375
1663862597617248500,10.39424853515625,-6.495574951171875,-13.77752685546875,-1.2823944091796875
1663862597627105800,10.404105712890624,-7.180328369140625,-9.058563232421875,-2.252044677734375
1663862597637024000,10.41402392578125,-5.47564697265625,-5.98919677734375,-1.8665771484375
1663862597646911500,10.423911376953125,-4.7047119140625,-4.16241455078125,-1.265625
1663862597656799200,10.43379931640625,-6.040679931640625,-4.411407470703125,-1.8043212890625
1663862597666656500,10.443656494140624,-6.325592041015625,-8.002716064453125,-2.252044677734375
1663862597676513500,10.453513427734375,-6.04547119140625,-10.56451416015625,-4.7420196533203125
1663862597686431700,10.463431640625,-5.1811676025390625,-10.044967651367188,-5.4937896728515625
1663862597696319500,10.473319580078124,-3.4214324951171875,-8.845474243164062,-4.95269775390625
1663862597706207200,10.483207275390624,-2.9210357666015625,-8.656326293945312,-5.369293212890625
1663862597716095000,10.493094970703124,-3.620147705078125,-8.601272583007812,-5.706878662109375
1663862597725952000,10.502951904296875,-4.1109619140625,-8.965179443359375,-5.2352142333984375
1663862597735839700,10.51283984375,-3.5076141357421875,-10.605209350585938,-4.2631683349609375
1663862597745697000,10.522697021484374,-1.7119598388671875,-13.253204345703125,-3.841796875
1663862597755615200,10.532615234375,-3.7183074951171875,-15.352920532226562,-2.7404632568359375
1663862597765503000,10.5425029296875,-6.0646209716796875,-14.397628784179688,-1.279998779296875
1663862597775390500,10.552390380859375,-6.737396240234375,-12.036941528320312,-0.298370361328125
1663862597785278200,10.5622783203125,-5.291290283203125,-9.489517211914062,0.790985107421875
1663862597795166000,10.572166015625,-3.3017120361328125,-7.51190185546875,1.693603515625
1663862597805053700,10.5820537109375,-3.2274932861328125,-7.1168670654296875,1.181243896484375
1663862597814941400,10.59194140625,-3.9553375244140625,-7.1647491455078125,0.2714385986328125
1663862597824798500,10.601798583984374,-4.010406494140625,-6.535064697265625,-0.351043701171875
1663862597834686200,10.611686279296874,-3.2442626953125,-5.6228790283203125,-0.9711456298828125
1663862597844574000,10.621573974609374,-2.4709320068359375,-5.402618408203125,-1.9216461181640625
1663862597854461700,10.631461669921874,-2.4876861572265625,-5.30206298828125,-2.335845947265625
1663862597864318700,10.641318603515625,-2.4038848876953125,-6.21185302734375,-2.7787628173828125
1663862597874206500,10.65120654296875,-3.387908935546875,-8.136795043945312,-3.54730224609375
1663862597884094200,10.66109423828125,-3.694366455078125,-7.4616241455078125,-2.4340057373046875
1663862597893982000,10.67098193359375,-1.6712646484375,-8.318756103515625,-0.7436981201171875
1663862597903869700,10.68086962890625,-1.3767852783203125,-10.612396240234375,0.199615478515625
1663862597913757200,10.690757080078125,-1.9274444580078125,-10.784774780273438,0.1708831787109375
1663862597923614500,10.700614501953124,-1.26904296875,-9.11602783203125,0.1397705078125
1663862597933502200,10.710502197265624,-0.8811798095703125,-7.241363525390625,-0.3630218505859375
1663862597943390000,10.720389892578124,-0.7111968994140625,-7.3706512451171875,-2.295135498046875
1663862597953277400,10.73027734375,-0.8859710693359375,-7.5837249755859375,-3.9591064453125
1663862597963165200,10.740165283203124,-1.7119598388671875,-8.5797119140625,-5.4099884033203125
1663862597973053000,10.750052978515624,-3.282562255859375,-8.960403442382812,-4.08599853515625
1663862597982940700,10.759940673828124,-3.969696044921875,-8.105667114257812,-1.3518218994140625
1663862597992797700,10.769797607421875,-2.8204803466796875,-9.0010986328125,-2.304718017578125
1663862598002685400,10.779685546875,-2.0854644775390625,-10.224533081054688,-3.92559814453125
1663862598012573200,10.7895732421875,-2.933013916015625,-10.598037719726562,-3.6382904052734375
1663862598022461000,10.7994609375,-3.821258544921875,-10.811111450195312,-3.5257568359375
1663862598032348700,10.8093486328125,-3.9720916748046875,-11.122360229492188,-3.99981689453125
1663862598042236400,10.819236328125,-3.895477294921875,-12.058486938476562,-4.48583984375
1663862598052093400,10.829093505859374,-3.3759307861328125,-12.654647827148438,-3.6454620361328125
1663862598061950700,10.83895068359375,-2.75823974609375,-12.726470947265625,-2.6566619873046875
1663862598071807700,10.848807861328124,-1.72393798828125,-12.89886474609375,-1.914459228515625
1663862598081726000,10.858725830078125,-0.5435943603515625,-13.193344116210938,-1.5673065185546875
1663862598091583200,10.868583251953124,0.5673065185546875,-13.425582885742188,-1.1985931396484375
1663862598101501400,10.87850146484375,0.5074615478515625,-13.758377075195312,-1.2967529296875
1663862598111389200,10.88838916015625,-0.7447052001953125,-14.1151123046875,-1.883331298828125
1663862598121277000,10.89827685546875,-2.29376220703125,-13.710494995117188,-1.8378448486328125
1663862598131164400,10.908164306640625,-2.4876861572265625,-13.167007446289062,-1.44281005859375
1663862598141052200,10.91805224609375,-1.5946502685546875,-13.346572875976562,-1.6151885986328125
1663862598150940000,10.92793994140625,0.2488861083984375,-15.048858642578125,-3.4443511962890625
1663862598160797200,10.937797119140624,3.71807861328125,-16.94744873046875,-3.42041015625
1663862598170654200,10.947654296875,2.9016571044921875,-15.78387451171875,-0.386962890625
1663862598180542000,10.9575419921875,0.4667510986328125,-15.360092163085938,1.9282379150390625
1663862598190429700,10.9674296875,0.4236602783203125,-16.346511840820312,2.512420654296875
1663862598200286700,10.97728662109375,4.0580596923828125,-15.862884521484375,3.209136962890625
1663862598210205000,10.987204833984375,4.1610107421875,-12.680984497070312,5.2106781005859375
1663862598220062200,10.997062255859374,2.465911865234375,-13.394454956054688,3.7406463623046875
1663862598229950000,11.006949951171874,-1.87237548828125,-15.216445922851562,-0.2409210205078125
1663862598239837700,11.016837646484374,-4.8531646728515625,-11.93878173828125,-3.8968658447265625
1663862598249725200,11.02672509765625,0.43084716796875,-8.076934814453125,-1.0717010498046875
1663862598259613000,11.036613037109374,16.577346801757812,-13.767959594726562,6.0606231689453125
1663862598269500700,11.046500732421874,24.760726928710938,-20.114990234375,6.7573394775390625
1663862598279388400,11.056388427734374,11.64288330078125,-12.62591552734375,12.35498046875
1663862598289276200,11.066276123046874,0.627166748046875,-9.013076782226562,17.607864379882812
1663862598299164000,11.076163818359374,-6.4022064208984375,-14.13665771484375,14.983810424804688
1663862598309051400,11.086051513671874,-4.6927490234375,-19.375167846679688,-1.56011962890625
1663862598318939100,11.095939208984374,0.299163818359375,-14.546066284179688,0.886749267578125
1663862598328827000,11.105826904296874,-5.956878662109375,-11.912445068359375,3.3767242431640625
1663862598338684200,11.11568408203125,-16.45306396484375,-10.155105590820312,3.69036865234375
1663862598348571600,11.125571533203125,-7.9991455078125,-10.863784790039062,0.5731201171875
1663862598358459400,11.13545947265625,5.21685791015625,-10.971527099609375,0.314544677734375
1663862598368347100,11.14534716796875,8.372406005859375,-10.624374389648438,1.245880126953125
1663862598378204400,11.155204345703124,16.476791381835938,-7.6627349853515625,3.00323486328125
1663862598388092000,11.165091796875,19.0697021484375,-4.55267333984375,3.9058380126953125
1663862598397949200,11.17494921875,19.685012817382812,-4.50958251953125,3.18280029296875
1663862598407806500,11.184806396484374,16.282852172851562,-6.4728240966796875,1.7606353759765625
1663862598417694000,11.19469384765625,10.666061401367188,-6.6428070068359375,1.9186553955078125
1663862598427581700,11.204581787109374,6.9718017578125,-5.1009368896484375,2.818878173828125
1663862598437500000,11.2145,10.146514892578125,-0.7985687255859375,3.9944305419921875
1663862598447387600,11.2243876953125,9.0643310546875,-3.89666748046875,2.3256683349609375
1663862598457245000,11.234244873046874,3.2871246337890625,-6.82476806640625,1.4398193359375
1663862598467132400,11.24413232421875,-0.4909210205078125,-5.02911376953125,2.0335845947265625
1663862598476989700,11.25398974609375,-0.1269989013671875,-3.1544647216796875,1.9090728759765625
1663862598486908000,11.263907958984374,3.4834442138671875,-0.987701416015625,2.126953125
1663862598496795600,11.273795654296874,8.583099365234375,2.5892333984375,3.738250732421875
1663862598506683400,11.283683349609374,14.865493774414062,3.8557586669921875,4.425384521484375
1663862598516571000,11.29357080078125,20.975494384765625,2.668243408203125,3.9944305419921875
1663862598526458600,11.303458740234374,26.29541015625,1.3610076904296875,3.6568450927734375
1663862598536346400,11.313346435546874,28.890716552734375,-0.6429443359375,3.69036865234375
1663862598546203600,11.32320361328125,21.866134643554688,-3.3459930419921875,3.0175933837890625
1663862598556091400,11.33309130859375,14.152008056640625,-2.0555267333984375,2.660858154296875
1663862598565979000,11.342978759765625,12.289321899414062,-0.628570556640625,2.0934295654296875
1663862598575866600,11.35286669921875,12.353973388671875,-0.2383270263671875,1.1836395263671875
1663862598585754400,11.36275439453125,11.53515625,0.7265472412109375,0.9992828369140625
1663862598595642000,11.37264208984375,9.741897583007812,1.0330047607421875,0.5850830078125
1663862598605529900,11.38252978515625,7.7451324462890625,-0.712371826171875,-0.2480926513671875
1663862598615387000,11.392386962890624,8.374801635742188,-3.4345855712890625,0.2068023681640625
1663862598625274600,11.402274658203124,9.765838623046875,-10.028213500976562,0.7454986572265625
1663862598635132000,11.4121318359375,9.83526611328125,-18.522842407226562,0.611419677734375
1663862598644989000,11.421989013671874,9.53839111328125,-24.836349487304688,-0.0350189208984375
1663862598654876700,11.431876708984374,9.53839111328125,-28.645523071289062,-1.3350677490234375
1663862598664764400,11.441764404296874,10.452972412109375,-28.580886840820312,-3.2384490966796875
1663862598674652200,11.451652099609374,12.437759399414062,-25.164352416992188,-4.3038787841796875
1663862598684509200,11.46150927734375,10.65887451171875,-17.869216918945312,-9.956588745117188
1663862598694397000,11.47139697265625,11.436996459960938,-16.674514770507812,-12.733856201171875
1663862598704315100,11.481315185546874,14.978012084960938,-15.72161865234375,-11.34521484375
1663862598714203000,11.491202880859374,20.944366455078125,-10.92364501953125,-9.465774536132812
1663862598724090600,11.501090576171874,23.9610595703125,-7.7345733642578125,-9.37957763671875
1663862598733978000,11.51097802734375,22.950698852539062,-6.592529296875,-10.643722534179688
1663862598743865900,11.520865966796874,21.832611083984375,-5.4720458984375,-10.23431396484375
1663862598753753600,11.530753662109374,21.490249633789062,-3.7218780517578125,-6.9662322998046875
1663862598763641300,11.540641357421874,17.793594360351562,-3.204742431640625,-3.056488037109375
1663862598773529000,11.550529052734374,-0.4382476806640625,-3.918212890625,-1.5697021484375
1663862598783416800,11.560416748046874,-12.92401123046875,-2.529571533203125,-1.0334014892578125
1663862598793273900,11.57027392578125,-6.548248291015625,-1.3971099853515625,-1.5936431884765625
1663862598803161600,11.58016162109375,0.3494415283203125,0.2261505126953125,-2.838623046875
1663862598813049300,11.59004931640625,1.87933349609375,1.114410400390625,-2.8577728271484375
1663862598822906400,11.59990625,0.9910888671875,1.4088897705078125,-3.6741943359375
1663862598832794000,11.609794189453124,0.61041259765625,2.7448577880859375,-4.1458587646484375
1663862598842681900,11.619681884765624,0.2057952880859375,4.353759765625,-3.990234375
1663862598852569600,11.629569580078124,0.0118560791015625,6.03448486328125,-3.57843017578125
1663862598862457300,11.639457275390624,1.3909149169921875,6.949066162109375,-3.0469207763671875
1663862598872314400,11.649314453125,2.4778900146484375,6.3170013427734375,-2.4244232177734375
1663862598882202000,11.6592021484375,6.6844940185546875,7.06878662109375,1.35601806640625
1663862598892059400,11.669059326171874,5.281494140625,6.2236328125,1.1357574462890625
1663862598901947000,11.67894677734375,1.3310699462890625,6.060821533203125,-0.0733184814453125
1663862598911804200,11.68880419921875,0.78997802734375,7.5093231201171875,1.0184326171875
1663862598921722400,11.698722412109374,0.1986083984375,8.076736450195312,1.11181640625
1663862598931579600,11.70857958984375,0.675048828125,7.43988037109375,0.9777374267578125
1663862598941497900,11.718497802734374,1.8242645263671875,6.2260284423828125,1.16448974609375
1663862598951355000,11.72835498046875,3.5792236328125,4.739227294921875,0.1900482177734375
1663862598961212200,11.738212158203124,7.84808349609375,3.87969970703125,-1.3614044189453125
1663862598971100000,11.748099853515624,11.487274169921875,4.799072265625,-1.258453369140625
1663862598980987400,11.7579873046875,12.418609619140625,6.54205322265625,-0.2959747314453125
1663862598990875100,11.767875244140624,11.233474731445312,7.1454010009765625,-0.011077880859375
1663862599000763000,11.777762939453124,9.29656982421875,7.0185089111328125,-0.0685272216796875
1663862599010650600,11.787650634765624,7.2543182373046875,6.75274658203125,-0.2217559814453125
1663862599020538400,11.797538330078124,6.5839385986328125,6.5013580322265625,-0.4228668212890625
1663862599030446800,11.80744677734375,6.65576171875,6.42474365234375,-0.43963623046875
1663862599040303900,11.817303955078126,6.1338348388671875,6.3289794921875,-0.444427490234375
1663862599050222000,11.82722216796875,4.51055908203125,6.10870361328125,-0.16668701171875
1663862599060109800,11.83710986328125,3.1123504638671875,6.27630615234375,-0.0709228515625
1663862599069957600,11.84695751953125,2.432403564453125,6.4582672119140625,-0.43963623046875
1663862599079845400,11.856845458984376,1.9439849853515625,7.0256805419921875,-0.6072235107421875
1663862599089733000,11.866733154296876,2.05889892578125,8.024063110351562,-0.65032958984375
1663862599099620900,11.876620849609376,2.7891387939453125,8.699234008789062,-0.66229248046875
1663862599109508400,11.88650830078125,3.457122802734375,8.811767578125,-0.7436981201171875
1663862599119396000,11.89639599609375,3.722869873046875,8.502914428710938,-1.0860748291015625
1663862599129283800,11.906283935546876,4.0125732421875,7.9498443603515625,-1.4739227294921875
1663862599139171600,11.916171630859376,4.5057830810546875,7.4063720703125,-1.840240478515625
1663862599149059300,11.926059326171876,5.3413543701171875,7.1046905517578125,-2.2017669677734375
1663862599158946800,11.93594677734375,6.131439208984375,7.0352630615234375,-2.3621826171875
1663862599168834600,11.94583447265625,6.5408477783203125,7.1837005615234375,-2.0964202880859375
1663862599178691800,11.95569189453125,6.47381591796875,7.4039764404296875,-1.3398590087890625
1663862599188579600,11.96557958984375,6.148193359375,7.4686126708984375,-0.5784912109375
1663862599198436600,11.9754365234375,5.7651214599609375,7.449462890625,0.0320281982421875
1663862599208324400,11.985324462890626,5.370086669921875,7.4638214111328125,0.52044677734375
1663862599218212000,11.995212158203126,5.2838897705078125,7.6290283203125,0.6904296875
1663862599228099800,12.005099853515626,5.4514923095703125,7.6697235107421875,0.515655517578125
1663862599237987300,12.0149873046875,5.5113372802734375,7.4805908203125,0.3935546875
1663862599247875000,12.024875,5.40838623046875,7.26031494140625,0.5443878173828125
1663862599257762800,12.0347626953125,5.2934722900390625,6.9873809814453125,0.52044677734375
1663862599267650600,12.044650634765626,5.1306610107421875,7.03765869140625,0.2882080078125
1663862599277538300,12.054538330078126,5.1354522705078125,7.1190643310546875,-0.2816162109375
1663862599287425800,12.06442578125,5.355712890625,6.989776611328125,-0.942413330078125
1663862599297283000,12.074282958984375,5.2719268798828125,6.7288055419921875,-1.291961669921875
1663862599307170800,12.0841708984375,5.133056640625,6.5205078125,-1.3949127197265625
1663862599317058600,12.09405859375,5.21685791015625,6.3577117919921875,-1.45477294921875
1663862599326946300,12.1039462890625,5.6717529296875,5.9674530029296875,-1.61279296875
1663862599336833800,12.113833740234375,6.2295989990234375,6.0201263427734375,-1.5840606689453125
1663862599346721500,12.123721435546875,6.5887298583984375,6.1901092529296875,-1.41168212890625
1663862599356578800,12.133578857421876,6.4450836181640625,6.0799713134765625,-1.27520751953125
1663862599366466600,12.143466552734376,6.20086669921875,5.8046417236328125,-1.217742919921875
1663862599376354000,12.15335400390625,6.3253631591796875,5.4407196044921875,-1.165069580078125
1663862599386211300,12.16321142578125,7.2974090576171875,5.3282012939453125,-1.248870849609375
1663862599396099000,12.17309912109375,9.239105224609375,5.4598846435546875,-1.5194244384765625
1663862599405986800,12.18298681640625,10.826461791992188,5.57000732421875,-1.68701171875
1663862599415874300,12.192874267578125,11.116165161132812,5.488616943359375,-1.416473388671875
1663862599425762000,12.202761962890625,10.419448852539062,5.479034423828125,-0.8346710205078125
1663862599435619300,12.212619384765626,9.773025512695312,5.615509033203125,-0.583282470703125
1663862599445476400,12.222476318359375,9.081100463867188,5.7567596435546875,-0.645538330078125
1663862599455394600,12.23239453125,8.393966674804688,5.943511962890625,-0.772430419921875
1663862599465251800,12.242251953125,8.798583984375,6.0943450927734375,-0.96875
1663862599475109000,12.252109130859376,9.162490844726562,6.0512542724609375,-0.88494873046875
1663862599484996600,12.26199658203125,8.7674560546875,6.0680084228515625,-0.3007659912109375
1663862599494914800,12.271914794921875,8.171295166015625,6.0727996826171875,0.0487823486328125
1663862599504802600,12.281802490234375,7.0364532470703125,6.4917755126953125,0.357635498046875
1663862599514690300,12.291690185546875,6.3708648681640625,6.949066162109375,0.3719940185546875
1663862599524578000,12.301578125,5.90399169921875,7.0496368408203125,0.103851318359375
1663862599534465800,12.3114658203125,5.2743072509765625,7.03765869140625,0.0583648681640625
1663862599544353500,12.321353515625,5.1210784912109375,6.9035797119140625,0.041595458984375
1663862599554241000,12.331240966796875,5.1210784912109375,6.78387451171875,-0.0038909912109375
1663862599564098300,12.341098388671876,5.329376220703125,6.6976776123046875,-0.1164093017578125
1663862599573986000,12.350986083984376,5.456268310546875,6.5803680419921875,-0.16668701171875
1663862599583843000,12.360843017578125,5.851318359375,6.726409912109375,-0.164306640625
1663862599593730800,12.370730712890625,6.301422119140625,6.79583740234375,-0.2696380615234375
1663862599603618600,12.38061865234375,6.4139556884765625,6.769500732421875,-0.2169647216796875
1663862599613506300,12.39050634765625,6.6054840087890625,6.6186676025390625,-0.2145843505859375
1663862599623394000,12.40039404296875,7.113067626953125,6.4462890625,-0.444427490234375
1663862599633281500,12.410281494140625,7.5607757568359375,6.3696746826171875,-0.7029876708984375
1663862599643169300,12.420169189453125,7.852874755859375,6.3313751220703125,-0.8131256103515625
1663862599653057000,12.43005712890625,8.302978515625,6.3122100830078125,-0.7341156005859375
1663862599662944800,12.43994482421875,8.405929565429688,6.3960113525390625,-0.487518310546875
1663862599672832500,12.44983251953125,7.89117431640625,6.5013580322265625,-0.2361297607421875
1663862599682689500,12.459689453125,7.273468017578125,6.587554931640625,-0.276824951171875
1663862599692546800,12.469546875,6.8520965576171875,6.6713409423828125,-0.4851226806640625
1663862599702434600,12.4794345703125,6.437896728515625,6.8030242919921875,-0.7341156005859375
1663862599712322000,12.489322021484375,5.719635009765625,6.989776611328125,-0.9543914794921875
1663862599722179300,12.499179443359376,4.809844970703125,7.23876953125,-1.09564208984375
1663862599732067000,12.509067138671876,4.266357421875,7.475799560546875,-1.16986083984375
1663862599741954800,12.518954833984376,4.0748138427734375,7.672119140625,-1.0717010498046875
1663862599751842300,12.52884228515625,4.2998809814453125,7.7271881103515625,-0.8490447998046875
1663862599761699600,12.538699462890625,5.04925537109375,7.6362152099609375,-0.499481201171875
1663862599771587300,12.54858740234375,6.2415771484375,7.432708740234375,-0.2433013916015625
1663862599781505500,12.558505615234376,7.6230316162109375,7.1046905517578125,-0.3366851806640625
1663862599791362600,12.568362548828125,8.559158325195312,6.60430908203125,-0.5114593505859375
1663862599801250300,12.578250244140625,8.83209228515625,6.20208740234375,-0.6551055908203125
1663862599811138000,12.588137939453125,8.29339599609375,6.0464630126953125,-0.750885009765625
1663862599821025800,12.59802587890625,7.2758636474609375,6.1901092529296875,-0.90411376953125
1663862599830883000,12.607883056640626,6.1817169189453125,6.5109405517578125,-1.1243743896484375
1663862599840801300,12.61780126953125,5.255157470703125,6.8341522216796875,-1.2728118896484375
1663862599850658300,12.627658203125,4.69970703125,7.1142730712890625,-1.3877410888671875
1663862599860546000,12.637546142578126,4.6183013916015625,7.2507476806640625,-1.4451904296875
1663862599870403300,12.6474033203125,4.852935791015625,7.190887451171875,-1.4954833984375
1663862599880321500,12.657321533203126,5.0731964111328125,7.0233001708984375,-1.3949127197265625
1663862599890209000,12.667208984375,5.116302490234375,6.92034912109375,-1.1363525390625
1663862599900096800,12.6770966796875,5.054046630859375,6.927520751953125,-0.899322509765625
1663862599909984500,12.686984619140626,5.0205230712890625,7.0400543212890625,-0.7556610107421875
1663862599919841800,12.696841796875,4.9941864013671875,7.2196197509765625,-0.5282135009765625
1663862599929729300,12.706729248046875,4.936737060546875,7.4518585205078125,-0.1164093017578125
1663862599939617000,12.716616943359375,4.9295501708984375,7.7367706298828125,0.331298828125
1663862599949474300,12.726474365234376,5.47064208984375,7.9498443603515625,0.3025665283203125
1663862599959392500,12.736392578125,6.05242919921875,7.8828125,-0.0038909912109375
1663862599969249500,12.74624951171875,6.3445281982421875,7.449462890625,-0.3965301513671875
1663862599979137300,12.75613720703125,5.9494781494140625,6.853302001953125,-0.7221527099609375
1663862599989025000,12.76602490234375,5.33416748046875,6.4391021728515625,-0.8921356201171875
1663862599998882300,12.77588232421875,5.456268310546875,6.0512542724609375,-1.1890106201171875
1663862600008800500,12.785800537109376,6.1170806884765625,5.9051971435546875,-1.3614044189453125
1663862600018688000,12.79568798828125,7.261505126953125,5.807037353515625,-1.375762939453125
1663862600028545300,12.805545166015625,7.663726806640625,5.8357696533203125,-1.184234619140625
1663862600038433000,12.81543310546875,7.5392303466796875,6.1589813232421875,-0.9543914794921875
1663862600048320800,12.82532080078125,7.2327728271484375,6.302642822265625,-1.1339569091796875
1663862600058208500,12.83520849609375,6.5671844482421875,6.27630615234375,-1.2991485595703125
